Location-lat,Location-long,Speed,Accelerometer-X,Accelerometer-Y,Accelerometer-Z
49.222888, 4.049897, 0.00, -2.13, 2.48, 9.74
49.222922, 4.049804, 5.95, -2.39, 2.42, 9.79
49.222922, 4.049804, 5.95, -2.17, 2.01, 9.40
49.222966, 4.049694, 9.08, -2.33, 1.78, 9.55
49.222966, 4.049694, 9.08, -0.48, 1.67, 7.12
49.223015, 4.049576, 9.69, -1.23, 2.44, 10.22
49.223015, 4.049576, 9.69, -1.99, 1.34, 9.18
49.223067, 4.049451, 10.49, -1.53, 1.10, 8.73
49.223067, 4.049451, 10.49, -0.57, 0.89, 9.68
49.223121, 4.049321, 10.65, -1.32, 1.63, 10.52
49.223121, 4.049321, 10.65, -1.66, 0.51, 8.51
49.223176, 4.049192, 10.57, -1.36, 0.81, 11.43
49.223176, 4.049192, 10.57, -1.06, 0.19, 9.01
49.223230, 4.049067, 10.21, -1.58, 0.87, 10.99
49.223230, 4.049067, 10.21, -1.58, 0.95, 9.69
49.223282, 4.048949, 9.91, -1.52, 0.54, 9.80
49.223282, 4.048949, 9.91, -1.14, 0.67, 8.90
49.223331, 4.048834, 9.75, -1.35, 1.13, 9.51
49.223331, 4.048834, 9.75, -0.64, 0.37, 10.35
49.223378, 4.048725, 9.49, -0.25, -0.25, 8.02
49.223378, 4.048725, 9.49, -0.70, 0.74, 8.66
49.223424, 4.048619, 9.16, -1.56, 0.69, 10.34
49.223471, 4.048517, 9.08, -1.09, 2.32, 9.03
49.223471, 4.048517, 9.08, -1.55, 1.31, 9.47
49.223517, 4.048412, 9.20, -1.13, 1.36, 9.36
49.223517, 4.048412, 9.20, -0.98, 0.70, 8.01
49.223564, 4.048305, 9.39, -1.41, 0.73, 9.25
49.223564, 4.048305, 9.39, -0.80, 1.38, 7.64
49.223612, 4.048199, 9.29, -1.03, 0.29, 10.07
49.223612, 4.048199, 9.29, -1.40, 1.04, 10.26
49.223657, 4.048095, 8.67, -0.52, 0.99, 9.59
49.223657, 4.048095, 8.67, -0.61, 0.07, 11.94
49.223696, 4.047999, 7.21, -0.35, -0.87, 10.27
49.223696, 4.047999, 7.21, -0.42, 0.29, 12.51
49.223728, 4.047920, 5.67, -0.85, 0.93, 9.96
49.223728, 4.047920, 5.67, -1.36, 1.86, 9.43
49.223757, 4.047848, 6.04, -1.02, 2.77, 8.78
49.223757, 4.047848, 6.04, -1.58, 2.53, 10.00
49.223791, 4.047766, 7.35, -1.04, 2.59, 10.99
49.223791, 4.047766, 7.35, -2.50, 1.08, 9.20
49.223830, 4.047671, 8.75, -2.48, 1.93, 9.46
49.223830, 4.047671, 8.75, -2.23, 1.15, 8.38
49.223874, 4.047560, 9.93, -1.85, 1.93, 9.00
49.223874, 4.047560, 9.93, -1.43, 1.89, 10.21
49.223925, 4.047438, 11.11, -1.11, 1.28, 9.01
49.223925, 4.047438, 11.11, -2.41, 2.26, 9.68
49.223980, 4.047304, 11.97, -1.81, 1.41, 7.83
49.223980, 4.047304, 11.97, -1.54, 0.98, 8.93
49.224044, 4.047164, 12.89, -2.55, 2.50, 10.45
49.224044, 4.047164, 12.89, -1.87, 1.07, 8.24
49.224111, 4.047013, 13.45, -1.25, 1.09, 9.35
49.224111, 4.047013, 13.45, -1.56, 3.20, 10.22
49.224182, 4.046852, 14.13, -1.51, 2.01, 9.83
49.224182, 4.046852, 14.13, -1.61, 1.59, 8.36
49.224256, 4.046685, 14.85, -1.82, 1.60, 10.03
49.224256, 4.046685, 14.85, -2.06, 1.14, 10.14
49.224332, 4.046511, 15.19, -1.64, 1.43, 9.35
49.224332, 4.046511, 15.19, -1.51, 0.79, 10.70
49.224411, 4.046333, 15.52, -0.33, 1.42, 9.87
49.224411, 4.046333, 15.52, -1.30, 0.72, 8.65
49.224488, 4.046155, 15.31, -1.71, 0.88, 11.12
49.224563, 4.045976, 14.94, -3.08, 1.15, 8.83
49.224563, 4.045976, 14.94, -1.81, 1.19, 10.90
49.224638, 4.045807, 14.66, -1.36, 0.90, 9.40
49.224638, 4.045807, 14.66, -1.42, 0.39, 10.18
49.224711, 4.045644, 14.16, -2.30, 0.96, 9.57
49.224711, 4.045644, 14.16, -1.13, 0.33, 9.82
49.224784, 4.045485, 14.04, -1.41, 0.93, 10.88
49.224784, 4.045485, 14.04, -1.17, 0.70, 10.17
49.224855, 4.045329, 13.90, -0.94, 1.11, 10.88
49.224855, 4.045329, 13.90, -1.35, 1.21, 10.05
49.224924, 4.045173, 13.63, -2.27, 0.59, 10.79
49.224924, 4.045173, 13.63, -0.46, 1.03, 8.84
49.224990, 4.045011, 13.55, -1.22, 0.93, 10.73
49.224990, 4.045011, 13.55, -1.54, 1.29, 10.12
49.225057, 4.044860, 13.22, -0.61, 0.84, 8.66
49.225057, 4.044860, 13.22, -1.99, 1.55, 11.86
49.225124, 4.044713, 12.94, -1.81, 1.02, 9.53
49.225124, 4.044713, 12.94, -2.00, 0.81, 10.27
49.225190, 4.044568, 12.82, -1.70, 0.66, 9.98
49.225190, 4.044568, 12.82, -1.18, 1.57, 9.96
49.225255, 4.044422, 12.82, -1.16, 1.31, 10.37
49.225255, 4.044422, 12.82, -1.34, 0.57, 8.58
49.225316, 4.044279, 12.66, -1.02, 1.68, 9.94
49.225316, 4.044279, 12.66, -1.13, 1.05, 10.23
49.225379, 4.044132, 12.44, -1.31, 0.98, 8.98
49.225379, 4.044132, 12.44, -0.50, 0.68, 9.60
49.225441, 4.043993, 12.16, -1.45, 0.55, 11.20
49.225441, 4.043993, 12.16, 0.12, -0.09, 9.98
49.225503, 4.043855, 11.80, -0.82, 0.74, 11.65
49.225503, 4.043855, 11.80, -0.37, 1.36, 9.70
49.225562, 4.043722, 10.94, -1.26, -0.18, 8.00
49.225562, 4.043722, 10.94, -0.76, 0.43, 9.17
49.225617, 4.043603, 10.04, -0.68, 1.10, 10.50
49.225617, 4.043603, 10.04, -0.57, 0.06, 9.46
49.225666, 4.043493, 9.30, -0.94, 0.67, 10.12
49.225666, 4.043493, 9.30, -0.02, 0.74, 11.10
49.225712, 4.043392, 8.66, 0.11, 0.28, 9.92
49.225712, 4.043392, 8.66, -1.00, 0.88, 10.22
49.225751, 4.043301, 7.41, -0.82, 0.34, 9.58
49.225751, 4.043301, 7.41, -0.63, 0.52, 9.50
49.225786, 4.043224, 6.55, -1.80, 0.38, 9.70
49.225821, 4.043150, 5.82, -1.03, 0.81, 10.11
49.225821, 4.043150, 5.82, -0.46, 0.30, 9.70
49.225851, 4.043092, 4.84, -1.10, -0.24, 8.78
49.225851, 4.043092, 4.84, -1.20, 0.02, 9.05
49.225874, 4.043046, 3.58, -0.78, -0.73, 9.25
49.225874, 4.043046, 3.58, -1.05, 0.11, 9.45
49.225887, 4.043019, 2.38, -1.06, 0.57, 10.02
49.225887, 4.043019, 2.38, -1.03, 1.08, 9.68
49.225896, 4.043001, 1.60, -1.20, 1.35, 9.56
49.225896, 4.043001, 1.60, -1.57, 1.77, 9.79
49.225904, 4.042986, 1.88, -1.69, 1.79, 9.28
49.225904, 4.042986, 1.88, -1.69, 2.83, 9.59
49.225918, 4.042963, 2.87, -1.69, 2.40, 9.77
49.225918, 4.042963, 2.87, -2.14, 2.62, 10.50
49.225940, 4.042923, 4.09, -1.79, 2.73, 8.94
49.225940, 4.042923, 4.09, -1.54, 2.02, 9.74
49.225966, 4.042873, 5.38, -2.58, 3.04, 9.65
49.225966, 4.042873, 5.38, -2.11, 2.48, 8.85
49.226000, 4.042810, 6.43, -2.40, 1.99, 8.87
49.226000, 4.042810, 6.43, -2.22, 2.28, 8.62
49.226039, 4.042733, 7.67, -2.91, 1.57, 8.53
49.226039, 4.042733, 7.67, -2.25, 1.71, 8.14
49.226084, 4.042645, 8.64, -1.46, 1.87, 9.76
49.226084, 4.042645, 8.64, -1.76, 1.08, 9.21
49.226132, 4.042546, 9.40, -2.06, 1.55, 8.15
49.226132, 4.042546, 9.40, -0.96, 2.18, 9.47
49.226184, 4.042438, 9.97, -1.89, 1.16, 9.09
49.226184, 4.042438, 9.97, -1.00, 0.49, 10.05
49.226236, 4.042323, 10.46, -2.25, 3.08, 9.38
49.226236, 4.042323, 10.46, -1.79, 1.78, 10.09
49.226291, 4.042198, 11.14, -0.46, 1.69, 9.73
49.226291, 4.042198, 11.14, -1.44, 2.37, 9.69
49.226348, 4.042071, 11.08, -0.96, 0.92, 9.16
49.226348, 4.042071, 11.08, -0.57, 1.75, 9.86
49.226404, 4.041943, 11.21, -1.63, 1.15, 10.06
49.226404, 4.041943, 11.21, -1.69, 1.39, 9.39
49.226459, 4.041813, 11.22, -2.13, 0.79, 9.54
49.226459, 4.041813, 11.22, -1.00, 1.68, 10.17
49.226513, 4.041685, 11.13, -1.83, 1.63, 9.90
49.226568, 4.041556, 11.33, -1.11, 1.36, 8.99
49.226568, 4.041556, 11.33, -0.76, 1.18, 9.05
49.226624, 4.041423, 11.42, -0.49, 1.84, 8.15
49.226624, 4.041423, 11.42, -1.33, 1.80, 9.88
49.226680, 4.041286, 11.66, -0.47, 1.55, 9.43
49.226680, 4.041286, 11.66, -1.36, 0.78, 10.17
49.226736, 4.041148, 11.82, -0.79, 1.05, 8.29
49.226736, 4.041148, 11.82, -0.86, 0.40, 8.40
49.226796, 4.041015, 11.78, -1.00, 0.32, 9.19
49.226796, 4.041015, 11.78, -0.58, 0.85, 9.89
49.226855, 4.040887, 11.33, -0.72, 0.88, 10.00
49.226855, 4.040887, 11.33, -1.20, 0.92, 8.55
49.226911, 4.040763, 10.93, -1.82, 0.98, 10.30
49.226911, 4.040763, 10.93, -1.24, 1.21, 10.79
49.226965, 4.040642, 10.61, -0.58, 1.37, 10.23
49.226965, 4.040642, 10.61, -1.52, 0.82, 6.90
49.227016, 4.040524, 10.17, -1.16, 0.76, 10.18
49.227016, 4.040524, 10.17, -1.30, 1.19, 9.52
49.227066, 4.040411, 9.82, -0.85, 1.04, 9.91
49.227066, 4.040411, 9.82, -0.71, 1.31, 10.71
49.227115, 4.040299, 9.58, -1.40, 2.45, 10.07
49.227115, 4.040299, 9.58, -1.34, 1.58, 9.90
49.227162, 4.040188, 9.59, -1.02, 1.06, 9.11
49.227162, 4.040188, 9.59, -1.47, 1.50, 9.44
49.227210, 4.040078, 9.78, -0.47, 1.60, 8.96
49.227210, 4.040078, 9.78, -1.25, 1.34, 9.29
49.227262, 4.039964, 10.08, -1.36, 1.84, 10.21
49.227262, 4.039964, 10.08, -2.54, 3.39, 8.45
49.227313, 4.039843, 10.62, -1.60, 2.46, 10.08
49.227313, 4.039843, 10.62, -2.20, 1.48, 9.33
49.227367, 4.039716, 11.07, -0.54, 2.10, 9.66
49.227367, 4.039716, 11.07, -1.46, 1.92, 9.23
49.227424, 4.039585, 11.67, -0.93, 1.20, 9.46
49.227424, 4.039585, 11.67, -0.67, 1.28, 9.37
49.227483, 4.039446, 12.06, -1.10, 1.05, 9.82
49.227483, 4.039446, 12.06, -2.07, 1.54, 10.20
49.227544, 4.039309, 12.30, -0.80, 1.36, 9.89
49.227544, 4.039309, 12.30, -1.59, 1.71, 8.94
49.227605, 4.039168, 12.42, -0.59, 0.80, 9.11
49.227605, 4.039168, 12.42, -1.65, 0.59, 10.75
49.227668, 4.039025, 12.40, -0.94, 0.57, 9.62
49.227730, 4.038885, 12.33, -0.91, 1.03, 10.10
49.227730, 4.038885, 12.33, -0.61, 0.71, 9.47
49.227792, 4.038750, 12.14, -2.35, 1.18, 11.70
49.227792, 4.038750, 12.14, -1.69, 0.12, 10.07
49.227854, 4.038616, 11.86, -0.51, 1.37, 9.40
49.227854, 4.038616, 11.86, -1.12, 0.87, 10.09
49.227914, 4.038480, 11.44, -0.31, 0.80, 9.24
49.227914, 4.038480, 11.44, -0.54, 1.12, 9.67
49.227972, 4.038350, 10.93, -0.90, 1.26, 10.87
49.227972, 4.038350, 10.93, -0.76, 1.19, 10.46
49.228030, 4.038231, 10.63, -0.76, 0.91, 9.47
49.228030, 4.038231, 10.63, -1.15, 1.26, 9.61
49.228092, 4.038117, 10.14, -0.84, 1.10, 9.90
49.228092, 4.038117, 10.14, -0.44, 0.27, 9.12
49.228153, 4.038016, 9.64, -0.49, 0.56, 10.13
49.228153, 4.038016, 9.64, -0.83, 0.68, 10.21
49.228214, 4.037923, 8.62, -0.98, 0.51, 9.54
49.228214, 4.037923, 8.62, -0.89, 0.44, 9.89
49.228265, 4.037841, 7.77, -0.51, 1.39, 10.22
49.228265, 4.037841, 7.77, -0.91, 0.90, 9.44
49.228313, 4.037766, 7.15, -0.57, 0.35, 10.28
49.228313, 4.037766, 7.15, -0.85, 1.02, 9.74
49.228358, 4.037701, 6.60, -0.56, 0.79, 9.00
49.228358, 4.037701, 6.60, -0.89, 0.85, 10.66
49.228398, 4.037641, 6.17, -1.99, 0.41, 8.82
49.228398, 4.037641, 6.17, -1.41, 1.71, 8.80
49.228436, 4.037584, 5.81, -0.98, 1.70, 10.07
49.228436, 4.037584, 5.81, -1.70, 1.30, 9.39
49.228473, 4.037524, 6.06, -1.15, 0.80, 9.68
49.228473, 4.037524, 6.06, -1.16, 0.64, 10.12
49.228510, 4.037465, 5.62, -1.15, 0.75, 10.10
49.228510, 4.037465, 5.62, -0.78, 0.37, 9.25
49.228542, 4.037414, 5.11, -0.82, 0.29, 10.52
49.228542, 4.037414, 5.11, -1.21, 0.90, 9.79
49.228571, 4.037372, 4.08, -1.22, 1.04, 10.16
49.228571, 4.037372, 4.08, -1.39, 1.52, 10.13
49.228597, 4.037337, 3.84, -1.50, 1.39, 9.75
49.228597, 4.037337, 3.84, -1.10, 1.91, 9.47
49.228624, 4.037298, 4.14, -0.71, 1.99, 10.06
49.228652, 4.037258, 4.21, -1.28, 2.60, 9.98
49.228652, 4.037258, 4.21, -2.12, 2.59, 9.09
49.228684, 4.037218, 4.94, -0.92, 2.83, 8.32
49.228684, 4.037218, 4.94, -0.63, 2.60, 10.03
49.228721, 4.037177, 5.46, -1.37, 1.99, 9.04
49.228721, 4.037177, 5.46, -1.47, 1.57, 8.18
49.228768, 4.037138, 6.55, -2.08, 1.52, 9.67
49.228768, 4.037138, 6.55, -2.09, 1.14, 9.31
49.228819, 4.037101, 6.86, -2.36, 0.61, 9.62
49.228819, 4.037101, 6.86, -2.48, 1.94, 10.32
49.228870, 4.037056, 7.34, -2.36, 1.02, 9.23
49.228870, 4.037056, 7.34, -3.78, 1.73, 8.74
49.228923, 4.036988, 8.15, -2.59, 1.55, 9.91
49.228923, 4.036988, 8.15, -2.08, 1.69, 8.91
49.228972, 4.036893, 9.15, -1.17, 1.77, 10.38
49.228972, 4.036893, 9.15, 0.94, 2.38, 9.65
49.229011, 4.036781, 9.57, -0.05, 2.80, 9.28
49.229011, 4.036781, 9.57, -0.12, 2.60, 11.91
49.229057, 4.036663, 10.26, 0.26, 2.07, 7.73
49.229057, 4.036663, 10.26, -0.51, 1.77, 9.29
49.229121, 4.036548, 11.15, -0.50, 2.99, 7.93
49.229121, 4.036548, 11.15, 0.17, 2.21, 9.90
49.229195, 4.036433, 11.84, -1.26, 2.33, 10.07
49.229195, 4.036433, 11.84, -2.17, 2.72, 10.46
49.229282, 4.036332, 12.17, -0.65, 1.99, 8.83
49.229282, 4.036332, 12.17, -1.94, 1.62, 10.31
49.229377, 4.036235, 13.07, -1.71, 1.43, 9.78
49.229377, 4.036235, 13.07, -1.42, 2.42, 9.06
49.229480, 4.036145, 13.64, -1.42, 1.71, 8.88
49.229480, 4.036145, 13.64, -2.18, 1.54, 8.56
49.229597, 4.036057, 14.39, -0.63, 1.39, 9.80
49.229597, 4.036057, 14.39, -0.36, 1.37, 9.66
49.229720, 4.035975, 14.69, -1.26, 1.36, 10.08
49.229720, 4.035975, 14.69, -1.28, 1.11, 8.94
49.229844, 4.035900, 14.43, -1.10, 0.91, 10.05
49.229844, 4.035900, 14.43, -1.46, 1.25, 9.80
49.229966, 4.035830, 14.29, -1.71, 1.33, 9.55
49.229966, 4.035830, 14.29, -1.01, 0.81, 10.23
49.230090, 4.035761, 14.59, -1.31, 0.82, 8.81
49.230090, 4.035761, 14.59, -0.10, 1.07, 9.88
49.230213, 4.035690, 14.32, 1.47, 1.02, 9.37
49.230339, 4.035623, 14.42, -0.00, 1.40, 10.41
49.230339, 4.035623, 14.42, -0.37, 1.15, 8.94
49.230469, 4.035558, 14.71, -0.16, 1.16, 10.61
49.230469, 4.035558, 14.71, 0.45, 1.07, 9.12
49.230601, 4.035500, 14.99, 0.48, 1.70, 10.58
49.230601, 4.035500, 14.99, 0.60, 2.04, 9.84
49.230733, 4.035457, 15.02, 0.82, 1.20, 8.96
49.230733, 4.035457, 15.02, 0.21, 1.11, 9.69
49.230873, 4.035436, 15.24, 1.44, 1.54, 9.58
49.230873, 4.035436, 15.24, 0.76, 1.59, 8.97
49.231016, 4.035449, 15.56, -0.11, 0.95, 10.88
49.231016, 4.035449, 15.56, 0.69, 2.52, 10.18
49.231159, 4.035481, 15.39, 0.05, 2.01, 11.15
49.231159, 4.035481, 15.39, 0.61, 1.12, 10.32
49.231294, 4.035544, 15.34, 1.98, 1.89, 10.09
49.231294, 4.035544, 15.34, 1.40, 1.68, 8.61
49.231425, 4.035623, 15.28, 1.42, 2.31, 8.93
49.231425, 4.035623, 15.28, 1.22, 3.39, 8.19
49.231543, 4.035729, 14.66, 0.18, 2.18, 10.59
49.231543, 4.035729, 14.66, -0.19, 1.73, 9.00
49.231653, 4.035869, 14.51, -0.32, 1.65, 10.96
49.231653, 4.035869, 14.51, -2.07, 1.82, 9.23
49.231746, 4.036027, 14.31, -0.79, 1.02, 9.02
49.231746, 4.036027, 14.31, 0.21, 0.79, 9.50
49.231830, 4.036181, 14.00, -1.80, 1.02, 9.90
49.231830, 4.036181, 14.00, -1.23, 1.25, 10.38
49.231914, 4.036327, 14.07, -1.19, 2.01, 9.10
49.231914, 4.036327, 14.07, -1.36, 0.70, 9.10
49.232000, 4.036472, 14.06, -1.59, 1.13, 8.18
49.232000, 4.036472, 14.06, -0.71, 0.78, 9.86
49.232089, 4.036617, 14.31, -0.95, 1.45, 10.31
49.232089, 4.036617, 14.31, -0.34, 1.10, 8.10
49.232181, 4.036761, 14.01, -0.34, 1.02, 9.38
49.232181, 4.036761, 14.01, -1.36, 0.35, 9.73
49.232268, 4.036908, 13.56, -0.81, -0.04, 10.90
49.232268, 4.036908, 13.56, -1.10, 1.33, 9.64
49.232345, 4.037050, 12.78, -0.23, 0.64, 9.95
49.232345, 4.037050, 12.78, -1.11, 1.00, 8.42
49.232419, 4.037182, 12.37, -1.08, -0.66, 9.67
49.232489, 4.037308, 11.87, -0.85, 0.71, 11.14
49.232489, 4.037308, 11.87, -0.49, -0.00, 9.92
49.232552, 4.037421, 10.27, -1.02, -0.30, 9.94
49.232552, 4.037421, 10.27, -1.17, 0.30, 10.15
49.232601, 4.037513, 8.16, -0.91, 0.10, 9.62
49.232601, 4.037513, 8.16, -1.02, 0.48, 10.09
49.232642, 4.037590, 7.30, -1.56, 1.46, 10.66
49.232642, 4.037590, 7.30, -1.19, 1.38, 9.61
49.232676, 4.037660, 7.06, -1.35, 1.68, 9.37
49.232676, 4.037660, 7.06, -1.21, 0.64, 9.62
49.232711, 4.037729, 6.71, -1.20, 0.95, 9.44
49.232711, 4.037729, 6.71, -1.29, 1.18, 10.14
49.232745, 4.037796, 6.36, -1.62, 1.33, 9.46
49.232745, 4.037796, 6.36, -1.79, 2.02, 9.73
49.232783, 4.037862, 6.63, -1.12, 2.03, 8.85
49.232783, 4.037862, 6.63, -1.12, 1.78, 9.61
49.232825, 4.037932, 6.94, -1.78, 1.73, 9.10
49.232825, 4.037932, 6.94, -1.72, 2.08, 9.50
49.232868, 4.038009, 7.70, -1.40, 1.81, 9.19
49.232868, 4.038009, 7.70, -1.19, 0.89, 9.30
49.232913, 4.038092, 7.74, -1.58, 1.59, 9.38
49.232913, 4.038092, 7.74, -1.37, 2.02, 9.95
49.232959, 4.038176, 7.97, -1.75, 1.98, 8.64
49.232959, 4.038176, 7.97, -2.22, 2.27, 9.39
49.233005, 4.038261, 8.26, -1.47, 1.27, 9.63
49.233005, 4.038261, 8.26, -2.40, 2.22, 9.48
49.233056, 4.038355, 8.98, -0.90, 1.79, 9.51
49.233056, 4.038355, 8.98, -1.77, 1.57, 9.89
49.233110, 4.038458, 9.58, -1.17, 2.02, 10.40
49.233110, 4.038458, 9.58, -2.02, 2.39, 10.62
49.233172, 4.038567, 10.46, -0.71, 1.39, 8.06
49.233172, 4.038567, 10.46, -0.06, 2.74, 9.31
49.233238, 4.038683, 10.95, -2.36, 1.41, 9.22
49.233238, 4.038683, 10.95, -1.19, 0.74, 10.13
49.233306, 4.038802, 11.27, -2.19, 0.80, 10.94
49.233306, 4.038802, 11.27, -1.27, 1.33, 9.32
49.233375, 4.038919, 11.28, -1.72, 1.08, 10.86
49.233375, 4.038919, 11.28, -1.17, 0.73, 8.56
49.233444, 4.039037, 11.26, -3.70, 1.15, 9.25
49.233444, 4.039037, 11.26, -1.03, 1.09, 8.64
49.233511, 4.039154, 11.41, -1.12, 1.52, 9.14
49.233579, 4.039272, 11.55, -2.39, 1.76, 10.00
49.233579, 4.039272, 11.55, -1.45, 1.97, 10.13
49.233648, 4.039393, 11.76, -1.14, 1.79, 10.87
49.233648, 4.039393, 11.76, -0.91, 1.55, 9.89
49.233717, 4.039517, 11.66, -1.30, 0.91, 9.62
49.233717, 4.039517, 11.66, -1.70, 0.60, 10.02
49.233784, 4.039636, 11.35, -0.98, 1.38, 9.34
49.233784, 4.039636, 11.35, -1.24, 1.26, 9.77
49.233849, 4.039754, 11.07, -2.45, 0.65, 9.66
49.233849, 4.039754, 11.07, -1.18, 0.39, 10.63
49.233912, 4.039866, 10.55, -2.41, 1.13, 9.08
49.233912, 4.039866, 10.55, -1.28, 1.02, 9.71
49.233972, 4.039974, 10.05, -0.79, 0.08, 10.71
49.233972, 4.039974, 10.05, -2.21, -0.08, 9.09
49.234028, 4.040075, 9.59, -1.77, 0.92, 9.72
49.234028, 4.040075, 9.59, -1.24, 0.83, 9.49
49.234083, 4.040172, 9.18, -1.33, 0.99, 10.11
49.234083, 4.040172, 9.18, -1.92, 0.95, 8.73
49.234136, 4.040265, 8.91, -0.57, 0.74, 8.92
49.234136, 4.040265, 8.91, -2.00, 2.28, 10.54
49.234189, 4.040357, 8.71, -0.74, 1.38, 10.60
49.234189, 4.040357, 8.71, -0.91, 0.87, 9.62
49.234244, 4.040450, 8.71, -1.31, 1.94, 10.32
49.234244, 4.040450, 8.71, -1.85, 1.03, 9.84
49.234298, 4.040541, 8.66, -0.51, 0.31, 10.26
49.234298, 4.040541, 8.66, -1.70, 1.19, 10.03
49.234350, 4.040629, 8.52, -1.94, 1.53, 9.69
49.234350, 4.040629, 8.52, -0.87, 0.95, 9.30
49.234403, 4.040718, 8.52, -1.95, 1.44, 10.05
49.234403, 4.040718, 8.52, 0.09, 1.26, 10.08
49.234452, 4.040807, 8.60, -1.99, 0.10, 9.75
49.234452, 4.040807, 8.60, -0.11, 2.32, 10.01
49.234501, 4.040897, 8.70, -0.74, 1.92, 9.90
49.234501, 4.040897, 8.70, -0.88, 1.82, 9.84
49.234543, 4.040995, 8.90, 0.25, 2.25, 9.78
49.234543, 4.040995, 8.90, 0.94, 1.55, 8.96
49.234578, 4.041102, 8.89, 0.32, 1.79, 9.87
49.234578, 4.041102, 8.89, -0.10, 1.83, 9.70
49.234600, 4.041214, 8.80, 0.63, 1.90, 10.23
49.234600, 4.041214, 8.80, 0.01, 2.35, 9.67
49.234609, 4.041329, 8.93, 0.52, 1.89, 9.51
49.234605, 4.041456, 9.00, 0.34, 2.02, 10.31
49.234605, 4.041456, 9.00, 0.28, 2.40, 10.46
49.234584, 4.041588, 9.65, 0.57, 2.28, 9.83
49.234584, 4.041588, 9.65, 0.73, 2.56, 8.86
49.234538, 4.041709, 9.79, 1.27, 2.31, 9.96
49.234538, 4.041709, 9.79, 0.88, 2.07, 9.64
49.234469, 4.041818, 10.41, 0.63, 1.98, 9.12
49.234469, 4.041818, 10.41, 1.10, 1.58, 9.69
49.234379, 4.041900, 10.68, 1.47, 1.80, 9.73
49.234379, 4.041900, 10.68, 1.55, 1.44, 8.79
49.234276, 4.041943, 10.87, 1.36, 2.02, 10.11
49.234276, 4.041943, 10.87, 1.74, 1.22, 9.08
49.234164, 4.041943, 11.19, 1.48, 1.98, 9.39
49.234164, 4.041943, 11.19, 1.96, 1.80, 9.34
49.234055, 4.041909, 11.10, 1.37, 1.83, 10.69
49.234055, 4.041909, 11.10, 1.20, 2.58, 10.18
49.233954, 4.041837, 11.33, 1.67, 2.34, 10.24
49.233954, 4.041837, 11.33, 1.31, 1.92, 9.86
49.233868, 4.041717, 11.85, 2.50, 2.52, 9.47
49.233868, 4.041717, 11.85, 1.62, 2.32, 9.72
49.233807, 4.041569, 11.83, 1.29, 2.37, 9.87
49.233807, 4.041569, 11.83, 0.51, 2.53, 10.83
49.233771, 4.041395, 12.12, 1.53, 3.19, 10.03
49.233771, 4.041395, 12.12, 1.66, 2.79, 9.66
49.233768, 4.041214, 12.43, 1.81, 2.63, 9.91
49.233768, 4.041214, 12.43, 1.64, 3.22, 10.79
49.233789, 4.041037, 11.90, 1.83, 3.31, 8.33
49.233789, 4.041037, 11.90, -0.38, 2.77, 8.91
49.233840, 4.040875, 12.45, -0.23, 3.32, 10.17
49.233840, 4.040875, 12.45, -1.01, 2.23, 9.39
49.233917, 4.040733, 12.97, -1.86, 1.65, 9.15
49.233917, 4.040733, 12.97, -1.34, 2.72, 10.00
49.234017, 4.040612, 14.01, -1.31, 1.96, 9.26
49.234017, 4.040612, 14.01, -2.13, 2.54, 10.06
49.234124, 4.040488, 14.63, -1.72, 1.75, 9.73
49.234124, 4.040488, 14.63, -1.06, 1.08, 10.69
49.234234, 4.040360, 15.01, -1.21, 2.03, 9.67
49.234234, 4.040360, 15.01, -0.50, 0.95, 9.83
49.234347, 4.040225, 15.04, -1.36, 1.19, 9.86
49.234347, 4.040225, 15.04, -1.26, 1.50, 11.13
49.234470, 4.040076, 16.23, -2.48, 1.44, 9.18
49.234599, 4.039928, 16.91, -1.19, 2.96, 10.40
49.234599, 4.039928, 16.91, -0.91, 0.95, 9.92
49.234729, 4.039778, 17.81, -1.76, 1.87, 9.70
49.234729, 4.039778, 17.81, -1.07, 1.86, 9.74
49.234865, 4.039622, 18.31, -1.64, 2.39, 10.88
49.234865, 4.039622, 18.31, -1.34, 2.27, 9.73
49.235003, 4.039465, 18.73, -1.02, 1.02, 9.01
49.235003, 4.039465, 18.73, -1.02, 1.95, 9.04
49.235146, 4.039305, 19.32, -1.30, 1.57, 8.15
49.235146, 4.039305, 19.32, -1.67, 1.59, 9.73
49.235289, 4.039140, 19.75, -1.23, 1.55, 10.10
49.235289, 4.039140, 19.75, -1.32, 2.50, 11.68
49.235436, 4.038972, 20.20, -1.49, 2.58, 9.58
49.235436, 4.038972, 20.20, -1.06, 1.45, 9.37
49.235583, 4.038801, 20.63, -0.25, 1.37, 9.12
49.235583, 4.038801, 20.63, -1.40, 2.33, 9.80
49.235731, 4.038626, 21.09, -0.87, 1.92, 9.22
49.235731, 4.038626, 21.09, -1.58, 1.08, 9.86
49.235882, 4.038448, 21.42, -1.96, 1.05, 8.10
49.235882, 4.038448, 21.42, -2.42, 1.94, 9.71
49.236034, 4.038266, 21.83, -1.29, 0.22, 8.15
49.236034, 4.038266, 21.83, -2.29, 0.90, 9.45
49.236192, 4.038077, 22.17, -1.27, 2.11, 10.59
49.236192, 4.038077, 22.17, -2.56, 1.04, 7.33
49.236351, 4.037882, 22.53, -0.63, 1.16, 9.89
49.236351, 4.037882, 22.53, -1.38, 1.35, 9.26
49.236510, 4.037683, 22.74, -1.63, 0.78, 8.83
49.236510, 4.037683, 22.74, -0.72, 1.26, 10.08
49.236662, 4.037487, 22.95, -0.90, 2.39, 8.95
49.236662, 4.037487, 22.95, -0.52, 2.26, 10.02
49.236820, 4.037288, 23.21, -1.02, 1.90, 10.49
49.236820, 4.037288, 23.21, -1.73, 1.43, 8.10
49.236979, 4.037090, 23.29, -1.11, 2.07, 11.34
49.236979, 4.037090, 23.29, -1.26, 1.07, 8.19
49.237142, 4.036891, 23.50, -1.15, 0.47, 8.97
49.237142, 4.036891, 23.50, -1.35, 0.80, 9.32
49.237312, 4.036696, 23.65, -0.72, 1.64, 10.98
49.237312, 4.036696, 23.65, -0.48, 1.65, 10.35
49.237486, 4.036500, 23.90, -0.12, 0.85, 10.48
49.237661, 4.036305, 23.83, -0.60, 0.55, 9.05
49.237661, 4.036305, 23.83, -0.67, 1.37, 9.02
49.237836, 4.036114, 23.65, -0.97, 0.41, 8.97
49.237836, 4.036114, 23.65, -1.29, 1.63, 10.75
49.238009, 4.035925, 23.58, -1.67, 1.11, 9.89
49.238009, 4.035925, 23.58, -0.42, 0.80, 11.58
49.238183, 4.035738, 23.46, -1.40, 1.56, 9.11
49.238183, 4.035738, 23.46, -1.48, 1.69, 10.39
49.238355, 4.035555, 23.39, -2.45, 0.78, 9.54
49.238355, 4.035555, 23.39, -0.78, 1.22, 10.11
49.238528, 4.035373, 23.41, -1.36, 1.31, 10.87
49.238528, 4.035373, 23.41, -1.59, 0.85, 8.03
49.238700, 4.035182, 23.58, -0.30, 1.21, 8.25
49.238700, 4.035182, 23.58, -0.08, 1.90, 9.29
49.238873, 4.034990, 23.71, -1.46, 1.30, 11.44
49.238873, 4.034990, 23.71, -1.17, 2.40, 8.64
49.239047, 4.034802, 23.74, -1.97, 1.60, 10.87
49.239047, 4.034802, 23.74, -0.96, 1.21, 9.04
49.239223, 4.034616, 23.90, -1.33, 1.95, 10.58
49.239223, 4.034616, 23.90, -0.16, 1.99, 8.44
49.239404, 4.034435, 24.06, -0.47, 1.95, 9.21
49.239404, 4.034435, 24.06, -0.65, 0.90, 7.95
49.239589, 4.034255, 24.14, -1.77, 1.42, 9.93
49.239589, 4.034255, 24.14, -2.31, 1.50, 8.92
49.239771, 4.034076, 24.34, -1.68, 0.74, 8.87
49.239771, 4.034076, 24.34, -0.72, 1.29, 9.58
49.239963, 4.033906, 24.67, -1.55, 1.31, 8.00
49.239963, 4.033906, 24.67, -2.04, 1.51, 8.09
49.240152, 4.033732, 24.76, -1.81, 0.77, 10.52
49.240152, 4.033732, 24.76, -1.66, 0.82, 10.59
49.240343, 4.033557, 24.79, -1.19, 1.09, 11.57
49.240343, 4.033557, 24.79, -0.68, 1.86, 11.93
49.240535, 4.033380, 24.92, -0.04, 1.36, 9.38
49.240535, 4.033380, 24.92, -1.03, 1.63, 9.42
49.240728, 4.033206, 24.96, -0.02, 1.35, 10.18
49.240728, 4.033206, 24.96, -0.44, 1.88, 9.96
49.240925, 4.033033, 25.09, -2.39, 1.06, 9.85
49.240925, 4.033033, 25.09, -0.69, 1.84, 8.53
49.241120, 4.032854, 25.16, -1.57, 1.54, 9.07
49.241120, 4.032854, 25.16, -2.14, 0.96, 9.18
49.241319, 4.032680, 25.14, -1.52, 1.19, 11.10
49.241519, 4.032508, 25.16, -1.07, 1.21, 9.34
49.241519, 4.032508, 25.16, -0.48, 0.57, 10.70
49.241716, 4.032344, 25.21, -0.91, 1.31, 10.46
49.241716, 4.032344, 25.21, -1.27, 1.23, 9.40
49.241910, 4.032176, 25.05, -1.65, 0.81, 10.63
49.241910, 4.032176, 25.05, -1.44, 0.10, 8.92
49.242100, 4.032009, 24.97, -1.57, 0.98, 10.44
49.242100, 4.032009, 24.97, -1.42, 1.24, 9.97
49.242290, 4.031839, 24.85, -0.93, 1.51, 8.41
49.242290, 4.031839, 24.85, -1.05, 1.15, 9.34
49.242478, 4.031669, 24.70, -1.15, 1.11, 8.99
49.242478, 4.031669, 24.70, -0.90, 1.03, 11.16
49.242665, 4.031497, 24.57, -1.36, 0.27, 8.68
49.242665, 4.031497, 24.57, -1.55, 1.37, 10.33
49.242857, 4.031326, 24.58, -0.68, 0.53, 8.77
49.242857, 4.031326, 24.58, -0.80, 0.68, 9.15
49.243048, 4.031149, 24.58, -1.38, 1.07, 8.47
49.243048, 4.031149, 24.58, -1.63, 0.45, 10.96
49.243235, 4.030974, 24.55, -1.17, 1.22, 10.39
49.243235, 4.030974, 24.55, -1.81, 1.39, 7.60
49.243423, 4.030796, 24.56, -1.07, 0.67, 9.28
49.243423, 4.030796, 24.56, -1.32, 0.94, 9.77
49.243610, 4.030622, 24.56, -1.67, 1.20, 9.62
49.243610, 4.030622, 24.56, -0.83, 0.11, 9.66
49.243800, 4.030445, 24.52, -1.80, 1.16, 10.75
49.243800, 4.030445, 24.52, -1.80, 0.69, 8.24
49.243987, 4.030269, 24.51, -1.68, 1.37, 10.48
49.243987, 4.030269, 24.51, -0.55, 1.57, 10.53
49.244174, 4.030092, 24.48, -1.50, 1.67, 10.04
49.244174, 4.030092, 24.48, -1.60, 1.43, 10.08
49.244361, 4.029922, 24.51, -1.02, 0.74, 9.64
49.244361, 4.029922, 24.51, -1.17, 0.56, 10.14
49.244548, 4.029752, 24.45, -1.45, 1.42, 11.08
49.244548, 4.029752, 24.45, -1.11, 1.12, 9.53
49.244737, 4.029580, 24.43, -1.23, 0.92, 9.44
49.244737, 4.029580, 24.43, -0.50, 0.76, 10.41
49.244926, 4.029408, 24.35, -1.08, 0.90, 11.41
49.244926, 4.029408, 24.35, -0.37, 1.12, 9.48
49.245116, 4.029235, 24.45, -0.09, 1.34, 10.23
49.245306, 4.029059, 24.21, -0.82, 1.49, 10.11
49.245306, 4.029059, 24.21, -0.45, 1.28, 10.54
49.245496, 4.028880, 24.26, -0.48, 1.24, 10.56
49.245496, 4.028880, 24.26, -0.91, 1.32, 10.45
49.245680, 4.028701, 24.21, -1.01, 0.36, 9.79
49.245680, 4.028701, 24.21, -1.59, 0.93, 10.46
49.245859, 4.028514, 24.17, -0.92, 2.07, 9.53
49.245859, 4.028514, 24.17, -1.28, 1.12, 9.71
49.246036, 4.028322, 24.15, -1.81, 0.97, 9.41
49.246036, 4.028322, 24.15, -1.49, 1.77, 10.04
49.246210, 4.028127, 24.15, -1.42, 1.60, 8.00
49.246210, 4.028127, 24.15, -0.89, 1.38, 9.35
49.246382, 4.027927, 24.06, 0.87, 1.08, 9.52
49.246382, 4.027927, 24.06, -1.34, 1.28, 9.54
49.246553, 4.027727, 24.13, -0.84, 1.28, 11.34
49.246553, 4.027727, 24.13, -2.22, 1.02, 7.17
49.246725, 4.027522, 24.05, -1.53, 0.79, 9.16
49.246725, 4.027522, 24.05, -2.17, 0.68, 10.34
49.246897, 4.027315, 24.14, -1.23, 1.58, 10.32
49.246897, 4.027315, 24.14, -1.69, 1.55, 9.13
49.247064, 4.027104, 24.07, 0.13, 1.70, 8.96
49.247064, 4.027104, 24.07, -1.45, 0.85, 10.04
49.247231, 4.026891, 24.14, -0.69, 1.03, 9.77
49.247231, 4.026891, 24.14, -0.08, 1.55, 12.13
49.247397, 4.026674, 24.19, -0.14, 0.19, 10.15
49.247397, 4.026674, 24.19, -0.73, 1.76, 10.18
49.247561, 4.026452, 24.20, -1.17, 1.27, 9.78
49.247561, 4.026452, 24.20, 0.71, 1.13, 10.15
49.247729, 4.026238, 24.21, 0.35, 1.06, 9.10
49.247729, 4.026238, 24.21, -0.99, 1.37, 8.65
49.247892, 4.026020, 24.24, -0.81, 1.43, 9.23
49.247892, 4.026020, 24.24, -1.09, 1.19, 8.99
49.248050, 4.025794, 24.14, -0.38, 0.53, 9.28
49.248050, 4.025794, 24.14, -1.16, 1.15, 9.92
49.248211, 4.025573, 23.91, -0.02, 1.30, 11.10
49.248211, 4.025573, 23.91, -0.98, 0.97, 9.61
49.248379, 4.025347, 23.76, -0.57, 0.63, 10.46
49.248379, 4.025347, 23.76, -1.14, 1.25, 9.76
49.248542, 4.025125, 23.59, -2.00, 1.58, 9.15
49.248703, 4.024910, 23.44, -0.79, 1.38, 9.90
49.248703, 4.024910, 23.44, -0.58, 0.11, 9.44
49.248852, 4.024693, 23.18, -1.01, 1.67, 10.02
49.248852, 4.024693, 23.18, -1.15, 1.09, 9.37
49.249011, 4.024483, 22.91, -0.31, 1.51, 9.71
49.249011, 4.024483, 22.91, -0.68, 1.19, 9.98
49.249162, 4.024284, 22.38, -0.61, 0.08, 8.90
49.249162, 4.024284, 22.38, -3.00, 0.46, 9.28
49.249299, 4.024083, 22.07, -1.14, 0.61, 10.47
49.249299, 4.024083, 22.07, -1.01, 0.68, 9.68
49.249450, 4.023886, 21.78, -1.07, 0.57, 8.98
49.249450, 4.023886, 21.78, -0.89, 1.34, 8.72
49.249593, 4.023684, 21.82, -1.13, 1.36, 9.63
49.249593, 4.023684, 21.82, -0.52, 1.58, 10.78
49.249730, 4.023483, 21.93, -1.19, 2.16, 10.09
49.249730, 4.023483, 21.93, -0.97, 1.56, 9.15
49.249876, 4.023278, 22.02, -2.26, 1.96, 10.47
49.249876, 4.023278, 22.02, -0.89, 0.38, 9.59
49.250020, 4.023071, 22.22, -1.93, 1.34, 8.48
49.250020, 4.023071, 22.22, 0.03, 2.41, 11.81
49.250165, 4.022859, 22.37, -1.88, 1.84, 9.21
49.250165, 4.022859, 22.37, -0.23, 0.97, 10.11
49.250318, 4.022649, 22.61, -0.58, 1.95, 7.79
49.250318, 4.022649, 22.61, -1.06, 1.75, 9.60
49.250466, 4.022441, 22.75, -1.13, 1.43, 9.13
49.250466, 4.022441, 22.75, -0.53, 2.13, 9.56
49.250616, 4.022226, 23.20, 0.13, 1.13, 8.84
49.250616, 4.022226, 23.20, -1.15, 1.48, 10.30
49.250766, 4.022008, 23.11, -0.86, 1.69, 10.27
49.250766, 4.022008, 23.11, -0.25, 0.96, 9.75
49.250913, 4.021787, 22.93, -1.25, 1.53, 9.05
49.250913, 4.021787, 22.93, 0.59, 2.07, 8.07
49.251061, 4.021574, 23.07, -1.18, 0.90, 10.68
49.251061, 4.021574, 23.07, -0.51, 0.85, 9.86
49.251204, 4.021350, 22.97, -0.98, 0.84, 9.73
49.251204, 4.021350, 22.97, -1.58, 0.51, 10.77
49.251348, 4.021129, 22.42, -0.82, 1.51, 10.10
49.251348, 4.021129, 22.42, -0.39, 1.25, 11.74
49.251490, 4.020912, 22.04, -0.92, 0.89, 7.04
49.251490, 4.020912, 22.04, -1.51, -0.10, 10.57
49.251629, 4.020698, 21.77, -1.83, 0.76, 11.02
49.251629, 4.020698, 21.77, -2.18, 0.21, 10.52
49.251761, 4.020487, 20.97, -1.83, 0.86, 9.80
49.251881, 4.020266, 20.59, -2.33, 0.49, 9.45
49.251881, 4.020266, 20.59, -0.46, 1.09, 8.03
49.251994, 4.020043, 19.72, -1.15, 0.71, 9.22
49.251994, 4.020043, 19.72, -1.27, 0.73, 9.29
49.252094, 4.019817, 18.87, -1.16, 0.64, 10.10
49.252094, 4.019817, 18.87, -0.57, 0.39, 7.36
49.252186, 4.019599, 17.89, -0.19, 0.57, 10.08
49.252186, 4.019599, 17.89, 0.26, 0.42, 9.99
49.252268, 4.019392, 16.75, -0.30, 0.62, 10.56
49.252268, 4.019392, 16.75, -1.11, 0.76, 8.47
49.252342, 4.019210, 15.27, -0.34, 0.63, 9.29
49.252342, 4.019210, 15.27, -0.54, 0.60, 10.07
49.252409, 4.019036, 14.14, -0.34, 0.79, 10.02
49.252409, 4.019036, 14.14, -0.23, 1.58, 9.54
49.252478, 4.018878, 13.31, 0.83, 1.17, 9.16
49.252478, 4.018878, 13.31, 0.79, 2.06, 9.75
49.252553, 4.018746, 12.50, 1.50, 1.58, 11.50
49.252553, 4.018746, 12.50, 2.35, 1.74, 8.41
49.252642, 4.018662, 11.81, 1.14, 1.24, 9.63
49.252642, 4.018662, 11.81, 0.61, 2.03, 9.48
49.252740, 4.018609, 11.73, 0.36, 2.67, 10.41
49.252740, 4.018609, 11.73, 1.22, 2.94, 9.00
49.252852, 4.018591, 11.53, 1.12, 2.67, 9.38
49.252852, 4.018591, 11.53, 0.65, 1.19, 9.73
49.252950, 4.018614, 11.46, 0.45, 2.35, 9.49
49.252950, 4.018614, 11.46, 1.02, 1.36, 9.02
49.253046, 4.018659, 11.07, 0.90, 1.77, 8.94
49.253046, 4.018659, 11.07, 0.07, 2.38, 9.39
49.253133, 4.018724, 10.74, -0.42, 0.78, 8.15
49.253133, 4.018724, 10.74, -0.52, 0.26, 10.34
49.253215, 4.018796, 10.00, -0.58, 0.36, 9.56
49.253215, 4.018796, 10.00, -2.13, 0.31, 9.66
49.253289, 4.018863, 9.45, -0.70, 0.93, 10.07
49.253289, 4.018863, 9.45, -0.10, 0.30, 9.27
49.253360, 4.018924, 8.73, -0.65, 0.30, 9.63
49.253360, 4.018924, 8.73, -0.40, 0.58, 9.63
49.253426, 4.018973, 7.82, -0.54, 0.79, 9.55
49.253488, 4.019017, 7.19, -0.40, 0.77, 9.31
49.253488, 4.019017, 7.19, -0.83, 0.90, 10.03
49.253548, 4.019062, 6.74, -0.12, 0.09, 9.13
49.253548, 4.019062, 6.74, -0.23, 0.15, 9.79
49.253596, 4.019111, 5.84, -0.40, -0.09, 9.49
49.253596, 4.019111, 5.84, -0.78, -0.45, 10.16
49.253638, 4.019150, 4.67, -0.21, -0.89, 10.18
49.253638, 4.019150, 4.67, -0.37, -0.77, 9.65
49.253661, 4.019180, 2.99, -0.15, -0.83, 9.96
49.253661, 4.019180, 2.99, -0.34, -0.72, 10.19
49.253661, 4.019180, 0.00, -0.46, -0.28, 9.93
49.253661, 4.019180, 0.00, -0.72, 0.17, 9.90
49.253661, 4.019180, 0.00, -1.09, 0.92, 9.76
49.253661, 4.019180, 0.00, -0.98, 0.79, 9.78
49.253661, 4.019180, 0.00, -0.98, 0.86, 9.76
49.253661, 4.019180, 0.00, -1.02, 0.89, 9.78
49.253661, 4.019180, 0.00, -1.02, 0.84, 9.88
49.253661, 4.019180, 0.00, -1.06, 0.84, 9.73
49.253661, 4.019180, 0.00, -1.03, 0.79, 9.78
49.253661, 4.019180, 0.00, -1.02, 0.81, 9.81
49.253661, 4.019180, 0.00, -1.07, 0.82, 9.80
49.253661, 4.019180, 0.00, -1.04, 0.84, 9.72
49.253661, 4.019180, 0.00, -1.03, 0.86, 9.78
49.253661, 4.019180, 0.00, -0.98, 0.88, 9.84
49.253661, 4.019180, 0.00, -1.03, 0.80, 9.79
49.253661, 4.019180, 0.00, -1.03, 0.86, 9.81
49.253661, 4.019180, 0.00, -1.03, 0.82, 9.81
49.253661, 4.019180, 0.00, -1.05, 0.82, 9.79
49.253661, 4.019180, 0.00, -1.04, 0.84, 9.78
49.253661, 4.019180, 0.00, -1.03, 0.88, 9.76
49.253661, 4.019180, 0.00, -1.03, 0.82, 9.80
49.253661, 4.019180, 0.00, -1.06, 0.85, 9.84
49.253661, 4.019180, 0.00, -1.05, 0.82, 9.79
49.253661, 4.019180, 0.00, -1.02, 0.86, 9.80
49.253661, 4.019180, 0.00, -1.03, 0.83, 9.79
49.253661, 4.019180, 0.00, -0.99, 0.84, 9.81
49.253661, 4.019180, 0.00, -1.01, 0.82, 9.81
49.253661, 4.019180, 0.00, -1.02, 0.83, 9.81
49.253661, 4.019180, 0.00, -1.06, 0.81, 9.80
49.253661, 4.019180, 0.00, -1.04, 0.84, 9.76
49.253661, 4.019180, 0.00, -1.03, 0.84, 9.80
49.253661, 4.019180, 0.00, -1.03, 0.84, 9.78
49.253661, 4.019180, 0.00, -1.04, 0.83, 9.76
49.253661, 4.019180, 0.00, -1.03, 0.88, 9.79
49.253661, 4.019180, 0.00, -1.03, 0.82, 9.79
49.253661, 4.019180, 0.00, -1.02, 0.84, 9.81
49.253661, 4.019180, 0.00, -1.04, 0.87, 9.75
49.253661, 4.019180, 0.00, -1.05, 0.84, 9.82
49.253661, 4.019180, 0.00, -1.04, 0.82, 9.79
49.253661, 4.019180, 0.00, -1.41, 1.74, 9.73
49.253661, 4.019180, 0.00, -1.40, 1.55, 9.67
49.253661, 4.019180, 0.00, -1.07, 0.82, 9.84
49.253661, 4.019180, 0.00, -0.75, 0.29, 9.96
49.253661, 4.019180, 0.00, -0.60, 0.12, 9.80
49.253661, 4.019180, 0.00, -1.34, 1.32, 9.90
49.253661, 4.019180, 0.00, -1.01, 0.79, 9.96
49.253661, 4.019180, 0.00, -1.09, 0.85, 9.84
49.253661, 4.019180, 0.00, -1.06, 0.86, 9.85
49.253661, 4.019180, 0.00, -1.07, 0.86, 9.84
49.253661, 4.019180, 0.00, -0.98, 0.86, 9.83
49.253661, 4.019180, 0.00, -1.08, 0.87, 9.78
49.253661, 4.019180, 0.00, -1.06, 0.87, 9.80
49.253661, 4.019180, 0.00, -1.06, 0.82, 9.81
49.253661, 4.019180, 0.00, -1.07, 0.84, 9.80
49.253661, 4.019180, 0.00, -1.04, 0.84, 9.80
49.253661, 4.019180, 0.00, -1.08, 0.85, 9.80
49.253661, 4.019180, 0.00, -1.09, 0.82, 9.80
49.253661, 4.019180, 0.00, -1.04, 0.86, 9.77
49.253661, 4.019180, 0.00, -1.03, 0.81, 9.81
49.253661, 4.019180, 0.00, -1.09, 0.85, 9.77
49.253661, 4.019180, 0.00, -1.06, 0.82, 9.83
49.253661, 4.019180, 0.00, -1.08, 0.82, 9.77
49.253661, 4.019180, 0.00, -1.02, 0.83, 9.79
49.253661, 4.019180, 0.00, -1.04, 0.83, 9.79
49.253661, 4.019180, 0.00, -1.05, 0.84, 9.87
49.253661, 4.019180, 0.00, -1.06, 0.81, 9.79
49.253661, 4.019180, 0.00, -1.07, 0.84, 9.81
49.253661, 4.019180, 0.00, -1.09, 0.83, 9.78
49.253661, 4.019180, 0.00, -1.06, 0.84, 9.82
49.253661, 4.019180, 0.00, -1.05, 0.85, 9.81
49.253661, 4.019180, 0.00, -1.03, 0.79, 9.80
49.253661, 4.019180, 0.00, -1.04, 0.85, 9.80
49.253661, 4.019180, 0.00, -1.02, 0.79, 9.70
49.253661, 4.019180, 0.00, -1.07, 0.82, 9.81
49.253661, 4.019180, 0.00, -1.07, 0.83, 9.78
49.253661, 4.019180, 0.00, -1.06, 0.84, 9.80
49.253661, 4.019180, 0.00, -1.08, 0.83, 9.80
49.253661, 4.019180, 0.00, -1.07, 0.82, 9.79
49.253661, 4.019180, 0.00, -1.04, 0.88, 9.82
49.253661, 4.019180, 0.00, -1.05, 0.81, 9.78
49.253661, 4.019180, 0.00, -1.09, 0.87, 9.82
49.253661, 4.019180, 0.00, -1.05, 0.84, 9.77
49.253661, 4.019180, 0.00, -1.02, 0.84, 9.75
49.253661, 4.019180, 0.00, -1.03, 0.83, 9.74
49.253661, 4.019180, 0.00, -1.50, 1.65, 9.66
49.253661, 4.019180, 0.00, -1.50, 1.47, 9.50
49.253661, 4.019180, 0.00, -1.68, 2.07, 9.60
49.253661, 4.019180, 0.00, -1.69, 2.02, 9.25
49.253661, 4.019180, 0.00, -1.54, 1.92, 9.82
49.253661, 4.019180, 0.00, -1.41, 1.70, 9.54
49.253721, 4.019278, 2.69, -1.66, 1.81, 9.64
49.253721, 4.019278, 2.69, -1.45, 1.82, 9.47
49.253752, 4.019313, 3.78, -1.49, 1.50, 9.83
49.253752, 4.019313, 3.78, -0.89, 0.97, 9.49
49.253787, 4.019351, 4.44, -1.07, 0.71, 9.68
49.253787, 4.019351, 4.44, -0.98, 0.80, 9.71
49.253823, 4.019396, 4.60, -0.92, 0.68, 9.72
49.253823, 4.019396, 4.60, -0.77, 0.75, 9.66
49.253858, 4.019436, 4.69, -0.69, 0.58, 9.93
49.253858, 4.019436, 4.69, -0.86, 0.89, 10.33
49.253893, 4.019475, 4.68, -0.99, 0.87, 9.50
49.253893, 4.019475, 4.68, -0.81, 0.62, 10.22
49.253925, 4.019513, 4.69, -0.91, 0.45, 9.77
49.253925, 4.019513, 4.69, -0.77, 0.43, 9.58
49.253962, 4.019549, 4.68, -0.75, 0.60, 10.39
49.253962, 4.019549, 4.68, -0.91, 0.35, 10.06
49.254001, 4.019585, 4.31, -0.96, 0.54, 10.18
49.254001, 4.019585, 4.31, -1.06, 0.93, 9.91
49.254035, 4.019626, 4.25, -0.90, 0.70, 10.48
49.254059, 4.019662, 4.10, -0.85, 0.06, 9.59
49.254059, 4.019662, 4.10, -0.44, 0.63, 9.86
49.254083, 4.019692, 3.57, -0.76, 0.50, 9.96
49.254083, 4.019692, 3.57, -0.78, 0.57, 9.90
49.254105, 4.019718, 3.26, -0.99, 1.06, 9.34
49.254105, 4.019718, 3.26, -1.00, 0.94, 9.90
49.254129, 4.019739, 3.52, -0.93, 1.17, 9.75
49.254129, 4.019739, 3.52, -1.21, 0.76, 10.04
49.254160, 4.019765, 3.76, -0.56, 0.15, 10.46
49.254160, 4.019765, 3.76, -1.06, -0.22, 9.30
49.254190, 4.019792, 3.33, -0.74, -0.30, 9.90
49.254190, 4.019792, 3.33, -0.33, -0.69, 10.82
49.254190, 4.019792, 0.00, -0.58, -0.19, 10.11
49.254190, 4.019792, 0.00, -0.68, 0.04, 9.91
49.254190, 4.019792, 0.00, -0.94, 0.45, 9.74
49.254190, 4.019792, 0.00, -0.84, 0.51, 9.71
49.254190, 4.019792, 0.00, -0.84, 0.34, 9.82
49.254190, 4.019792, 0.00, -1.05, 0.82, 9.74
49.254190, 4.019792, 0.00, -1.06, 0.76, 9.71
49.254190, 4.019792, 0.00, -1.09, 0.88, 9.83
49.254190, 4.019792, 0.00, -1.12, 0.79, 9.78
49.254190, 4.019792, 0.00, -0.94, 0.82, 9.85
49.254190, 4.019792, 0.00, -1.06, 0.80, 9.80
49.254190, 4.019792, 0.00, -1.24, 0.71, 9.75
49.254190, 4.019792, 0.00, -1.09, 0.82, 9.78
49.254190, 4.019792, 0.00, -1.08, 0.76, 9.80
49.254190, 4.019792, 0.00, -1.13, 0.79, 9.74
49.254190, 4.019792, 0.00, -1.12, 0.83, 9.79
49.254190, 4.019792, 0.00, -1.10, 0.77, 9.78
49.254190, 4.019792, 0.00, -1.04, 0.79, 9.83
49.254190, 4.019792, 0.00, -1.12, 0.80, 9.73
49.254190, 4.019792, 0.00, -1.04, 0.77, 9.75
49.254190, 4.019792, 0.00, -1.13, 0.76, 9.73
49.254190, 4.019792, 0.00, -1.05, 0.80, 9.80
49.254190, 4.019792, 0.00, -1.13, 0.70, 9.75
49.254190, 4.019792, 0.00, -1.07, 0.77, 9.80
49.254190, 4.019792, 0.00, -1.09, 0.78, 9.78
49.254190, 4.019792, 0.00, -1.44, 1.44, 9.62
49.254190, 4.019792, 0.00, -1.52, 1.73, 9.71
49.254190, 4.019792, 0.00, -1.50, 1.36, 9.51
49.254190, 4.019792, 0.00, -1.34, 1.29, 9.63
49.254190, 4.019792, 0.00, -1.42, 1.24, 9.76
49.254190, 4.019792, 0.00, -1.22, 1.13, 10.09
49.254190, 4.019792, 0.00, -1.34, 1.08, 9.47
49.254190, 4.019792, 0.00, -1.28, 1.24, 9.73
49.254264, 4.019841, 0.00, -1.12, 0.59, 10.07
49.254264, 4.019841, 0.00, -0.48, 0.20, 10.21
49.254264, 4.019841, 0.00, -0.43, 0.23, 9.92
49.254264, 4.019841, 0.00, -0.85, 0.40, 10.02
49.254264, 4.019841, 0.00, -0.62, 0.67, 9.69
49.254264, 4.019841, 0.00, -0.99, 0.89, 9.57
49.254264, 4.019841, 0.00, -1.04, 1.11, 9.93
49.254264, 4.019841, 0.00, -1.01, 1.44, 9.55
49.254264, 4.019841, 0.00, -1.21, 1.45, 9.64
49.254264, 4.019841, 0.00, -0.78, 0.67, 9.65
49.254264, 4.019841, 0.00, -0.36, -0.10, 9.78
49.254264, 4.019841, 0.00, -0.61, -0.01, 10.07
49.254332, 4.019911, 0.00, -0.45, 0.12, 9.89
49.254332, 4.019911, 0.00, -0.53, 0.08, 10.11
49.254332, 4.019911, 0.00, -0.97, 1.02, 9.85
49.254332, 4.019911, 0.00, -0.91, 0.83, 9.87
49.254332, 4.019911, 0.00, -0.88, 0.79, 9.78
49.254332, 4.019911, 0.00, -0.91, 0.91, 9.83
49.254332, 4.019911, 0.00, -0.89, 0.90, 9.85
49.254332, 4.019911, 0.00, -0.90, 0.85, 9.81
49.254332, 4.019911, 0.00, -0.88, 0.89, 9.84
49.254332, 4.019911, 0.00, -0.89, 0.91, 9.80
49.254332, 4.019911, 0.00, -0.87, 0.83, 9.79
49.254332, 4.019911, 0.00, -0.90, 0.89, 9.83
49.254332, 4.019911, 0.00, -0.88, 0.88, 9.76
49.254332, 4.019911, 0.00, -0.93, 0.91, 9.80
49.254332, 4.019911, 0.00, -1.02, 0.86, 9.75
49.254332, 4.019911, 0.00, -0.90, 0.93, 9.82
49.254332, 4.019911, 0.00, -0.95, 0.89, 9.78
49.254332, 4.019911, 0.00, -0.87, 0.92, 9.82
49.254332, 4.019911, 0.00, -0.83, 0.86, 9.77
49.254332, 4.019911, 0.00, -0.90, 0.85, 9.77
49.254332, 4.019911, 0.00, -0.90, 0.86, 9.78
49.254332, 4.019911, 0.00, -0.87, 0.86, 9.82
49.254332, 4.019911, 0.00, -0.90, 0.87, 9.79
49.254332, 4.019911, 0.00, -0.89, 0.94, 9.82
49.254332, 4.019911, 0.00, -0.90, 0.91, 9.80
49.254332, 4.019911, 0.00, -0.85, 0.87, 9.79
49.254332, 4.019911, 0.00, -0.90, 0.84, 9.79
49.254332, 4.019911, 0.00, -0.89, 0.89, 9.74
49.254332, 4.019911, 0.00, -0.89, 0.94, 9.81
49.254332, 4.019911, 0.00, -0.85, 0.98, 9.83
49.254332, 4.019911, 0.00, -0.92, 0.89, 9.78
49.254332, 4.019911, 0.00, -0.79, 0.77, 9.77
49.254332, 4.019911, 0.00, -0.88, 0.91, 9.81
49.254332, 4.019911, 0.00, -0.94, 0.84, 9.75
49.254332, 4.019911, 0.00, -0.85, 0.89, 9.79
49.254332, 4.019911, 0.00, -0.88, 0.87, 9.84
49.254332, 4.019911, 0.00, -0.90, 0.90, 9.84
49.254332, 4.019911, 0.00, -0.84, 0.88, 9.83
49.254332, 4.019911, 0.00, -0.95, 1.02, 9.88
49.254332, 4.019911, 0.00, -0.89, 0.90, 9.78
49.254332, 4.019911, 0.00, -0.93, 0.93, 9.81
49.254332, 4.019911, 0.00, -0.89, 0.88, 9.80
49.254332, 4.019911, 0.00, -0.79, 0.89, 9.80
49.254332, 4.019911, 0.00, -0.90, 0.85, 9.76
49.254332, 4.019911, 0.00, -0.91, 0.90, 9.79
49.254332, 4.019911, 0.00, -0.87, 0.91, 9.76
49.254332, 4.019911, 0.00, -0.85, 1.05, 9.87
49.254332, 4.019911, 0.00, -1.19, 1.58, 9.64
49.254332, 4.019911, 0.00, -1.24, 1.63, 9.58
49.254332, 4.019911, 0.00, -1.24, 1.52, 10.07
49.254332, 4.019911, 0.00, -0.87, 0.84, 10.16
49.254332, 4.019911, 0.00, -0.53, 0.20, 9.85
49.254332, 4.019911, 0.00, -0.52, -0.02, 9.92
49.254332, 4.019911, 0.00, -0.88, 1.09, 9.64
49.254332, 4.019911, 0.00, -0.82, 0.80, 9.87
49.254332, 4.019911, 0.00, -0.91, 0.85, 9.83
49.254332, 4.019911, 0.00, -0.82, 0.93, 9.82
49.254332, 4.019911, 0.00, -0.84, 0.97, 9.77
49.254332, 4.019911, 0.00, -0.86, 0.84, 9.79
49.254332, 4.019911, 0.00, -0.85, 0.89, 9.83
49.254332, 4.019911, 0.00, -0.83, 0.91, 9.83
49.254332, 4.019911, 0.00, -0.90, 0.88, 9.73
49.254332, 4.019911, 0.00, -1.45, 1.68, 9.69
49.254332, 4.019911, 0.00, -1.28, 1.68, 9.60
49.254332, 4.019911, 0.00, -1.04, 1.56, 9.89
49.254332, 4.019911, 0.00, -1.13, 1.50, 9.48
49.254365, 4.019939, 1.44, -0.79, 1.29, 9.99
49.254365, 4.019939, 1.44, -1.41, 1.69, 9.50
49.254380, 4.019959, 2.32, -1.12, 1.88, 9.42
49.254380, 4.019959, 2.32, -1.08, 1.72, 9.77
49.254403, 4.019985, 3.05, -1.26, 1.60, 10.01
49.254403, 4.019985, 3.05, -1.29, 1.52, 9.42
49.254430, 4.020017, 3.79, -1.18, 1.81, 9.88
49.254430, 4.020017, 3.79, -1.02, 1.25, 9.42
49.254461, 4.020053, 4.11, -0.99, 0.84, 9.83
49.254461, 4.020053, 4.11, -1.07, 1.36, 9.81
49.254493, 4.020087, 4.36, -1.24, 1.48, 10.15
49.254493, 4.020087, 4.36, -0.94, 1.22, 9.44
49.254528, 4.020124, 4.70, -0.89, 0.94, 9.14
49.254528, 4.020124, 4.70, -0.88, 0.90, 9.85
49.254563, 4.020162, 4.79, -0.51, 1.23, 9.65
49.254563, 4.020162, 4.79, -0.95, 1.50, 10.31
49.254600, 4.020201, 4.74, -1.08, 1.34, 9.89
49.254600, 4.020201, 4.74, -1.11, 1.21, 9.31
49.254635, 4.020240, 4.80, -1.30, 1.55, 9.99
49.254635, 4.020240, 4.80, -1.27, 1.51, 9.92
49.254670, 4.020280, 5.03, -1.10, 1.61, 10.54
49.254670, 4.020280, 5.03, -1.22, 1.55, 9.47
49.254706, 4.020324, 4.80, -1.25, 1.26, 9.92
49.254706, 4.020324, 4.80, -1.78, 0.93, 9.67
49.254741, 4.020365, 4.71, -0.95, 0.89, 10.52
49.254741, 4.020365, 4.71, -1.11, 0.58, 9.67
49.254779, 4.020402, 4.86, -0.82, 0.99, 9.88
49.254779, 4.020402, 4.86, -0.46, 0.96, 9.39
49.254815, 4.020441, 4.80, -0.76, 0.68, 9.28
49.254815, 4.020441, 4.80, -0.87, 0.68, 10.19
49.254852, 4.020473, 4.27, -0.45, 1.00, 9.87
49.254852, 4.020473, 4.27, -0.81, 0.94, 9.30
49.254887, 4.020503, 4.01, -0.45, 0.86, 9.67
49.254887, 4.020503, 4.01, -0.74, 1.34, 10.55
49.254917, 4.020532, 3.64, -0.91, 0.94, 9.93
49.254917, 4.020532, 3.64, -0.72, 1.04, 9.25
49.254943, 4.020555, 3.59, -0.29, 0.87, 9.36
49.254943, 4.020555, 3.59, -0.46, 0.54, 9.84
49.254967, 4.020576, 2.97, -0.60, 0.86, 9.20
49.254986, 4.020597, 2.28, -0.62, 0.84, 9.65
49.254986, 4.020597, 2.28, -0.46, 0.74, 9.77
49.255004, 4.020614, 1.64, -0.40, 0.69, 9.51
49.255004, 4.020614, 1.64, -0.52, 1.12, 9.62
49.255013, 4.020628, 0.99, -0.54, 1.09, 9.92
49.255013, 4.020628, 0.99, -0.56, 0.82, 10.00
49.255017, 4.020636, 0.95, -0.63, 0.80, 9.81
49.255017, 4.020636, 0.95, -0.49, 0.82, 9.72
49.255017, 4.020636, 0.00, -0.82, 1.41, 9.80
49.255017, 4.020636, 0.00, -0.79, 1.48, 9.73
49.255017, 4.020636, 0.00, -0.83, 1.47, 9.70
49.255017, 4.020636, 0.00, -0.78, 1.47, 9.74
49.255017, 4.020636, 0.00, -0.81, 1.40, 9.72
49.255017, 4.020636, 0.00, -0.79, 1.44, 9.76
49.255017, 4.020636, 0.00, -0.81, 1.46, 9.70
49.255017, 4.020636, 0.00, -0.79, 1.45, 9.74
49.255017, 4.020636, 0.00, -0.80, 1.46, 9.73
49.255017, 4.020636, 0.00, -0.78, 1.44, 9.74
49.255017, 4.020636, 0.00, -0.83, 1.46, 9.72
49.255017, 4.020636, 0.00, -0.79, 1.45, 9.73
49.255017, 4.020636, 0.00, -0.82, 1.45, 9.75
49.255017, 4.020636, 0.00, -0.80, 1.43, 9.70
49.255017, 4.020636, 0.00, -0.82, 1.46, 9.76
49.255017, 4.020636, 0.00, -0.79, 1.41, 9.70
49.255017, 4.020636, 0.00, -0.83, 1.44, 9.69
49.255017, 4.020636, 0.00, -0.83, 1.43, 9.72
49.255017, 4.020636, 0.00, -0.77, 1.47, 9.72
49.255017, 4.020636, 0.00, -0.81, 1.43, 9.73
49.255017, 4.020636, 0.00, -0.80, 1.47, 9.77
49.255017, 4.020636, 0.00, -0.79, 1.45, 9.73
49.255017, 4.020636, 0.00, -0.81, 1.47, 9.76
49.255017, 4.020636, 0.00, -0.80, 1.47, 9.75
49.255017, 4.020636, 0.00, -0.80, 1.45, 9.76
49.255017, 4.020636, 0.00, -0.80, 1.44, 9.74
49.255017, 4.020636, 0.00, -0.79, 1.47, 9.76
49.255017, 4.020636, 0.00, -0.79, 1.44, 9.73
49.255017, 4.020636, 0.00, -0.80, 1.45, 9.77
49.255017, 4.020636, 0.00, -0.80, 1.44, 9.72
49.255017, 4.020636, 0.00, -0.84, 1.42, 9.70
49.255017, 4.020636, 0.00, -0.83, 1.45, 9.70
49.255017, 4.020636, 0.00, -0.82, 1.44, 9.73
49.255017, 4.020636, 0.00, -0.81, 1.46, 9.76
49.255017, 4.020636, 0.00, -0.81, 1.43, 9.74
49.255017, 4.020636, 0.00, -0.77, 1.46, 9.73
49.255017, 4.020636, 0.00, -0.81, 1.45, 9.74
49.255017, 4.020636, 0.00, -0.81, 1.44, 9.73
49.255017, 4.020636, 0.00, -0.80, 1.43, 9.64
49.255017, 4.020636, 0.00, -0.80, 1.44, 9.71
49.255017, 4.020636, 0.00, -0.80, 1.41, 9.76
49.255017, 4.020636, 0.00, -0.80, 1.43, 9.74
49.255017, 4.020636, 0.00, -0.80, 1.47, 9.74
49.255017, 4.020636, 0.00, -0.85, 1.43, 9.73
49.255017, 4.020636, 0.00, -0.82, 1.45, 9.73
49.255017, 4.020636, 0.00, -0.77, 1.42, 9.72
49.255017, 4.020636, 0.00, -0.83, 1.42, 9.72
49.255017, 4.020636, 0.00, -0.67, 1.41, 9.74
49.255017, 4.020636, 0.00, -0.80, 1.44, 9.73
49.255017, 4.020636, 0.00, -0.85, 1.47, 9.73
49.255017, 4.020636, 0.00, -0.87, 1.46, 9.73
49.255017, 4.020636, 0.00, -0.87, 1.42, 9.75
49.255017, 4.020636, 0.00, -0.81, 1.45, 9.75
49.255017, 4.020636, 0.00, -0.85, 1.44, 9.72
49.255017, 4.020636, 0.00, -0.87, 1.47, 9.68
49.255017, 4.020636, 0.00, -0.79, 1.41, 9.76
49.255017, 4.020636, 0.00, -0.86, 1.42, 9.70
49.255017, 4.020636, 0.00, -0.81, 1.44, 9.74
49.255017, 4.020636, 0.00, -0.80, 1.43, 9.73
49.255017, 4.020636, 0.00, -0.82, 1.47, 9.72
49.255017, 4.020636, 0.00, -0.79, 1.35, 9.69
49.255017, 4.020636, 0.00, -0.88, 1.32, 9.72
49.255017, 4.020636, 0.00, -0.80, 1.48, 9.77
49.255017, 4.020636, 0.00, -0.72, 1.53, 9.76
49.255017, 4.020636, 0.00, -0.83, 1.47, 9.73
49.255017, 4.020636, 0.00, -0.87, 1.47, 9.73
49.255017, 4.020636, 0.00, -0.80, 1.42, 9.73
49.255017, 4.020636, 0.00, -0.77, 1.44, 9.72
49.255017, 4.020636, 0.00, -0.82, 1.40, 9.70
49.255017, 4.020636, 0.00, -0.86, 1.45, 9.74
49.255017, 4.020636, 0.00, -0.80, 1.43, 9.73
49.255017, 4.020636, 0.00, -0.79, 1.38, 9.72
49.255017, 4.020636, 0.00, -0.77, 1.42, 9.71
49.255017, 4.020636, 0.00, -0.83, 1.41, 9.75
49.255017, 4.020636, 0.00, -0.77, 1.45, 9.73
49.255017, 4.020636, 0.00, -0.83, 1.44, 9.69
49.255017, 4.020636, 0.00, -0.82, 1.49, 9.76
49.255017, 4.020636, 0.00, -0.84, 1.40, 9.73
49.255017, 4.020636, 0.00, -0.81, 1.47, 9.77
49.255017, 4.020636, 0.00, -0.86, 1.48, 9.71
49.255017, 4.020636, 0.00, -0.82, 1.41, 9.72
49.255017, 4.020636, 0.00, -0.86, 1.48, 9.73
49.255017, 4.020636, 0.00, -0.89, 1.45, 9.76
49.255017, 4.020636, 0.00, -0.85, 1.46, 9.71
49.255017, 4.020636, 0.00, -0.85, 1.41, 9.71
49.255017, 4.020636, 0.00, -0.79, 1.49, 9.75
49.255017, 4.020636, 0.00, -0.80, 1.49, 9.73
49.255017, 4.020636, 0.00, -0.74, 1.41, 9.69
49.255017, 4.020636, 0.00, -0.91, 1.46, 9.70
49.255017, 4.020636, 0.00, -0.83, 1.44, 9.81
49.255017, 4.020636, 0.00, -0.82, 1.44, 9.73
49.255017, 4.020636, 0.00, -1.11, 1.93, 9.66
49.255017, 4.020636, 0.00, -1.12, 2.15, 9.75
49.255017, 4.020636, 0.00, -1.21, 2.42, 9.60
49.255017, 4.020636, 0.00, -1.20, 2.23, 9.55
49.255017, 4.020636, 0.00, -1.11, 2.20, 9.73
49.255039, 4.020663, 1.65, -1.13, 2.24, 9.54
49.255039, 4.020663, 1.65, -1.18, 2.31, 9.39
49.255062, 4.020682, 2.68, -1.24, 2.30, 8.88
49.255062, 4.020682, 2.68, -1.06, 2.18, 9.27
49.255088, 4.020708, 3.47, -0.83, 1.50, 9.86
49.255088, 4.020708, 3.47, -0.23, 1.29, 9.28
49.255116, 4.020739, 3.72, -0.39, 1.40, 10.13
49.255116, 4.020739, 3.72, -0.49, 1.22, 9.86
49.255143, 4.020770, 3.70, -0.82, 1.14, 9.69
49.255143, 4.020770, 3.70, -0.57, 1.12, 9.41
49.255167, 4.020800, 3.25, -1.01, 1.31, 10.07
49.255167, 4.020800, 3.25, -1.18, 2.49, 9.27
49.255190, 4.020829, 3.22, -1.29, 2.22, 9.63
49.255190, 4.020829, 3.22, -1.50, 2.27, 9.33
49.255216, 4.020862, 4.21, -0.23, 2.58, 9.53
49.255216, 4.020862, 4.21, -1.25, 2.35, 10.34
49.255248, 4.020902, 4.93, -1.58, 1.92, 9.05
49.255248, 4.020902, 4.93, -1.76, 1.40, 9.27
49.255289, 4.020950, 5.73, -3.51, 0.34, 8.14
49.255289, 4.020950, 5.73, -2.28, 0.51, 10.50
49.255333, 4.020993, 6.03, -2.82, 0.10, 8.77
49.255381, 4.021021, 5.90, -3.13, 0.30, 9.97
49.255381, 4.021021, 5.90, -2.67, -0.36, 9.21
49.255433, 4.021019, 5.96, -2.71, 0.87, 9.39
49.255433, 4.021019, 5.96, -2.31, 0.05, 8.42
49.255487, 4.020980, 6.63, -2.30, 0.97, 10.11
49.255487, 4.020980, 6.63, -1.50, 1.38, 9.33
49.255542, 4.020913, 7.27, -0.93, 1.67, 9.37
49.255542, 4.020913, 7.27, -1.02, 2.11, 9.61
49.255607, 4.020839, 8.12, -0.58, 2.47, 9.01
49.255607, 4.020839, 8.12, -0.32, 2.30, 7.76
49.255671, 4.020763, 8.28, -1.94, 1.66, 10.72
49.255671, 4.020763, 8.28, -2.52, 0.37, 8.96
49.255740, 4.020686, 9.06, -1.62, 1.53, 9.93
49.255740, 4.020686, 9.06, -1.61, 1.01, 9.23
49.255808, 4.020613, 8.54, -1.67, 1.26, 9.92
49.255808, 4.020613, 8.54, -1.41, 1.55, 9.40
49.255876, 4.020544, 9.04, -1.58, 1.13, 10.35
49.255876, 4.020544, 9.04, -0.76, 1.92, 10.03
49.255948, 4.020473, 9.43, -1.05, 1.24, 10.04
49.255948, 4.020473, 9.43, -1.41, 2.21, 9.60
49.256019, 4.020404, 8.88, -2.23, 0.20, 8.77
49.256019, 4.020404, 8.88, -1.26, 0.30, 10.04
49.256089, 4.020339, 8.98, -1.45, 0.62, 9.58
49.256089, 4.020339, 8.98, -1.02, 0.84, 9.38
49.256154, 4.020284, 9.07, -1.38, 1.33, 9.33
49.256154, 4.020284, 9.07, -0.61, 0.80, 8.74
49.256154, 4.020284, 9.07, -1.35, 0.25, 9.33
49.256154, 4.020284, 9.07, -1.21, 0.09, 10.03
49.256154, 4.020284, 9.07, -1.61, 0.81, 10.81
49.256154, 4.020284, 9.07, -1.23, 0.01, 10.13
49.256353, 4.020110, 7.48, -1.13, 0.36, 9.74
49.256353, 4.020110, 7.48, -0.48, 0.17, 9.42
49.256409, 4.020070, 6.75, 0.34, 1.27, 10.97
49.256409, 4.020070, 6.75, 0.86, 1.06, 10.30
49.256459, 4.020040, 5.56, 1.70, 1.61, 9.59
49.256459, 4.020040, 5.56, 1.56, 2.22, 7.66
49.256498, 4.020026, 4.25, 0.57, 2.18, 9.09
49.256498, 4.020026, 4.25, -0.08, 2.55, 10.23
49.256527, 4.020025, 2.59, 0.27, 2.35, 9.88
49.256527, 4.020025, 2.59, -0.70, 2.70, 8.71
49.256551, 4.020033, 2.10, 0.36, 2.37, 10.91
49.256594, 4.020060, 2.08, 1.23, 1.59, 10.02
49.256594, 4.020060, 2.08, -0.26, 2.13, 10.60
49.256627, 4.020102, 2.17, -0.76, 1.12, 7.77
49.256627, 4.020102, 2.17, -0.32, 0.73, 9.34
49.256670, 4.020166, 4.39, -1.44, 1.11, 10.12
49.256670, 4.020166, 4.39, 0.73, 1.91, 10.63
49.256704, 4.020254, 5.20, -0.71, 1.53, 9.76
49.256704, 4.020254, 5.20, 0.24, 0.74, 9.90
49.256730, 4.020343, 4.98, -2.31, 2.17, 15.52
49.256730, 4.020343, 4.98, -0.87, 1.65, 11.35
49.256760, 4.020432, 4.72, -0.85, 1.87, 9.70
49.256760, 4.020432, 4.72, -0.65, 2.13, 10.38
49.256783, 4.020519, 5.49, -0.57, 1.82, 9.27
49.256783, 4.020519, 5.49, -0.76, 1.79, 10.54
49.256810, 4.020604, 6.13, -0.96, 2.15, 9.74
49.256810, 4.020604, 6.13, -1.51, 2.20, 10.73
49.256840, 4.020696, 6.65, -1.58, 1.38, 8.92
49.256840, 4.020696, 6.65, -2.02, 1.68, 10.72
49.256872, 4.020787, 7.02, -1.01, 2.01, 11.82
49.256872, 4.020787, 7.02, -2.63, 1.73, 9.10
49.256908, 4.020875, 6.87, -0.04, 1.43, 11.53
49.256908, 4.020875, 6.87, -1.36, 0.13, 11.15
49.256950, 4.020954, 6.76, -1.77, 0.68, 9.28
49.256950, 4.020954, 6.76, -0.71, 0.73, 8.42
49.256991, 4.021026, 6.19, -0.68, 0.61, 10.58
49.256991, 4.021026, 6.19, -0.87, 0.23, 9.35
49.257028, 4.021084, 5.25, -0.71, 0.79, 10.51
49.257028, 4.021084, 5.25, -2.13, 2.74, 6.03
49.257063, 4.021132, 4.91, -0.87, 0.49, 12.57
49.257063, 4.021132, 4.91, -0.70, 1.70, 8.11
49.257094, 4.021188, 4.65, -1.31, 0.70, 10.03
49.257094, 4.021188, 4.65, -1.59, 1.73, 11.02
49.257126, 4.021243, 4.68, -0.95, 1.99, 9.93
49.257126, 4.021243, 4.68, -0.11, 1.87, 10.46
49.257158, 4.021295, 5.11, -0.58, 1.79, 9.40
49.257158, 4.021295, 5.11, -0.64, 1.25, 10.08
49.257190, 4.021345, 4.86, -0.94, 1.15, 10.21
49.257190, 4.021345, 4.86, -1.16, 1.35, 9.96
49.257223, 4.021396, 4.27, -0.51, 1.38, 10.10
49.257223, 4.021396, 4.27, -0.72, 0.34, 9.83
49.257252, 4.021442, 3.88, -1.01, 1.09, 10.38
49.257276, 4.021488, 3.64, -0.35, 0.60, 10.02
49.257276, 4.021488, 3.64, -0.77, 1.18, 10.29
49.257299, 4.021529, 3.65, -0.71, 1.35, 9.91
49.257299, 4.021529, 3.65, -0.71, 0.70, 9.83
49.257323, 4.021564, 3.08, -0.40, 0.72, 9.23
49.257323, 4.021564, 3.08, -0.91, 0.39, 10.00
49.257343, 4.021591, 2.04, -0.90, 0.30, 10.22
49.257343, 4.021591, 2.04, -0.67, 0.63, 9.63
49.257355, 4.021615, 1.14, -0.56, 0.67, 9.59
49.257355, 4.021615, 1.14, -0.76, 1.11, 9.99
49.257355, 4.021615, 0.00, -0.83, 1.21, 9.71
49.257355, 4.021615, 0.00, -0.88, 1.53, 9.67
49.257355, 4.021615, 0.00, -0.98, 1.41, 9.73
49.257355, 4.021615, 0.00, -0.78, 1.37, 9.60
49.257355, 4.021615, 0.00, -0.73, 1.37, 9.73
49.257355, 4.021615, 0.00, -0.63, 1.37, 9.82
49.257355, 4.021615, 0.00, -0.82, 1.56, 9.71
49.257355, 4.021615, 0.00, -1.14, 1.89, 9.73
49.257355, 4.021615, 0.00, -1.24, 2.40, 9.47
49.257355, 4.021615, 0.00, -1.39, 2.64, 9.49
49.257355, 4.021615, 0.00, -1.34, 2.61, 9.07
49.257355, 4.021615, 0.00, -1.57, 2.52, 9.29
49.257382, 4.021642, 1.68, -1.74, 2.22, 9.97
49.257382, 4.021642, 1.68, -0.66, 2.87, 10.16
49.257400, 4.021666, 2.75, -1.32, 2.24, 8.81
49.257400, 4.021666, 2.75, 0.13, 2.74, 9.72
49.257422, 4.021699, 3.25, -0.68, 2.43, 9.36
49.257422, 4.021699, 3.25, -1.27, 3.48, 11.07
49.257453, 4.021736, 4.01, -2.22, 2.24, 10.11
49.257453, 4.021736, 4.01, -0.13, 3.09, 9.48
49.257491, 4.021777, 4.98, -1.22, 2.10, 9.41
49.257491, 4.021777, 4.98, -2.17, 2.83, 11.03
49.257531, 4.021822, 5.35, -2.28, 2.14, 7.47
49.257531, 4.021822, 5.35, -2.41, 1.08, 9.91
49.257576, 4.021878, 6.24, -3.26, 0.66, 9.73
49.257576, 4.021878, 6.24, -3.39, 0.39, 9.91
49.257622, 4.021935, 6.12, -3.55, 0.52, 9.67
49.257622, 4.021935, 6.12, -3.52, 0.92, 9.51
49.257669, 4.021984, 5.85, -2.44, 1.28, 9.06
49.257735, 4.021969, 6.59, -2.08, 1.84, 9.56
49.257735, 4.021969, 6.59, -1.46, 1.85, 9.18
49.257802, 4.021918, 7.54, 0.48, 1.58, 10.72
49.257802, 4.021918, 7.54, -0.23, 2.94, 9.86
49.257876, 4.021879, 8.11, 0.28, 2.83, 9.70
49.257876, 4.021879, 8.11, 0.23, 2.17, 10.02
49.257969, 4.021868, 9.96, -2.74, 2.06, 9.92
49.257969, 4.021868, 9.96, -1.22, 1.50, 10.97
49.258067, 4.021880, 9.62, 0.22, 1.80, 11.80
49.258067, 4.021880, 9.62, -1.23, 1.53, 9.84
49.258166, 4.021903, 9.60, -1.39, 1.80, 9.07
49.258166, 4.021903, 9.60, -0.99, 2.34, 9.66
49.258260, 4.021922, 9.44, -2.48, 0.84, 8.05
49.258260, 4.021922, 9.44, -1.10, 1.70, 8.92
49.258353, 4.021944, 10.05, -0.91, 2.31, 8.10
49.258353, 4.021944, 10.05, -0.95, 1.99, 10.67
49.258445, 4.021961, 10.02, -1.50, 1.79, 8.26
49.258445, 4.021961, 10.02, -1.29, 1.69, 9.91
49.258536, 4.021979, 10.21, -1.35, 1.76, 8.11
49.258536, 4.021979, 10.21, -1.96, 1.07, 7.60
49.258629, 4.021996, 10.30, -0.87, 2.82, 10.33
49.258629, 4.021996, 10.30, 0.79, 0.64, 10.60
49.258721, 4.022015, 9.91, -0.37, 0.22, 8.75
49.258721, 4.022015, 9.91, -0.18, 1.95, 10.26
49.258808, 4.022029, 9.14, -1.29, 2.22, 9.96
49.258808, 4.022029, 9.14, -0.81, 1.91, 10.82
49.258889, 4.022047, 9.02, 0.84, 2.02, 9.10
49.258889, 4.022047, 9.02, -0.63, 2.13, 9.62
49.258968, 4.022065, 8.61, -0.36, 1.55, 9.17
49.258968, 4.022065, 8.61, -0.85, 1.72, 9.37
49.259043, 4.022099, 9.09, -0.45, 1.70, 10.46
49.259043, 4.022099, 9.09, -0.45, 1.99, 9.24
49.259132, 4.022129, 8.67, -0.93, 1.81, 10.11
49.259132, 4.022129, 8.67, -1.09, 1.24, 9.44
49.259215, 4.022171, 8.80, -0.32, 0.95, 9.54
49.259215, 4.022171, 8.80, -0.73, 1.50, 8.80
49.259294, 4.022209, 8.54, -0.87, 1.33, 9.59
49.259294, 4.022209, 8.54, -0.53, -0.03, 9.69
49.259363, 4.022261, 8.53, -0.48, 0.49, 10.15
49.259363, 4.022261, 8.53, -1.02, 1.29, 9.90
49.259425, 4.022314, 8.14, -1.17, 1.43, 9.38
49.259482, 4.022375, 7.49, -1.04, 1.13, 10.26
49.259482, 4.022375, 7.49, -1.38, 1.41, 10.33
49.259531, 4.022444, 7.17, -0.53, 1.44, 9.73
49.259531, 4.022444, 7.17, -0.61, 1.42, 9.39
49.259579, 4.022513, 7.00, -0.73, 1.44, 9.70
49.259579, 4.022513, 7.00, -0.55, 0.79, 10.07
49.259630, 4.022575, 6.93, -0.82, 0.43, 9.29
49.259630, 4.022575, 6.93, -1.34, 0.55, 9.20
49.259674, 4.022628, 6.10, -2.28, 0.24, 9.77
49.259674, 4.022628, 6.10, -2.45, 0.01, 9.28
49.259716, 4.022678, 5.59, -2.03, 0.20, 9.96
49.259716, 4.022678, 5.59, -2.58, 0.17, 9.35
49.259755, 4.022718, 4.97, -2.78, 0.15, 9.96
49.259755, 4.022718, 4.97, -2.83, 0.51, 9.89
49.259800, 4.022741, 4.94, -2.96, 0.34, 9.18
49.259800, 4.022741, 4.94, -1.79, 1.13, 9.46
49.259850, 4.022726, 5.67, -0.95, 1.58, 9.70
49.259850, 4.022726, 5.67, -0.78, 1.36, 9.20
49.259896, 4.022690, 5.44, -0.24, 1.12, 9.41
49.259896, 4.022690, 5.44, -0.28, 0.97, 10.07
49.259947, 4.022657, 5.81, -0.32, 1.06, 10.46
49.259947, 4.022657, 5.81, -0.80, 0.70, 9.32
49.259997, 4.022633, 5.45, -0.80, 0.91, 10.22
49.259997, 4.022633, 5.45, -0.99, 0.85, 9.80
49.260044, 4.022618, 4.95, -1.48, 0.57, 9.35
49.260044, 4.022618, 4.95, -1.22, 0.67, 9.40
49.260087, 4.022605, 4.71, -1.44, 0.61, 9.36
49.260087, 4.022605, 4.71, -1.20, 0.78, 9.20
49.260125, 4.022590, 4.31, -1.48, 0.79, 10.16
49.260125, 4.022590, 4.31, -1.02, 0.25, 9.75
49.260158, 4.022574, 3.46, -0.92, 0.15, 9.77
49.260158, 4.022574, 3.46, -0.82, 0.34, 9.27
49.260186, 4.022556, 2.90, -0.89, 0.21, 9.85
49.260186, 4.022556, 2.90, -0.95, 0.26, 9.89
49.260207, 4.022543, 1.63, -0.67, -0.04, 10.31
49.260207, 4.022543, 1.63, -0.68, 0.17, 10.19
49.260207, 4.022543, 0.00, -0.97, 0.49, 9.81
49.260207, 4.022543, 0.00, -1.03, 0.79, 9.84
49.260207, 4.022543, 0.00, -0.99, 0.88, 9.84
49.260207, 4.022543, 0.00, -1.13, 0.86, 9.65
49.260207, 4.022543, 0.00, -1.16, 1.13, 9.73
49.260207, 4.022543, 0.00, -1.18, 1.03, 9.73
49.260207, 4.022543, 0.00, -1.16, 1.12, 9.82
49.260207, 4.022543, 0.00, -1.19, 1.06, 9.75
49.260207, 4.022543, 0.00, -1.18, 1.16, 9.76
49.260207, 4.022543, 0.00, -1.15, 1.09, 9.75
49.260207, 4.022543, 0.00, -1.16, 1.06, 9.76
49.260207, 4.022543, 0.00, -1.19, 1.13, 9.74
49.260207, 4.022543, 0.00, -1.21, 1.11, 9.79
49.260207, 4.022543, 0.00, -1.15, 1.08, 9.84
49.260207, 4.022543, 0.00, -1.24, 1.13, 9.82
49.260207, 4.022543, 0.00, -1.18, 1.11, 9.72
49.260207, 4.022543, 0.00, -1.13, 1.11, 9.76
49.260207, 4.022543, 0.00, -1.19, 1.13, 9.74
49.260207, 4.022543, 0.00, -1.20, 1.07, 9.70
49.260207, 4.022543, 0.00, -1.23, 1.09, 9.77
49.260207, 4.022543, 0.00, -1.24, 1.17, 9.76
49.260207, 4.022543, 0.00, -1.14, 1.06, 9.77
49.260207, 4.022543, 0.00, -1.19, 1.13, 9.76
49.260207, 4.022543, 0.00, -1.16, 1.14, 9.75
49.260207, 4.022543, 0.00, -1.18, 1.05, 9.79
49.260207, 4.022543, 0.00, -1.14, 1.11, 9.72
49.260207, 4.022543, 0.00, -1.18, 1.11, 9.74
49.260207, 4.022543, 0.00, -1.15, 1.08, 9.78
49.260207, 4.022543, 0.00, -1.19, 1.08, 9.71
49.260207, 4.022543, 0.00, -1.61, 1.75, 9.70
49.260207, 4.022543, 0.00, -1.74, 2.09, 9.68
49.260207, 4.022543, 0.00, -2.01, 2.61, 9.37
49.260207, 4.022543, 0.00, -2.09, 2.54, 9.57
49.260207, 4.022543, 0.00, -1.82, 2.49, 9.51
49.260207, 4.022543, 0.00, -1.67, 2.65, 9.19
49.260248, 4.022524, 2.93, -0.27, 2.64, 10.38
49.260248, 4.022524, 2.93, 0.50, 2.50, 10.19
49.260278, 4.022511, 3.60, 0.45, 2.53, 9.40
49.260278, 4.022511, 3.60, 1.06, 3.04, 10.30
49.260316, 4.022498, 3.92, 1.08, 2.93, 9.48
49.260316, 4.022498, 3.92, 0.23, 3.39, 8.61
49.260346, 4.022494, 2.64, -1.33, 2.85, 8.85
49.260346, 4.022494, 2.64, -1.75, 1.76, 8.18
49.260364, 4.022501, 1.03, -1.45, 2.57, 9.41
49.260364, 4.022501, 1.03, -1.70, 2.83, 9.55
49.260386, 4.022513, 0.93, -1.95, 2.06, 10.93
49.260386, 4.022513, 0.93, -1.25, 2.54, 9.56
49.260408, 4.022539, 1.11, -2.15, 2.96, 9.61
49.260488, 4.022637, 3.74, -1.68, 1.99, 9.91
49.260488, 4.022637, 3.74, -1.00, 2.47, 10.36
49.260556, 4.022766, 5.99, -1.63, 1.99, 9.27
49.260556, 4.022766, 5.99, -1.47, 1.37, 10.02
49.260625, 4.022890, 7.45, -2.08, 2.21, 12.03
49.260625, 4.022890, 7.45, -1.02, 1.20, 10.17
49.260681, 4.023028, 8.39, -1.86, 1.63, 9.81
49.260681, 4.023028, 8.39, -0.66, 0.65, 10.59
49.260731, 4.023206, 10.29, -2.06, 1.76, 10.04
49.260731, 4.023206, 10.29, -1.73, 0.84, 9.87
49.260782, 4.023419, 11.66, -2.52, -0.24, 10.08
49.260782, 4.023419, 11.66, -1.00, 1.36, 10.43
49.260849, 4.023590, 11.63, 0.43, 1.60, 11.32
49.260849, 4.023590, 11.63, -0.34, 0.82, 9.84
49.260919, 4.023768, 12.31, -0.47, 0.63, 8.92
49.260919, 4.023768, 12.31, -1.36, 1.73, 10.15
49.260995, 4.023928, 11.71, -1.15, 0.99, 9.83
49.260995, 4.023928, 11.71, -0.48, 0.77, 9.99
49.261081, 4.024078, 11.55, -1.46, 0.39, 9.69
49.261081, 4.024078, 11.55, -4.15, -0.55, 16.50
49.261166, 4.024215, 11.48, 0.35, 1.64, 10.86
49.261166, 4.024215, 11.48, -0.69, 0.49, 10.29
49.261236, 4.024351, 11.15, -1.01, 0.58, 10.00
49.261236, 4.024351, 11.15, -0.99, 0.99, 10.90
49.261300, 4.024474, 10.13, -1.02, 0.40, 9.59
49.261300, 4.024474, 10.13, -1.01, -0.51, 10.35
49.261365, 4.024589, 9.60, -0.89, -0.13, 9.57
49.261365, 4.024589, 9.60, -1.53, -0.94, 9.24
49.261424, 4.024682, 8.37, -2.08, -1.48, 9.77
49.261424, 4.024682, 8.37, -2.56, -0.76, 9.92
49.261474, 4.024756, 6.47, -3.22, -1.11, 9.94
49.261474, 4.024756, 6.47, -4.30, -1.48, 10.30
49.261516, 4.024810, 5.14, -3.53, -0.39, 9.44
49.261516, 4.024810, 5.14, -4.07, -0.75, 10.41
49.261573, 4.024830, 5.60, -3.92, -0.83, 8.89
49.261573, 4.024830, 5.60, -3.96, -0.21, 9.34
49.261633, 4.024800, 5.58, -3.81, 1.18, 8.91
49.261633, 4.024800, 5.58, -4.33, 1.08, 7.99
49.261683, 4.024730, 5.78, -2.37, 0.80, 8.08
49.261710, 4.024635, 6.69, -2.87, 2.11, 7.54
49.261710, 4.024635, 6.69, -1.66, 2.15, 10.41
49.261738, 4.024531, 7.21, -2.23, 0.97, 9.26
49.261738, 4.024531, 7.21, -1.35, 2.23, 10.29
49.261765, 4.024422, 7.90, -3.43, 1.88, 10.81
49.261765, 4.024422, 7.90, -1.43, 2.22, 10.16
49.261792, 4.024308, 8.38, -1.39, 2.01, 7.89
49.261792, 4.024308, 8.38, -1.85, 1.48, 7.24
49.261815, 4.024191, 8.84, 0.92, 0.87, 9.56
49.261815, 4.024191, 8.84, -0.10, 2.04, 11.08
49.261832, 4.024062, 9.41, -0.37, 0.25, 8.17
49.261832, 4.024062, 9.41, -1.14, 0.06, 9.49
49.261851, 4.023934, 8.99, -1.92, -0.15, 8.80
49.261851, 4.023934, 8.99, -1.08, -0.54, 9.30
49.261871, 4.023812, 8.74, -0.95, 0.66, 9.99
49.261871, 4.023812, 8.74, -0.65, 0.70, 10.17
49.261890, 4.023700, 7.79, -1.02, 0.54, 8.92
49.261890, 4.023700, 7.79, -0.94, 0.91, 10.46
49.261906, 4.023594, 7.22, -0.76, 0.85, 10.52
49.261906, 4.023594, 7.22, -0.81, 0.07, 9.31
49.261924, 4.023498, 6.52, -0.97, 0.70, 10.18
49.261924, 4.023498, 6.52, -0.65, 0.53, 9.99
49.261936, 4.023411, 5.98, -0.88, 0.96, 10.34
49.261936, 4.023411, 5.98, -0.98, 0.67, 9.97
49.261952, 4.023333, 5.41, -0.55, 1.00, 10.20
49.261952, 4.023333, 5.41, -0.81, 0.68, 9.68
49.261968, 4.023266, 4.97, -1.52, 0.88, 9.96
49.261968, 4.023266, 4.97, -1.38, 0.95, 10.17
49.261979, 4.023195, 4.67, -1.17, 0.77, 9.59
49.261979, 4.023195, 4.67, -1.28, 0.73, 9.31
49.261997, 4.023146, 4.20, -0.51, 0.64, 8.78
49.261997, 4.023146, 4.20, -1.38, 0.84, 11.11
49.262010, 4.023092, 3.89, -0.80, 0.05, 10.52
49.262010, 4.023092, 3.89, -0.87, 0.90, 10.18
49.262022, 4.023051, 2.90, -0.67, 0.48, 9.68
49.262022, 4.023051, 2.90, -0.85, 0.63, 10.66
49.262029, 4.023019, 2.05, -1.73, 0.79, 9.94
49.262029, 4.023019, 2.05, -1.55, 0.87, 9.73
49.262037, 4.022994, 1.64, -1.27, 0.88, 9.85
49.262037, 4.022994, 1.64, -1.22, 0.88, 9.79
49.262039, 4.022975, 1.28, -1.31, 0.93, 9.78
49.262043, 4.022964, 0.81, -0.65, 0.59, 9.62
49.262043, 4.022964, 0.81, -0.77, 1.16, 9.84
49.262043, 4.022964, 0.00, -0.20, 0.90, 10.09
49.262043, 4.022964, 0.00, -0.04, 0.91, 9.69
49.262043, 4.022964, 0.00, -0.68, 0.78, 9.89
49.262043, 4.022964, 0.00, -1.17, 1.08, 9.73
49.262043, 4.022964, 0.00, -0.80, -0.22, 11.55
49.262043, 4.022964, 0.00, -0.91, 0.88, 9.70
49.262043, 4.022964, 0.00, -1.05, 1.24, 9.83
49.262043, 4.022964, 0.00, -0.97, 0.92, 9.64
49.262043, 4.022964, 0.00, -1.00, 1.13, 9.82
49.262043, 4.022964, 0.00, -1.33, 1.44, 9.72
49.262043, 4.022964, 0.00, -1.24, 1.35, 9.77
49.262043, 4.022964, 0.00, -1.29, 1.43, 9.79
49.262043, 4.022964, 0.00, -1.22, 1.30, 9.80
49.262043, 4.022964, 0.00, -1.26, 1.35, 9.59
49.262043, 4.022964, 0.00, -1.24, 1.29, 9.73
49.262043, 4.022964, 0.00, -1.24, 1.32, 9.65
49.262043, 4.022964, 0.00, -1.29, 1.37, 9.44
