Location-lat,Location-long,Speed,Accelerometer-X,Accelerometer-Y,Accelerometer-Z
49.6648,3.53089,33.76,-0.7,1.99,11.2
49.664649,3.531301,33.87,-1.64,2.09,11.06
49.664649,3.531301,33.87,0.21,0.73,10.08
49.664499,3.531713,33.67,-1.58,1.7,11.52
49.664499,3.531713,33.67,0.06,1.05,8.22
49.664353,3.532118,33.49,-0.45,2.3,9.78
49.664353,3.532118,33.49,-0.19,1.92,9.75
49.664204,3.532529,33.4,-1.24,1.25,10.65
49.664204,3.532529,33.4,-1.21,1.47,7.31
49.664064,3.532937,33.35,0.55,0.38,9.84
49.664064,3.532937,33.35,-0.44,1.16,9.58
49.663924,3.533347,33.25,0.16,1.3,9.38
49.663924,3.533347,33.25,-1.0,1.01,8.9
49.663783,3.533753,33.2,-1.3,1.93,8.2
49.663783,3.533753,33.2,-0.69,1.93,12.09
49.663647,3.534151,33.15,-1.26,1.65,9.58
49.663647,3.534151,33.15,-0.35,1.12,7.63
49.663509,3.534557,33.2,-1.31,1.67,9.75
49.663509,3.534557,33.2,-0.2,0.69,10.05
49.663369,3.534964,33.31,-0.14,2.1,9.04
49.663369,3.534964,33.31,-1.47,1.25,8.59
49.663236,3.535378,33.36,-1.63,1.56,12.28
49.663236,3.535378,33.36,-0.83,1.61,9.04
49.663106,3.535795,33.41,-0.06,1.09,10.02
49.663106,3.535795,33.41,-1.0,1.09,8.49
49.662972,3.536215,33.53,-1.65,2.94,11.73
49.662972,3.536215,33.53,0.05,1.96,9.82
49.662844,3.536629,33.62,-0.36,1.23,10.28
49.662844,3.536629,33.62,-2.29,0.96,8.26
49.662717,3.537055,33.64,-0.86,1.25,10.08
49.662588,3.537472,33.68,-0.4,0.61,10.35
49.662588,3.537472,33.68,-0.01,2.21,10.2
49.662465,3.537893,33.71,-1.83,0.98,9.09
49.662465,3.537893,33.71,0.11,2.73,11.2
49.662342,3.538319,33.8,-0.33,1.76,10.58
49.662342,3.538319,33.8,-0.11,1.38,8.59
49.662218,3.538743,33.86,-0.66,2.49,10.99
49.662218,3.538743,33.86,-0.14,0.35,8.48
49.662092,3.539171,33.88,-1.84,1.8,11.53
49.662092,3.539171,33.88,-0.7,1.41,9.84
49.661966,3.539596,33.95,-1.31,1.08,8.5
49.661966,3.539596,33.95,-0.96,1.84,10.52
49.661841,3.540028,34.02,0.65,0.88,9.24
49.661841,3.540028,34.02,-0.8,2.83,11.33
49.661717,3.540463,34.06,-0.06,1.37,9.99
49.661717,3.540463,34.06,0.4,1.15,9.5
49.6616,3.5409,34.13,-1.23,0.81,9.53
49.6616,3.5409,34.13,-0.56,2.27,10.69
49.661487,3.541333,34.2,-0.38,0.68,9.34
49.661487,3.541333,34.2,-0.71,1.02,9.04
49.661374,3.541773,34.24,-0.59,1.78,9.75
49.661374,3.541773,34.24,-1.03,0.93,10.37
49.661264,3.542218,34.21,0.14,0.45,10.45
49.661264,3.542218,34.21,-0.97,2.68,11.51
49.661158,3.542663,34.15,-0.87,1.48,11.87
49.661158,3.542663,34.15,-1.44,1.07,9.19
49.661045,3.543102,34.18,-1.01,1.96,9.49
49.661045,3.543102,34.18,0.22,2.52,10.96
49.660939,3.543547,34.15,-1.4,0.66,10.07
49.660939,3.543547,34.15,0.37,0.41,7.52
49.660836,3.543991,34.06,-0.89,2.06,11.43
49.660836,3.543991,34.06,-1.51,0.68,9.28
49.660728,3.544436,33.91,-0.54,0.53,11.64
49.660728,3.544436,33.91,-1.71,1.88,9.8
49.660626,3.544878,33.65,-0.4,1.27,9.19
49.660626,3.544878,33.65,-0.61,1.65,11.17
49.660524,3.545325,33.42,-0.11,0.62,10.78
49.660524,3.545325,33.42,-0.49,0.93,9.88
49.660425,3.545765,33.21,-0.39,1.99,8.65
49.660425,3.545765,33.21,0.17,0.69,10.54
49.660327,3.546202,33.12,-0.57,1.01,10.79
49.660232,3.546638,33.09,-0.33,1.87,10.51
49.660232,3.546638,33.09,0.87,1.27,10.04
49.66014,3.547072,33.09,-1.39,0.99,10.14
49.66014,3.547072,33.09,-0.83,1.72,7.21
49.660048,3.54751,33.1,-1.81,0.84,12.12
49.660048,3.54751,33.1,-1.44,2.01,11.81
49.659958,3.547948,33.12,-1.32,1.58,10.92
49.659958,3.547948,33.12,-1.25,1.56,10.51
49.659871,3.548383,33.06,-0.61,2.35,10.62
49.659871,3.548383,33.06,0.84,0.91,9.51
49.659787,3.548815,33.02,-1.7,2.31,11.59
49.659787,3.548815,33.02,-1.75,2.09,10.75
49.659698,3.549258,33.01,-1.34,1.46,8.88
49.659698,3.549258,33.01,-1.69,1.37,10.11
49.659615,3.549697,32.97,-0.87,1.4,9.59
49.659615,3.549697,32.97,-0.58,0.45,7.96
49.659533,3.550142,32.98,-1.46,1.97,10.72
49.659533,3.550142,32.98,-0.55,1.65,8.36
49.659453,3.550586,33.01,-1.34,1.51,10.57
49.659453,3.550586,33.01,-0.36,2.36,9.1
49.659373,3.551024,33.08,0.14,0.85,9.84
49.659373,3.551024,33.08,-0.66,2.6,10.41
49.65929,3.551463,33.12,-0.64,1.26,9.67
49.65929,3.551463,33.12,0.74,0.68,10.51
49.659204,3.551906,33.23,-0.17,1.7,8.49
49.659204,3.551906,33.23,0.31,1.43,11.96
49.659121,3.552348,33.3,-0.9,1.91,7.75
49.659121,3.552348,33.3,-0.24,1.28,8.15
49.659037,3.55279,33.36,-0.35,2.07,10.77
49.659037,3.55279,33.36,0.28,1.17,9.67
49.658949,3.553235,33.44,-1.93,0.94,10.34
49.658949,3.553235,33.44,-0.61,0.67,8.53
49.658859,3.553675,33.47,0.56,2.46,8.99
49.658859,3.553675,33.47,-0.9,1.39,9.05
49.658767,3.554118,33.57,-1.02,2.17,9.02
49.658767,3.554118,33.57,0.9,0.79,9.8
49.658675,3.554559,33.64,-0.91,2.25,9.41
49.658675,3.554559,33.64,1.31,1.62,8.99
49.658582,3.555004,33.72,0.17,1.15,8.89
49.658486,3.555452,33.76,0.38,1.49,10.35
49.658486,3.555452,33.76,-0.35,1.76,10.13
49.658394,3.555898,33.78,-0.34,2.27,10.02
49.658394,3.555898,33.78,-0.93,1.2,9.59
49.658298,3.556341,33.92,0.55,1.64,8.91
49.658298,3.556341,33.92,-0.36,1.89,8.64
49.658199,3.556783,33.98,0.29,1.34,11.15
49.658199,3.556783,33.98,0.04,2.68,9.7
49.658095,3.557228,34.04,-0.29,1.28,8.37
49.658095,3.557228,34.04,-1.62,1.65,8.4
49.65799,3.557669,34.1,-0.27,2.56,10.19
49.65799,3.557669,34.1,-0.86,1.21,7.34
49.657884,3.55811,34.14,-0.15,1.85,10.62
49.657884,3.55811,34.14,-1.15,1.96,8.74
49.65778,3.558557,34.22,0.71,1.05,10.24
49.65778,3.558557,34.22,-2.27,1.86,9.86
49.657675,3.559004,34.26,-0.28,1.8,9.8
49.657675,3.559004,34.26,-0.68,1.21,8.37
49.657568,3.559449,34.31,1.51,1.0,10.44
49.657568,3.559449,34.31,-0.91,0.77,8.25
49.657459,3.559895,34.34,-0.89,1.55,8.58
49.657459,3.559895,34.34,-0.49,1.1,11.97
49.657352,3.560338,34.35,-0.33,1.43,8.92
49.657352,3.560338,34.35,0.73,0.64,10.11
49.657237,3.560776,34.39,-0.98,2.23,9.12
49.657237,3.560776,34.39,-0.5,2.31,10.39
49.657119,3.561222,34.55,-0.79,1.64,11.8
49.657119,3.561222,34.55,-0.31,1.3,9.29
49.657005,3.561668,34.53,-1.58,1.21,10.15
49.657005,3.561668,34.53,-1.83,0.8,10.29
49.65689,3.562111,34.65,-0.72,1.47,9.05
49.65689,3.562111,34.65,-1.57,1.76,11.16
49.656777,3.562558,34.68,-0.64,1.35,10.41
49.656777,3.562558,34.68,-0.57,1.25,9.79
49.656662,3.563004,34.66,-0.34,1.66,9.0
49.656662,3.563004,34.66,-0.28,0.75,9.83
49.656544,3.563448,34.67,-0.21,1.79,8.96
49.656544,3.563448,34.67,-1.39,1.49,9.95
49.656426,3.563893,34.83,-0.21,2.06,10.31
49.656306,3.564335,34.83,-1.07,1.62,9.93
49.656306,3.564335,34.83,-0.51,1.95,9.13
49.656176,3.564778,34.82,0.34,1.23,9.86
49.656176,3.564778,34.82,-0.49,0.58,9.89
49.656057,3.565217,34.86,0.08,0.88,8.66
49.656057,3.565217,34.86,0.52,0.75,10.82
49.655938,3.565657,34.72,0.57,0.85,10.0
49.655938,3.565657,34.72,-0.45,1.26,10.6
49.655819,3.566097,34.7,-0.69,1.58,9.46
49.655819,3.566097,34.7,-0.51,1.65,9.45
49.65569,3.566535,34.69,-0.38,1.24,10.55
49.65569,3.566535,34.69,0.44,1.23,11.77
49.65556,3.566974,34.68,0.11,0.9,10.01
49.65556,3.566974,34.68,-0.12,1.56,10.4
49.655434,3.56741,34.66,-0.87,1.94,11.31
49.655434,3.56741,34.66,-0.6,1.4,10.95
49.655303,3.567842,34.63,0.85,0.95,10.04
49.655303,3.567842,34.63,-0.61,1.19,11.71
49.65517,3.568276,34.62,-0.2,0.33,10.86
49.65517,3.568276,34.62,-0.75,0.64,9.44
49.655037,3.568706,34.4,-0.34,0.57,9.52
49.655037,3.568706,34.4,-0.41,1.08,10.76
49.654904,3.569132,34.17,0.41,0.96,11.15
49.654904,3.569132,34.17,-0.24,1.08,11.3
49.654768,3.569557,34.0,-0.38,0.62,10.57
49.654768,3.569557,34.0,-0.79,1.47,9.28
49.654635,3.569979,33.81,-0.2,1.55,9.78
49.654635,3.569979,33.81,-0.13,1.15,9.87
49.654506,3.570395,33.81,-0.36,1.89,9.41
49.654506,3.570395,33.81,0.24,1.85,11.02
49.654374,3.570813,33.94,-0.12,1.38,9.33
49.654374,3.570813,33.94,-0.04,1.59,9.84
49.654239,3.571229,34.03,0.02,1.2,9.56
49.654239,3.571229,34.03,0.33,1.03,9.91
49.6541,3.571651,34.1,-0.01,1.82,10.67
49.6541,3.571651,34.1,-0.52,1.49,10.81
49.653961,3.572069,34.21,-0.24,1.71,9.8
49.653961,3.572069,34.21,0.37,2.02,10.21
49.653817,3.572491,34.29,-1.42,1.37,10.64
49.653817,3.572491,34.29,-0.28,0.84,9.06
49.653671,3.572911,34.29,-1.08,1.13,8.83
49.653525,3.573329,34.19,-1.34,1.66,9.0
49.653525,3.573329,34.19,1.0,1.06,9.14
49.653385,3.573745,34.13,-0.5,1.23,9.87
49.653385,3.573745,34.13,-1.33,1.36,8.83
49.653242,3.574167,34.04,-0.38,0.53,9.23
49.653242,3.574167,34.04,-1.06,1.19,8.01
49.653101,3.574586,33.9,-0.79,1.22,11.53
49.653101,3.574586,33.9,-1.14,1.17,9.77
49.652959,3.575002,33.75,-0.44,1.48,10.23
49.652959,3.575002,33.75,-0.25,0.65,10.62
49.65282,3.575417,33.71,-0.86,1.3,8.9
49.65282,3.575417,33.71,0.09,0.45,8.87
49.652682,3.57583,33.61,-0.48,1.38,8.99
49.652682,3.57583,33.61,-0.56,1.55,11.16
49.652544,3.576243,33.54,-0.7,1.7,9.45
49.652544,3.576243,33.54,0.2,0.99,11.55
49.652403,3.576656,33.51,-1.04,1.42,8.34
49.652403,3.576656,33.51,0.25,0.94,8.58
49.652266,3.577064,33.5,-0.62,1.92,10.11
49.652266,3.577064,33.5,-0.08,1.36,11.31
49.652125,3.577475,33.55,-0.21,1.36,9.93
49.652125,3.577475,33.55,-0.44,0.66,11.52
49.651984,3.577888,33.62,-0.97,0.81,7.9
49.651984,3.577888,33.62,0.18,0.8,8.96
49.651846,3.5783,33.72,-1.23,0.99,8.29
49.651846,3.5783,33.72,-0.43,1.97,10.72
49.651705,3.578716,33.76,-0.79,1.26,9.04
49.651705,3.578716,33.76,-0.02,1.9,11.05
49.651567,3.579131,33.77,-0.21,0.69,11.15
49.651567,3.579131,33.77,-1.42,1.52,11.84
49.651428,3.579544,33.77,0.54,0.75,10.52
49.651428,3.579544,33.77,-1.2,0.75,8.86
49.651286,3.57996,33.83,0.14,1.14,11.15
49.651286,3.57996,33.83,-0.62,0.97,8.81
49.651147,3.580373,33.84,0.06,2.21,10.24
49.651147,3.580373,33.84,-0.13,1.68,11.24
49.651007,3.580789,33.89,-0.03,0.86,9.79
49.651007,3.580789,33.89,-1.2,1.94,11.36
49.650861,3.581207,33.95,-1.6,1.22,9.05
49.650861,3.581207,33.95,-1.26,1.69,9.68
49.650719,3.581624,33.98,-1.39,1.77,9.77
49.650719,3.581624,33.98,0.05,1.44,10.22
49.650577,3.582039,34.03,-0.77,1.89,8.64
49.650577,3.582039,34.03,-0.58,1.83,11.45
49.650437,3.582458,34.11,-0.89,1.15,9.58
49.650296,3.582876,34.2,-1.09,2.24,11.88
49.650296,3.582876,34.2,-2.06,2.01,11.34
49.650157,3.583294,34.24,-1.3,1.05,10.31
49.650157,3.583294,34.24,0.33,1.46,8.82
49.650016,3.583713,34.26,0.8,2.72,10.28
49.650016,3.583713,34.26,0.74,0.96,8.18
49.649873,3.584135,34.34,-0.9,1.03,10.38
49.649873,3.584135,34.34,-1.18,1.13,10.22
49.649732,3.584553,34.37,-1.08,1.68,12.25
49.649732,3.584553,34.37,-1.05,1.12,10.42
49.649591,3.584979,34.47,1.32,0.93,9.09
49.649591,3.584979,34.47,-0.69,2.11,10.13
49.649449,3.585402,34.51,-0.59,2.54,9.36
49.649449,3.585402,34.51,0.11,2.73,10.44
49.6493,3.585824,34.59,0.8,1.41,9.85
49.6493,3.585824,34.59,0.46,0.32,7.93
49.649151,3.586252,34.62,-0.56,0.63,8.71
49.649151,3.586252,34.62,0.3,2.33,9.87
49.649006,3.586684,34.65,-0.84,2.11,10.83
49.649006,3.586684,34.65,-1.28,2.16,9.77
49.648859,3.587113,34.61,0.0,0.01,9.05
49.648859,3.587113,34.61,-0.14,-0.11,8.2
49.648715,3.587536,34.68,0.45,0.29,9.19
49.648715,3.587536,34.68,-0.57,0.49,10.25
49.648564,3.587959,34.63,-0.5,1.9,11.04
49.648564,3.587959,34.63,-1.19,2.66,11.68
49.648408,3.588376,34.59,-1.77,2.12,11.58
49.648408,3.588376,34.59,-0.39,1.73,10.9
49.64825,3.588795,34.6,-1.03,1.01,10.81
49.64825,3.588795,34.6,-0.5,0.6,9.32
49.648095,3.58921,34.58,-0.75,1.13,8.97
49.648095,3.58921,34.58,0.69,1.45,9.1
49.64794,3.589624,34.53,0.16,1.21,11.2
49.64794,3.589624,34.53,-0.21,1.35,9.6
49.647782,3.590035,34.57,0.68,0.98,9.06
49.647782,3.590035,34.57,-1.27,1.82,8.77
49.647619,3.590443,34.54,0.0,1.93,10.28
49.647619,3.590443,34.54,-1.12,2.79,10.91
49.647457,3.590858,34.54,-0.01,0.27,9.46
49.647296,3.591267,34.53,0.52,0.87,9.42
49.647296,3.591267,34.53,-0.98,2.99,9.73
49.647132,3.591671,34.53,-1.22,2.72,10.07
49.647132,3.591671,34.53,-1.15,2.19,11.7
49.646968,3.592078,34.44,-0.59,0.69,9.06
49.646968,3.592078,34.44,-0.96,0.85,10.03
49.646807,3.592484,34.43,-0.63,0.45,8.5
49.646807,3.592484,34.43,-0.97,0.97,10.6
49.64664,3.592888,34.43,1.01,1.02,9.47
49.64664,3.592888,34.43,-0.18,0.43,9.03
49.646474,3.593288,34.39,-1.64,2.51,10.23
49.646474,3.593288,34.39,-0.58,2.89,10.32
49.646305,3.593689,34.4,0.12,1.42,10.83
49.646305,3.593689,34.4,-0.05,0.79,10.18
49.646138,3.594086,34.42,0.19,0.72,10.3
49.646138,3.594086,34.42,-0.83,2.45,10.66
49.645969,3.594486,34.37,-1.69,2.48,9.38
49.645969,3.594486,34.37,-0.24,1.55,8.69
49.645796,3.594888,34.33,-0.45,1.13,9.48
49.645796,3.594888,34.33,-0.37,2.18,12.82
49.645624,3.595285,34.33,-0.21,1.24,9.99
49.645624,3.595285,34.33,0.86,0.83,9.43
49.645452,3.59568,34.31,-1.17,1.41,9.87
49.645452,3.59568,34.31,0.37,1.97,10.92
49.645281,3.596071,34.25,-1.08,1.02,10.32
49.645281,3.596071,34.25,1.25,1.11,8.0
49.645111,3.596458,34.22,-0.58,3.14,10.83
49.645111,3.596458,34.22,-0.23,2.07,9.74
49.644936,3.596845,34.14,0.09,0.86,9.47
49.644936,3.596845,34.14,0.78,0.45,8.62
49.64476,3.597229,34.04,-0.41,1.6,11.62
49.64476,3.597229,34.04,0.24,0.71,9.05
49.644578,3.597609,34.0,-1.92,0.99,10.31
49.644578,3.597609,34.0,-0.34,1.02,10.08
49.644396,3.597987,33.85,0.56,1.02,8.54
49.644396,3.597987,33.85,-1.4,1.47,9.69
49.644216,3.598365,33.78,-0.24,0.9,10.25
49.644216,3.598365,33.78,-0.57,2.46,9.51
49.644036,3.598741,33.69,-2.04,1.25,11.37
49.644036,3.598741,33.69,-0.19,2.06,9.02
49.643857,3.599112,33.61,-0.99,1.24,11.05
49.643672,3.599486,33.57,-0.37,1.17,9.52
49.643672,3.599486,33.57,0.66,1.18,9.62
49.643487,3.599857,33.51,0.07,2.22,11.65
49.643487,3.599857,33.51,-1.56,1.34,10.59
49.643301,3.600227,33.52,-0.28,2.35,9.57
49.643301,3.600227,33.52,-0.48,1.07,11.78
49.643113,3.600592,33.45,-0.93,0.77,8.98
49.643113,3.600592,33.45,0.2,1.1,10.81
49.64293,3.600956,33.4,-0.02,2.02,9.49
49.64293,3.600956,33.4,-0.87,0.93,9.04
49.642744,3.601318,33.36,-0.71,2.48,11.47
49.642744,3.601318,33.36,0.86,1.7,8.66
49.642555,3.601684,33.33,-0.44,0.98,11.73
49.642555,3.601684,33.33,-0.5,2.14,9.61
49.642363,3.602049,33.24,-1.24,0.67,11.01
49.642363,3.602049,33.24,-0.94,2.0,8.64
49.642169,3.602403,33.11,-0.47,1.7,8.96
49.642169,3.602403,33.11,-1.24,1.13,10.86
49.641982,3.602758,33.09,-0.67,1.34,9.27
49.641982,3.602758,33.09,-0.17,0.24,10.54
49.641794,3.60311,33.09,-0.3,2.21,10.7
49.641794,3.60311,33.09,0.82,1.15,9.21
49.641603,3.603467,33.07,1.69,1.19,9.19
49.641603,3.603467,33.07,-1.2,1.57,8.31
49.641413,3.603816,33.07,0.88,0.94,9.65
49.641413,3.603816,33.07,0.45,0.98,11.4
49.641222,3.604163,33.02,0.35,2.05,10.65
49.641222,3.604163,33.02,0.22,1.27,8.79
49.641027,3.604508,32.98,-0.49,2.43,10.11
49.641027,3.604508,32.98,-0.41,1.94,9.31
49.640832,3.604853,32.99,0.91,0.9,9.53
49.640832,3.604853,32.99,0.01,1.29,10.93
49.640636,3.605195,33.03,-0.77,1.62,9.0
49.640636,3.605195,33.03,1.35,0.97,9.08
49.64044,3.605533,33.02,0.4,2.31,10.18
49.64044,3.605533,33.02,-0.43,2.0,9.37
49.640241,3.605873,33.12,-1.39,0.98,10.22
49.640241,3.605873,33.12,-0.45,1.77,9.27
49.640042,3.606214,33.13,0.88,0.93,9.45
49.640042,3.606214,33.13,-1.62,1.16,11.26
49.639843,3.606554,33.19,-0.91,1.5,8.95
49.639843,3.606554,33.19,-2.25,1.58,9.41
49.639642,3.60689,33.22,0.16,1.85,8.53
49.639439,3.607225,33.28,1.21,0.73,9.29
49.639439,3.607225,33.28,0.04,1.84,11.02
49.639233,3.607566,33.4,-1.02,1.01,9.04
49.639233,3.607566,33.4,-0.15,1.65,9.27
49.639025,3.607903,33.49,1.23,0.89,10.31
49.639025,3.607903,33.49,-1.39,1.88,11.53
49.638817,3.608235,33.45,0.0,0.29,8.18
49.638817,3.608235,33.45,0.04,1.02,9.67
49.638607,3.608565,33.49,-1.16,0.94,9.77
49.638607,3.608565,33.49,-0.78,2.02,9.73
49.638397,3.608893,33.52,0.9,1.11,10.82
49.638397,3.608893,33.52,-1.58,1.67,10.57
49.638184,3.609222,33.63,0.89,1.36,8.75
49.638184,3.609222,33.63,-0.52,1.04,8.98
49.637967,3.609555,33.63,-0.3,0.88,8.96
49.637967,3.609555,33.63,0.37,1.65,8.78
49.637753,3.60988,33.83,-1.05,1.47,11.01
49.637753,3.60988,33.83,1.39,0.83,8.59
49.637537,3.610201,33.82,0.03,2.58,11.02
49.637537,3.610201,33.82,1.67,1.65,9.42
49.637319,3.610525,33.82,-1.22,1.91,10.22
49.637319,3.610525,33.82,-0.57,0.36,11.51
49.637103,3.61085,33.87,-0.55,0.9,7.92
49.637103,3.61085,33.87,-0.12,1.84,9.13
49.636883,3.611178,33.92,-0.94,1.49,10.4
49.636883,3.611178,33.92,0.59,2.31,10.26
49.636663,3.611499,33.92,-0.31,2.33,11.52
49.636663,3.611499,33.92,-0.07,0.62,10.35
49.636441,3.611825,33.94,0.26,2.14,9.68
49.636441,3.611825,33.94,-0.48,1.28,9.69
49.636218,3.612147,33.97,1.14,0.85,8.45
49.636218,3.612147,33.97,-0.33,0.72,11.24
49.635992,3.612469,33.91,0.55,1.37,10.71
49.635992,3.612469,33.91,0.46,1.36,9.73
49.635766,3.612784,33.89,0.31,0.38,8.51
49.635766,3.612784,33.89,-0.42,1.15,10.12
49.63554,3.613096,33.96,0.55,1.78,8.52
49.63554,3.613096,33.96,0.43,0.52,9.88
49.635314,3.613404,34.0,-0.98,0.89,9.43
49.635314,3.613404,34.0,-1.05,1.51,10.08
49.635084,3.613716,34.05,-0.26,0.83,8.41
49.634852,3.614026,34.21,-1.22,1.59,9.92
49.634852,3.614026,34.21,-1.59,1.08,7.81
49.63462,3.614334,34.26,-0.84,0.56,10.94
49.63462,3.614334,34.26,0.35,0.78,8.51
49.634386,3.614644,34.36,-1.63,1.04,8.75
49.634386,3.614644,34.36,-1.29,0.91,8.99
49.634151,3.614955,34.46,-0.5,0.85,8.43
49.634151,3.614955,34.46,-0.73,0.85,9.19
49.633918,3.615261,34.5,0.45,2.16,9.65
49.633918,3.615261,34.5,0.42,1.85,9.0
49.63368,3.615573,34.6,-0.66,2.37,10.25
49.63368,3.615573,34.6,0.98,0.88,9.51
49.633443,3.615879,34.71,0.71,1.22,10.74
49.633443,3.615879,34.71,0.37,0.51,10.12
49.633201,3.616187,34.83,-0.45,1.21,9.73
49.633201,3.616187,34.83,-0.6,1.33,10.28
49.632959,3.616492,34.85,-1.49,0.68,11.37
49.632959,3.616492,34.85,-1.63,1.02,10.25
49.632714,3.616797,34.99,-0.75,2.29,8.7
49.632714,3.616797,34.99,-0.41,1.82,8.99
49.632469,3.617097,35.15,0.04,1.81,10.03
49.632469,3.617097,35.15,0.41,2.11,10.2
49.632225,3.617405,35.19,-0.09,2.05,10.78
49.632225,3.617405,35.19,-0.62,0.8,8.5
49.631981,3.617711,35.27,-1.07,1.92,9.93
49.631981,3.617711,35.27,-0.53,1.81,9.93
49.631733,3.618013,35.32,0.33,0.83,9.16
49.631733,3.618013,35.32,0.63,1.2,9.88
49.631484,3.618328,35.5,-0.96,0.81,10.33
49.631484,3.618328,35.5,-0.54,1.45,9.87
49.631236,3.618649,35.61,0.16,2.43,10.05
49.631236,3.618649,35.61,-1.46,1.02,10.21
49.630986,3.618961,35.67,-1.61,1.37,9.79
49.630986,3.618961,35.67,-1.14,0.85,10.77
49.630742,3.619274,35.74,-0.09,0.45,10.38
49.630742,3.619274,35.74,0.22,0.79,11.37
49.630495,3.619583,35.76,-0.44,0.47,9.76
49.630495,3.619583,35.76,-0.31,0.82,9.22
49.630249,3.619891,35.1,0.59,0.71,10.13
49.630249,3.619891,35.1,0.23,0.55,9.34
49.630005,3.620197,34.7,-1.71,0.72,8.28
49.630005,3.620197,34.7,-0.97,1.42,10.31
49.629766,3.620501,34.26,-1.0,0.18,10.42
49.62953,3.620807,34.04,-0.82,1.34,11.7
49.62953,3.620807,34.04,-1.02,1.18,9.38
49.629297,3.621109,33.73,-0.34,1.18,10.46
49.629297,3.621109,33.73,-0.84,1.93,11.24
49.629067,3.621412,33.84,-0.2,1.03,9.46
49.629067,3.621412,33.84,0.41,1.37,8.6
49.628837,3.621719,33.83,-0.86,1.08,9.38
49.628837,3.621719,33.83,-0.97,0.76,10.11
49.628605,3.622028,33.82,-1.99,1.09,7.06
49.628605,3.622028,33.82,-0.66,1.2,8.71
49.628376,3.622331,33.87,-1.94,1.09,9.18
49.628376,3.622331,33.87,-1.05,1.18,10.47
49.62815,3.622643,33.91,-1.12,1.53,9.17
49.62815,3.622643,33.91,0.15,2.45,10.69
49.627924,3.622958,33.89,0.21,1.04,10.84
49.627924,3.622958,33.89,-1.71,2.24,10.01
49.6277,3.623277,33.92,0.2,1.66,11.01
49.6277,3.623277,33.92,0.42,0.73,9.5
49.627476,3.623591,34.0,-0.24,2.04,9.92
49.627476,3.623591,34.0,-0.59,1.24,10.64
49.627251,3.623907,34.03,-0.16,0.47,8.45
49.627251,3.623907,34.03,-0.02,1.94,9.65
49.627026,3.624227,34.08,-1.6,0.96,9.5
49.627026,3.624227,34.08,-0.36,0.51,9.48
49.626803,3.624552,34.07,-1.29,1.32,8.83
49.626803,3.624552,34.07,0.33,1.15,10.23
49.626581,3.624876,34.13,-1.06,0.63,11.15
49.626581,3.624876,34.13,-0.56,1.78,10.08
49.626359,3.625203,34.16,-1.74,1.07,10.75
49.626359,3.625203,34.16,0.24,0.82,9.52
49.626136,3.625533,34.26,-0.91,0.34,7.71
49.626136,3.625533,34.26,-1.32,1.4,9.01
49.625913,3.625864,34.29,-0.16,1.17,9.99
49.625913,3.625864,34.29,0.43,0.78,8.62
49.625694,3.626194,34.32,-1.67,0.57,9.35
49.625694,3.626194,34.32,-1.5,1.86,10.56
49.625475,3.626527,34.37,-0.81,1.15,11.9
49.625255,3.62686,34.38,-0.64,0.35,8.77
49.625255,3.62686,34.38,-0.45,2.01,10.55
49.625038,3.627202,34.35,0.06,1.86,9.63
49.625038,3.627202,34.35,-1.76,1.94,10.63
49.624821,3.627545,34.46,-2.31,0.31,8.88
49.624821,3.627545,34.46,-1.17,0.68,8.66
49.624611,3.62789,34.36,-0.95,0.79,11.2
49.624611,3.62789,34.36,-0.45,1.05,9.37
49.624398,3.62823,34.34,-0.64,0.21,9.15
49.624398,3.62823,34.34,-1.7,1.8,9.29
49.624181,3.628572,34.38,-1.33,2.24,11.76
49.624181,3.628572,34.38,-0.51,1.33,12.24
49.623967,3.628912,34.44,-0.16,1.08,9.64
49.623967,3.628912,34.44,-0.19,2.2,10.34
49.623755,3.629261,34.41,-0.99,2.36,10.22
49.623755,3.629261,34.41,-1.11,2.49,11.19
49.623545,3.629608,34.42,-0.46,-0.29,8.87
49.623545,3.629608,34.42,-1.35,0.73,8.71
49.623333,3.629958,34.46,-1.35,0.46,10.02
49.623333,3.629958,34.46,-1.43,2.13,9.69
49.62312,3.630301,34.46,-1.14,1.52,13.01
49.62312,3.630301,34.46,-0.36,0.39,9.69
49.622912,3.630652,34.34,0.35,1.11,9.24
49.622912,3.630652,34.34,-1.35,2.39,9.42
49.622702,3.631003,34.25,-1.17,1.66,10.92
49.622702,3.631003,34.25,-0.57,0.73,9.54
49.622495,3.631349,34.16,-0.97,2.12,9.38
49.622495,3.631349,34.16,-0.59,2.37,11.41
49.622292,3.631699,34.02,0.11,0.22,9.47
49.622292,3.631699,34.02,-0.62,1.25,8.94
49.622091,3.632049,33.94,-0.68,0.28,10.76
49.622091,3.632049,33.94,0.41,1.3,9.92
49.621891,3.632399,33.84,-0.15,1.93,8.85
49.621891,3.632399,33.84,1.22,0.81,8.5
49.621692,3.632755,33.74,-0.22,1.24,10.18
49.621692,3.632755,33.74,-0.73,1.23,10.32
49.621496,3.633104,33.76,0.01,0.94,9.08
49.621496,3.633104,33.76,-0.91,1.4,11.35
49.621296,3.633454,33.75,0.46,0.45,9.0
49.621296,3.633454,33.75,-0.94,1.15,11.19
49.621092,3.633804,33.81,1.5,1.03,8.73
49.620896,3.634158,33.84,-0.59,0.97,9.54
49.620896,3.634158,33.84,-0.45,0.88,10.48
49.620694,3.634516,33.81,0.1,0.66,7.65
49.620694,3.634516,33.81,-0.55,2.04,10.08
49.620494,3.634873,33.83,-0.34,0.68,10.07
49.620494,3.634873,33.83,0.23,2.19,11.7
49.620296,3.635222,33.85,-1.59,0.51,10.01
49.620296,3.635222,33.85,-0.38,1.07,8.82
49.620094,3.63557,34.06,-1.76,2.26,9.67
49.620094,3.63557,34.06,-0.31,1.49,10.58
49.619894,3.63592,34.11,-1.57,0.48,9.75
49.619894,3.63592,34.11,-0.27,2.22,10.07
49.619687,3.636277,34.14,-0.11,2.36,9.76
49.619687,3.636277,34.14,0.72,0.93,9.02
49.619488,3.636634,34.12,-1.57,1.49,10.37
49.619488,3.636634,34.12,-0.41,2.19,10.79
49.619287,3.63699,33.98,0.24,0.35,9.18
49.619287,3.63699,33.98,-1.43,1.52,8.67
49.61909,3.637343,33.87,-0.76,1.6,9.15
49.61909,3.637343,33.87,0.28,0.68,9.63
49.618889,3.637698,33.82,0.16,2.93,10.71
49.618889,3.637698,33.82,-0.6,2.2,10.03
49.618687,3.638053,33.87,0.6,0.53,9.74
49.618687,3.638053,33.87,-0.45,1.24,10.79
49.618487,3.6384,33.65,-1.43,0.83,11.83
49.618487,3.6384,33.65,-0.79,1.81,9.73
49.618286,3.638751,33.49,-0.86,0.38,8.55
49.618286,3.638751,33.49,-0.49,1.82,10.26
49.618085,3.639099,33.47,-0.81,1.8,10.2
49.618085,3.639099,33.47,-0.2,2.15,9.54
49.617885,3.639449,33.37,-0.11,0.19,10.19
49.617885,3.639449,33.37,-0.72,1.94,9.69
49.617682,3.639795,33.35,-0.28,1.04,8.86
49.617682,3.639795,33.35,-0.88,1.25,8.83
49.617482,3.640141,33.25,0.65,1.42,9.68
49.617482,3.640141,33.25,0.76,1.11,11.77
49.617284,3.640488,33.2,-0.28,2.05,9.23
49.617284,3.640488,33.2,0.86,1.36,8.58
49.617089,3.64083,33.17,-1.12,1.03,9.61
49.616895,3.64117,33.18,-1.03,1.41,10.01
49.616895,3.64117,33.18,-1.53,1.62,11.71
49.616698,3.641512,33.23,-0.92,1.43,7.78
49.616698,3.641512,33.23,0.45,1.29,7.9
49.616499,3.641857,33.31,1.1,2.45,9.98
49.616499,3.641857,33.31,-0.14,1.47,10.62
49.6163,3.642201,33.37,-1.56,1.58,10.28
49.6163,3.642201,33.37,0.25,1.56,9.17
49.616098,3.642548,33.38,0.14,1.25,10.02
49.616098,3.642548,33.38,0.51,1.69,10.37
49.615897,3.642894,33.4,0.68,1.52,10.98
49.615897,3.642894,33.4,-0.72,1.47,9.93
49.615694,3.643239,33.38,0.04,0.92,11.12
49.615694,3.643239,33.38,-0.31,1.61,7.96
49.61549,3.643579,33.4,-1.17,1.55,11.56
49.61549,3.643579,33.4,-0.32,2.05,10.72
49.615285,3.643921,33.5,1.33,1.22,9.27
49.615285,3.643921,33.5,-1.36,1.26,9.69
49.615079,3.644262,33.68,0.86,1.18,11.35
49.615079,3.644262,33.68,-1.73,0.86,8.72
49.614871,3.644605,33.72,-0.49,2.48,10.59
49.614871,3.644605,33.72,-0.48,1.18,9.88
49.614664,3.644946,33.79,0.16,2.04,9.51
49.614664,3.644946,33.79,0.35,1.35,12.12
49.614457,3.645287,33.85,-1.03,1.14,8.84
49.614457,3.645287,33.85,0.8,1.9,10.31
49.614245,3.645634,33.88,1.2,1.39,8.82
49.614245,3.645634,33.88,-0.87,1.05,10.56
49.614038,3.645974,33.92,0.07,2.38,9.38
49.614038,3.645974,33.92,0.67,1.27,8.78
49.613826,3.646315,33.95,0.83,1.77,9.72
49.613826,3.646315,33.95,-1.73,1.54,11.58
49.613616,3.646656,33.96,-0.25,0.81,10.43
49.613616,3.646656,33.96,-0.22,2.32,9.53
49.613408,3.646989,33.94,-1.21,1.8,11.03
49.613408,3.646989,33.94,0.97,1.64,9.19
49.613195,3.647328,33.92,-1.25,1.5,11.09
49.613195,3.647328,33.92,0.0,0.86,8.83
49.612981,3.647661,33.86,-0.1,1.52,9.95
49.612769,3.647993,33.79,-0.67,1.18,9.84
49.612769,3.647993,33.79,-1.89,1.66,8.32
49.612556,3.648323,33.68,-1.7,2.15,10.59
49.612556,3.648323,33.68,-0.42,1.97,9.67
49.612343,3.648655,33.52,-1.46,2.73,10.13
49.612343,3.648655,33.52,-0.56,0.29,10.88
49.612129,3.648987,33.54,-1.98,1.13,8.9
49.612129,3.648987,33.54,-0.75,1.53,8.72
49.611919,3.649317,33.54,-0.54,1.79,9.62
49.611919,3.649317,33.54,-1.37,0.59,9.25
49.611709,3.649644,33.54,-0.15,1.91,11.03
49.611709,3.649644,33.54,-0.18,1.59,8.12
49.6115,3.649975,33.54,-0.67,1.87,11.11
49.6115,3.649975,33.54,-1.37,1.43,9.09
49.611288,3.650308,33.63,-0.44,1.0,10.07
49.611288,3.650308,33.63,-1.07,0.83,9.45
49.61107,3.65063,33.7,-1.02,2.13,9.04
49.61107,3.65063,33.7,-1.09,0.82,11.59
49.610854,3.65095,33.73,-0.77,2.28,10.36
49.610854,3.65095,33.73,-0.25,1.06,9.37
49.610639,3.651278,33.92,-0.32,1.07,10.21
49.610639,3.651278,33.92,-0.8,2.26,10.38
49.610422,3.651612,34.12,-0.21,0.41,10.64
49.610422,3.651612,34.12,0.57,1.2,9.93
49.610204,3.651957,34.32,-0.63,1.1,9.2
49.610204,3.651957,34.32,-0.25,1.02,9.95
49.609986,3.652296,34.45,-0.37,1.12,10.06
49.609986,3.652296,34.45,1.19,1.66,10.9
49.609771,3.652631,34.44,-0.66,1.04,8.84
49.609771,3.652631,34.44,-0.25,2.2,10.29
49.609553,3.652967,34.51,-0.42,1.93,10.86
49.609553,3.652967,34.51,-0.34,1.21,9.86
49.609335,3.653303,34.51,-0.9,0.83,10.78
49.609335,3.653303,34.51,-0.3,0.32,8.44
49.609114,3.653639,34.59,0.11,1.28,9.78
49.609114,3.653639,34.59,-0.44,1.93,11.24
49.608892,3.653978,34.62,-0.12,1.05,9.42
49.608892,3.653978,34.62,-1.64,1.73,10.2
49.608672,3.654316,34.66,0.23,1.23,10.81
49.608672,3.654316,34.66,0.68,0.67,10.16
49.608449,3.65466,34.68,-1.3,0.96,8.71
49.608228,3.654999,34.72,-0.35,1.99,9.82
49.608228,3.654999,34.72,-0.44,1.36,8.12
49.608006,3.655336,34.86,-1.02,1.37,8.41
49.608006,3.655336,34.86,0.71,1.69,13.01
49.607785,3.655682,34.96,-0.77,1.31,10.54
49.607785,3.655682,34.96,-0.11,1.78,10.04
49.607563,3.656023,35.14,-0.3,1.61,10.74
49.607563,3.656023,35.14,-0.08,1.55,11.16
49.607341,3.65637,35.31,-0.69,1.52,10.42
49.607341,3.65637,35.31,-1.04,1.52,11.54
49.607116,3.656711,35.4,-0.93,1.96,10.14
49.607116,3.656711,35.4,-0.14,1.58,9.06
49.606891,3.657058,35.41,-1.25,2.2,9.84
49.606891,3.657058,35.41,-0.5,1.63,8.46
49.606667,3.657399,35.05,-1.62,1.32,9.39
49.606667,3.657399,35.05,-1.99,1.36,11.65
49.606445,3.657741,34.76,-0.3,1.52,10.01
49.606445,3.657741,34.76,-0.65,1.18,10.41
49.606221,3.658078,34.78,-0.39,0.42,9.37
49.606221,3.658078,34.78,-0.25,-0.1,7.13
49.605998,3.658416,34.85,-0.1,0.32,8.75
49.605998,3.658416,34.85,-1.82,1.21,9.24
49.605772,3.658758,35.02,-1.35,1.54,10.49
49.605772,3.658758,35.02,-1.41,0.53,9.07
49.605544,3.6591,35.13,-0.69,0.25,8.27
49.605544,3.6591,35.13,-0.31,0.87,8.07
49.605316,3.659441,35.2,-0.59,0.71,10.11
49.605316,3.659441,35.2,-0.11,0.58,10.11
49.605088,3.659781,35.24,-0.24,1.51,10.25
49.605088,3.659781,35.24,0.14,1.47,8.86
49.60486,3.660121,34.76,-0.79,1.39,7.76
49.60486,3.660121,34.76,0.21,1.93,10.58
49.604638,3.660456,34.37,0.41,0.51,10.0
49.604638,3.660456,34.37,-0.54,1.27,9.31
49.604418,3.660779,34.01,-1.13,1.81,7.47
49.604418,3.660779,34.01,0.91,0.71,10.06
49.604198,3.661103,34.11,-0.9,1.38,8.41
49.604198,3.661103,34.11,-0.76,2.04,9.87
49.603976,3.661425,34.29,0.14,1.23,10.37
49.603976,3.661425,34.29,0.33,0.85,10.79
49.603753,3.661749,34.33,-0.52,0.88,8.4
49.603529,3.662075,34.38,-0.73,1.38,9.98
49.603529,3.662075,34.38,0.02,0.0,9.3
49.603303,3.662406,34.2,0.12,1.01,8.77
49.603303,3.662406,34.2,-0.69,1.44,9.09
49.603078,3.662728,34.2,0.34,1.62,14.89
49.603078,3.662728,34.2,0.12,1.49,11.69
49.60285,3.663052,34.33,-0.29,1.5,8.98
49.60285,3.663052,34.33,-0.76,2.17,11.15
49.602624,3.663376,34.46,0.18,1.78,9.73
49.602624,3.663376,34.46,-0.17,0.79,9.95
49.602403,3.663702,34.46,-1.36,0.7,9.16
49.602403,3.663702,34.46,-0.63,1.67,8.63
49.602179,3.664026,34.46,0.01,0.17,9.85
49.602179,3.664026,34.46,1.41,0.92,9.55
49.601953,3.664353,34.3,-0.28,0.49,10.51
49.601953,3.664353,34.3,-1.05,2.09,10.38
49.601728,3.664673,34.14,0.57,1.22,11.94
49.601728,3.664673,34.14,1.02,0.94,8.85
49.601502,3.664994,34.01,-0.45,1.02,12.35
49.601502,3.664994,34.01,0.34,0.89,9.67
49.601274,3.66531,33.91,-1.26,0.76,9.96
49.601274,3.66531,33.91,0.11,0.6,11.6
49.601049,3.665624,33.84,-0.34,0.82,7.66
49.601049,3.665624,33.84,-0.67,1.69,8.97
49.600822,3.665937,33.86,-1.13,0.64,8.14
49.600822,3.665937,33.86,-0.99,1.37,8.94
49.600596,3.666254,33.93,-1.09,2.87,9.81
49.600596,3.666254,33.93,-0.96,0.32,8.86
49.600371,3.666571,34.04,1.2,2.25,8.79
49.600371,3.666571,34.04,-0.85,2.38,11.8
49.600146,3.666889,33.99,-1.23,0.76,10.06
49.600146,3.666889,33.99,-0.88,2.14,9.05
49.599914,3.667195,33.97,-0.7,1.01,10.24
49.599914,3.667195,33.97,-0.12,-0.05,7.06
49.599684,3.667503,33.82,0.45,1.34,9.49
49.599684,3.667503,33.82,0.42,1.13,9.31
49.59945,3.66781,33.7,-1.29,1.22,10.13
49.59945,3.66781,33.7,0.57,1.02,10.99
49.599224,3.668122,33.66,-1.27,2.01,9.79
49.599224,3.668122,33.66,-0.77,-0.28,9.8
49.599001,3.668432,33.45,0.39,1.31,9.6
49.598777,3.668741,33.34,-0.46,0.82,9.23
49.598777,3.668741,33.34,-0.68,2.68,9.87
49.598551,3.669046,33.35,0.96,0.64,10.19
49.598551,3.669046,33.35,-0.95,0.64,11.94
49.59833,3.669348,33.33,0.16,1.8,9.98
49.59833,3.669348,33.33,-1.75,1.03,10.86
49.598106,3.669652,33.43,-0.71,1.03,9.22
49.598106,3.669652,33.43,-0.59,0.45,11.03
49.59788,3.669957,33.4,-0.88,1.36,8.02
49.59788,3.669957,33.4,-0.31,1.47,10.87
49.597655,3.670259,33.3,-1.32,2.46,11.49
49.597655,3.670259,33.3,-0.1,0.51,9.12
49.597431,3.670561,33.21,-0.33,2.02,9.91
49.597431,3.670561,33.21,-0.43,1.71,7.32
49.597206,3.670863,33.1,-1.5,0.83,12.05
49.597206,3.670863,33.1,-0.13,1.57,9.08
49.59698,3.671165,33.1,-0.46,1.24,9.39
49.59698,3.671165,33.1,-0.78,0.99,9.42
49.596755,3.671464,33.04,-1.18,1.49,7.5
49.596755,3.671464,33.04,-0.65,1.34,9.11
49.59653,3.671762,32.93,-1.38,0.64,10.26
49.59653,3.671762,32.93,-1.66,1.96,8.52
49.59631,3.672057,32.95,-0.56,1.8,10.64
49.59631,3.672057,32.95,0.71,1.02,9.64
49.596086,3.672359,32.96,-1.71,2.14,9.31
49.596086,3.672359,32.96,0.08,0.4,9.94
49.595862,3.672661,33.01,-1.39,0.08,10.26
49.595862,3.672661,33.01,-1.49,2.39,10.55
49.59564,3.672961,33.08,0.44,0.98,9.74
49.59564,3.672961,33.08,0.36,0.88,10.2
49.595416,3.673264,33.1,-1.41,2.04,7.98
49.595416,3.673264,33.1,-0.8,0.11,10.98
49.595191,3.673567,33.15,-0.88,2.11,9.5
49.595191,3.673567,33.15,-1.02,1.26,8.64
49.594966,3.673866,33.2,-1.36,1.2,10.06
49.594966,3.673866,33.2,-0.17,0.46,8.22
49.594741,3.674168,33.12,0.08,1.38,8.56
49.594741,3.674168,33.12,-1.21,1.85,10.37
49.594515,3.674469,33.16,-0.49,1.37,9.9
49.594287,3.674769,33.1,0.04,1.41,9.54
49.594287,3.674769,33.1,-0.77,2.37,9.67
49.594063,3.67507,33.08,0.4,1.02,11.03
49.594063,3.67507,33.08,0.29,0.23,9.97
49.593841,3.675375,33.12,-0.19,1.81,9.3
49.593841,3.675375,33.12,0.64,0.93,9.75
49.593618,3.675678,33.09,-1.66,1.07,10.22
49.593618,3.675678,33.09,-1.62,1.4,8.71
49.593392,3.675977,33.19,-1.07,1.22,10.93
49.593392,3.675977,33.19,0.45,2.34,11.33
49.593166,3.676276,33.27,-0.61,1.26,8.95
49.593166,3.676276,33.27,0.32,1.4,10.22
49.592943,3.676574,33.29,-0.52,0.82,9.93
49.592943,3.676574,33.29,-1.72,0.51,11.56
49.592719,3.676879,33.35,0.38,1.89,10.6
49.592719,3.676879,33.35,0.26,1.75,8.56
49.592493,3.677188,33.44,-1.0,2.34,10.12
49.592493,3.677188,33.44,-0.44,1.06,9.72
49.59227,3.677495,33.54,-2.09,2.02,12.07
49.59227,3.677495,33.54,0.92,1.05,9.66
49.592046,3.677806,33.62,-0.73,1.64,10.08
49.592046,3.677806,33.62,1.11,1.59,8.6
49.591821,3.678117,33.74,-0.14,1.63,10.83
49.591821,3.678117,33.74,-0.46,1.47,10.57
49.591598,3.678432,33.72,-0.76,0.99,9.73
49.591598,3.678432,33.72,-1.77,1.58,10.52
49.591375,3.678748,33.74,0.69,1.67,8.7
49.591375,3.678748,33.74,-1.23,1.69,10.63
49.591148,3.679066,33.78,-0.44,1.61,10.38
49.591148,3.679066,33.78,-1.45,1.13,10.05
49.590924,3.679382,33.81,-0.74,2.33,11.1
49.590924,3.679382,33.81,-0.75,0.63,10.27
49.590704,3.679699,33.92,-0.56,2.44,10.21
49.590704,3.679699,33.92,-0.46,0.91,9.14
49.590481,3.680021,33.93,-0.31,0.9,9.94
49.590481,3.680021,33.93,-1.51,2.26,10.8
49.590261,3.680346,34.06,-0.36,1.08,10.87
49.590261,3.680346,34.06,0.36,1.13,9.46
49.590039,3.680674,34.13,-1.37,1.2,10.85
49.590039,3.680674,34.13,0.12,1.5,9.59
49.58982,3.681002,34.17,-0.71,1.73,9.23
49.589604,3.681335,34.15,0.29,2.3,11.56
49.589604,3.681335,34.15,-0.39,1.36,12.22
49.589389,3.681666,34.15,-1.27,1.52,10.26
49.589389,3.681666,34.15,-0.63,1.83,10.34
49.589173,3.681996,34.24,-1.1,1.45,10.7
49.589173,3.681996,34.24,-2.26,0.79,8.32
49.588958,3.682338,34.31,-0.56,2.04,9.73
49.588958,3.682338,34.31,0.18,2.15,10.42
49.588737,3.682676,34.27,-0.76,1.15,8.59
49.588737,3.682676,34.27,-1.14,1.4,9.24
49.588513,3.683011,34.24,-1.45,1.43,9.5
49.588513,3.683011,34.24,-0.23,0.97,10.53
49.588295,3.683347,34.01,-1.0,1.17,9.74
49.588295,3.683347,34.01,-0.69,1.86,9.49
49.588083,3.683678,33.87,-0.76,1.09,11.17
49.588083,3.683678,33.87,-0.68,1.08,9.39
49.587868,3.684004,33.73,-0.66,0.63,10.06
49.587868,3.684004,33.73,-0.52,1.14,8.49
49.58766,3.684338,33.67,-0.37,0.61,11.65
49.58766,3.684338,33.67,-0.48,1.64,9.62
49.58745,3.684674,33.38,-0.86,-0.01,11.39
49.58745,3.684674,33.38,-0.2,1.47,9.32
49.587241,3.685013,33.18,-0.6,0.7,10.29
49.587241,3.685013,33.18,-1.52,1.71,11.23
49.587036,3.685348,32.99,-1.83,1.43,8.94
49.587036,3.685348,32.99,0.23,2.01,11.9
49.586834,3.685689,32.96,0.59,1.95,10.92
49.586834,3.685689,32.96,-0.82,1.05,8.2
49.586632,3.686026,32.93,-0.32,0.98,9.17
49.586632,3.686026,32.93,-0.92,1.25,11.11
49.586433,3.686352,32.95,-0.52,0.53,8.98
49.586433,3.686352,32.95,-0.35,0.84,9.86
49.586232,3.686692,32.99,-1.08,1.81,11.1
49.586232,3.686692,32.99,-1.02,1.03,9.14
49.586031,3.687031,33.0,0.68,1.24,11.38
49.586031,3.687031,33.0,-0.42,0.61,10.85
49.585832,3.687369,32.97,-0.99,1.38,9.24
49.585832,3.687369,32.97,-0.82,1.73,10.34
49.585631,3.687709,32.94,-0.18,1.67,11.49
49.585631,3.687709,32.94,0.1,1.18,7.6
49.585433,3.688048,32.82,-0.08,1.0,10.6
49.585235,3.688389,32.82,-0.71,1.01,10.76
49.585235,3.688389,32.82,-0.76,1.76,10.4
49.585038,3.68873,32.9,-0.99,0.91,9.84
49.585038,3.68873,32.9,0.9,1.79,9.76
49.584846,3.68907,32.91,0.07,1.84,10.41
49.584846,3.68907,32.91,-0.63,1.65,9.38
49.584652,3.689413,32.83,0.65,1.65,9.33
49.584652,3.689413,32.83,-0.5,1.28,9.81
49.584461,3.689755,32.78,-0.98,1.79,9.66
49.584461,3.689755,32.78,-0.31,1.58,9.27
49.58427,3.690096,32.77,0.23,0.79,9.06
49.58427,3.690096,32.77,0.6,1.33,12.09
49.584078,3.690435,32.67,0.02,1.41,10.18
49.584078,3.690435,32.67,-0.76,1.11,9.12
49.583884,3.690775,32.44,-0.39,0.98,9.69
49.583884,3.690775,32.44,-0.21,1.03,10.69
49.583692,3.691116,32.41,-0.46,0.65,10.75
49.583692,3.691116,32.41,0.61,1.13,10.16
49.583505,3.691451,32.28,-1.52,1.32,8.95
49.583505,3.691451,32.28,-0.99,0.81,7.95
49.583317,3.691796,32.26,-1.13,1.65,8.65
49.583317,3.691796,32.26,0.32,1.12,7.78
49.583133,3.692137,32.15,-0.28,1.77,8.5
49.583133,3.692137,32.15,-0.53,0.41,7.82
49.582945,3.692473,32.09,-0.3,1.18,10.71
49.582945,3.692473,32.09,0.62,1.28,10.87
49.582762,3.692819,32.09,-1.08,1.13,10.34
49.582762,3.692819,32.09,-1.73,1.39,10.43
49.582578,3.693163,32.17,-1.73,1.08,12.32
49.582578,3.693163,32.17,0.54,2.29,11.63
49.582394,3.693503,32.29,-0.25,1.42,9.05
49.582394,3.693503,32.29,0.15,0.94,10.58
49.582211,3.693845,32.43,-0.59,0.88,10.19
49.582211,3.693845,32.43,-0.87,1.64,11.44
49.582021,3.694195,32.6,-1.18,1.65,9.96
49.582021,3.694195,32.6,-1.62,1.82,10.19
49.581832,3.694541,32.62,-0.35,1.38,8.76
49.581832,3.694541,32.62,-1.1,2.3,10.35
49.581642,3.694887,32.78,-0.26,1.28,10.81
49.581642,3.694887,32.78,-1.02,1.7,9.52
49.58145,3.695231,32.89,0.2,1.07,9.04
49.581265,3.695578,32.97,-0.44,0.85,11.3
49.581265,3.695578,32.97,-0.84,1.53,9.08
49.581078,3.695927,32.93,0.45,0.13,11.32
49.581078,3.695927,32.93,-0.6,0.89,12.24
49.580889,3.696277,32.92,-0.45,1.85,9.18
49.580889,3.696277,32.92,-0.51,1.81,9.47
49.580698,3.696628,33.02,-0.88,1.34,10.83
49.580698,3.696628,33.02,0.1,1.5,9.3
49.580509,3.696979,32.95,-1.07,1.26,9.17
49.580509,3.696979,32.95,0.17,0.39,11.16
49.580319,3.697328,32.87,-0.96,2.09,10.86
49.580319,3.697328,32.87,-0.98,1.76,9.47
49.58013,3.697674,32.82,-0.37,0.92,9.69
49.58013,3.697674,32.82,-1.01,1.83,11.65
49.579943,3.698022,32.87,-1.21,2.34,11.49
49.579943,3.698022,32.87,-0.77,0.97,9.02
49.579755,3.698375,33.1,-0.9,1.71,11.58
49.579755,3.698375,33.1,-1.17,1.24,10.86
49.579568,3.698724,32.9,-0.38,0.19,9.84
49.579568,3.698724,32.9,-0.85,0.53,6.89
49.579376,3.69907,32.78,-0.79,2.0,9.51
49.579376,3.69907,32.78,-0.44,1.76,10.39
49.579186,3.699415,32.67,0.6,1.08,8.87
49.579186,3.699415,32.67,0.08,0.44,9.85
49.578997,3.699763,32.59,-1.2,1.04,12.03
49.578997,3.699763,32.59,-1.13,1.23,9.71
49.578808,3.700107,32.36,-0.55,1.23,7.59
49.578808,3.700107,32.36,-0.9,0.63,9.53
49.578621,3.700451,32.22,-0.86,1.82,8.62
49.578621,3.700451,32.22,-0.41,0.96,8.32
49.578441,3.700789,32.1,-0.86,0.59,10.18
49.578441,3.700789,32.1,-1.22,1.57,11.58
49.578254,3.701133,32.16,-0.53,1.07,10.28
49.578254,3.701133,32.16,-1.77,1.8,10.84
49.578067,3.701476,32.21,0.74,0.78,9.06
49.578067,3.701476,32.21,-1.23,1.58,9.23
49.577879,3.701821,32.19,-0.54,1.55,8.7
49.577879,3.701821,32.19,-0.14,1.45,8.56
49.577694,3.702161,32.24,-0.34,1.2,8.07
49.577694,3.702161,32.24,0.19,0.63,11.17
49.577508,3.702502,32.48,-0.54,1.69,11.68
49.577321,3.702845,32.5,-1.66,1.94,10.26
49.577321,3.702845,32.5,-1.07,1.17,8.02
49.577132,3.703186,32.54,-1.04,0.98,8.71
49.577132,3.703186,32.54,0.06,0.82,10.93
49.576945,3.703535,32.69,-1.09,0.73,10.8
49.576945,3.703535,32.69,-0.04,1.46,10.23
49.576755,3.703884,32.75,0.19,1.5,9.99
49.576755,3.703884,32.75,0.31,1.09,9.74
49.576568,3.704231,32.76,-0.38,2.06,11.88
49.576568,3.704231,32.76,-1.08,1.31,9.62
49.576379,3.704581,32.77,-0.05,1.74,7.66
49.576379,3.704581,32.77,-0.13,1.55,7.87
49.576191,3.70493,32.74,0.35,1.32,10.4
49.576191,3.70493,32.74,-0.59,1.55,9.47
49.576003,3.70528,32.73,-0.18,1.11,9.06
49.576003,3.70528,32.73,-0.24,0.96,9.41
49.575813,3.70563,32.73,-0.14,1.03,11.63
49.575813,3.70563,32.73,-0.19,1.63,8.13
49.575626,3.705976,32.65,0.29,1.78,10.07
49.575626,3.705976,32.65,-0.24,2.26,9.16
49.57544,3.706321,32.57,0.17,1.26,12.1
49.57544,3.706321,32.57,-1.19,1.66,10.37
49.575254,3.706663,32.61,-1.52,2.4,8.89
49.575254,3.706663,32.61,-0.22,1.73,9.77
49.575065,3.70701,32.63,-0.87,0.98,9.62
49.575065,3.70701,32.63,-1.82,2.15,8.62
49.574877,3.707356,32.69,-0.4,1.78,9.45
49.574877,3.707356,32.69,-0.17,1.26,8.71
49.574689,3.707704,32.77,-0.78,1.15,9.12
49.574689,3.707704,32.77,-0.5,1.54,8.95
49.574501,3.708054,32.84,0.22,1.62,9.06
49.574501,3.708054,32.84,-1.23,0.67,12.44
49.574316,3.708405,32.79,-0.28,0.68,9.53
49.574316,3.708405,32.79,-1.39,2.14,10.46
49.574129,3.708761,32.79,0.11,0.99,9.59
49.574129,3.708761,32.79,0.11,1.3,11.04
49.573944,3.709112,32.67,-0.95,1.36,10.23
49.573944,3.709112,32.67,-1.7,1.5,9.27
49.573759,3.70946,32.73,-0.89,1.8,10.28
49.573759,3.70946,32.73,0.27,1.74,9.45
49.573572,3.709811,32.8,-0.35,1.78,10.73
49.573387,3.710167,32.94,-0.78,1.86,9.62
49.573387,3.710167,32.94,1.07,1.22,10.78
49.573205,3.710522,33.08,-0.18,2.21,10.03
49.573205,3.710522,33.08,-0.46,2.18,9.37
49.573021,3.710882,33.26,-0.07,1.36,10.09
49.573021,3.710882,33.26,-1.55,1.79,10.29
49.572832,3.711238,33.35,-0.44,1.09,9.28
49.572832,3.711238,33.35,-0.57,2.47,11.36
49.572648,3.7116,33.41,-0.65,-0.23,9.57
49.572648,3.7116,33.41,-0.76,1.73,11.78
49.572468,3.711968,33.07,-1.18,2.01,10.59
49.572468,3.711968,33.07,0.27,0.41,9.54
49.572289,3.712331,32.79,-0.17,1.01,10.03
49.572289,3.712331,32.79,-0.42,1.66,10.67
49.572115,3.712697,32.52,-0.99,1.93,8.57
49.572115,3.712697,32.52,-0.68,1.44,10.06
49.571941,3.71306,32.49,-0.43,1.06,8.93
49.571941,3.71306,32.49,-2.02,1.17,10.95
49.571774,3.713427,32.5,-0.54,1.74,10.07
49.571774,3.713427,32.5,-0.95,2.03,9.72
49.571605,3.713797,32.53,-0.9,1.34,9.75
49.571605,3.713797,32.53,-0.13,1.07,9.81
49.571436,3.714168,32.57,0.94,1.36,10.25
49.571436,3.714168,32.57,-0.53,1.63,10.15
49.571267,3.714538,32.64,-0.32,1.81,9.8
49.571267,3.714538,32.64,-0.12,1.09,10.24
49.571101,3.714908,32.84,-1.21,0.5,10.11
49.571101,3.714908,32.84,-1.51,1.5,9.88
49.570939,3.715285,32.85,0.34,1.75,9.76
49.570939,3.715285,32.85,-0.28,1.26,9.3
49.570774,3.715664,32.92,-0.83,1.62,10.05
49.570774,3.715664,32.92,-1.26,2.27,9.57
49.570614,3.716045,32.86,-0.68,0.85,9.07
49.570614,3.716045,32.86,-1.19,0.64,9.41
49.570453,3.71643,32.87,-0.32,1.72,8.58
49.570453,3.71643,32.87,-0.73,1.62,8.65
49.570289,3.71681,32.87,0.11,0.77,11.01
49.570289,3.71681,32.87,-0.78,1.78,9.89
49.570129,3.717193,32.9,-0.39,1.61,9.2
49.570129,3.717193,32.9,0.91,0.94,10.27
49.569974,3.717581,33.08,-0.91,1.35,10.93
49.569974,3.717581,33.08,-1.86,0.75,9.8
49.569819,3.717965,33.23,-1.22,1.39,9.28
49.569666,3.718356,33.32,-1.76,2.83,10.39
49.569666,3.718356,33.32,0.6,-0.2,10.32
49.569515,3.718755,33.39,0.47,3.51,8.65
49.569515,3.718755,33.39,-0.94,1.03,11.26
49.569362,3.719156,33.49,-0.62,3.29,9.08
49.569362,3.719156,33.49,-0.15,0.39,10.59
49.569212,3.719561,33.61,-1.57,0.91,9.62
49.569212,3.719561,33.61,-1.36,0.44,9.88
49.569064,3.719969,33.58,0.04,2.26,8.48
49.569064,3.719969,33.58,-1.05,0.46,9.91
49.56892,3.720373,33.53,-0.27,2.51,8.13
49.56892,3.720373,33.53,0.15,-0.15,10.16
49.568771,3.720781,33.26,-0.45,-0.41,9.89
49.568771,3.720781,33.26,0.26,2.07,9.56
49.56863,3.721184,33.08,-0.57,0.43,11.37
49.56863,3.721184,33.08,-1.2,1.26,10.53
49.568489,3.721583,32.83,-0.58,1.57,8.89
49.568489,3.721583,32.83,0.45,-0.35,10.54
49.568352,3.721979,32.59,0.34,0.25,9.89
49.568352,3.721979,32.59,-0.79,0.71,9.58
49.56822,3.722376,32.33,-0.99,2.42,9.17
49.56822,3.722376,32.33,-1.47,1.7,9.61
49.568089,3.72277,32.26,-1.45,2.01,9.32
49.568089,3.72277,32.26,0.31,0.8,9.73
49.567959,3.723165,32.23,-0.61,1.56,8.46
49.567959,3.723165,32.23,0.26,0.76,10.64
49.567829,3.723559,32.37,-1.58,1.81,10.22
49.567829,3.723559,32.37,-1.23,2.08,9.84
49.567699,3.723961,32.52,-0.92,2.24,10.91
49.567699,3.723961,32.52,0.03,0.95,9.28
49.567566,3.724368,32.57,-0.65,1.11,8.97
49.567566,3.724368,32.57,-0.96,2.59,9.96
49.567439,3.724779,32.69,-1.84,2.47,11.03
49.567439,3.724779,32.69,-1.88,1.15,6.68
49.567317,3.725191,32.84,0.08,1.11,11.41
49.567317,3.725191,32.84,-2.23,0.23,10.03
49.567195,3.725608,32.88,-0.07,1.44,9.73
49.567195,3.725608,32.88,-0.3,1.4,9.68
49.567079,3.726019,32.94,-0.72,1.73,10.13
49.567079,3.726019,32.94,-1.5,1.81,9.88
49.566963,3.726439,32.99,-0.54,1.91,9.4
49.56685,3.72686,33.02,-1.14,0.78,11.63
49.56685,3.72686,33.02,-0.52,2.29,10.55
49.566739,3.727285,33.16,-0.31,0.75,10.78
49.566739,3.727285,33.16,-0.59,2.6,10.33
49.566633,3.727707,33.25,-0.65,1.9,9.17
49.566633,3.727707,33.25,1.36,1.11,9.14
49.566519,3.728138,33.29,-0.84,1.77,11.48
49.566519,3.728138,33.29,0.65,1.37,11.4
49.566408,3.728569,33.41,0.21,1.25,9.12
49.566408,3.728569,33.41,-0.8,0.53,9.2
49.566297,3.728999,33.53,-1.36,2.18,9.96
49.566297,3.728999,33.53,1.41,1.63,9.5
49.56619,3.729433,33.53,-0.54,1.16,10.68
49.56619,3.729433,33.53,-0.4,0.52,10.5
49.566085,3.729866,33.49,-1.45,1.58,9.99
49.566085,3.729866,33.49,-0.63,0.81,8.0
49.565981,3.730297,33.39,-0.9,1.31,10.97
49.565981,3.730297,33.39,-0.19,1.02,9.23
49.565875,3.730731,33.22,-0.49,0.18,9.97
49.565875,3.730731,33.22,-1.41,1.63,8.39
49.565769,3.73116,32.96,-0.56,0.13,7.93
49.565769,3.73116,32.96,-0.41,1.35,12.22
49.565673,3.73159,32.66,-1.45,1.27,13.07
49.565673,3.73159,32.66,-0.39,2.04,10.28
49.565578,3.732014,32.49,-0.78,1.26,8.67
49.565578,3.732014,32.49,-1.67,1.53,9.32
49.565485,3.732437,32.35,-0.94,0.49,9.13
49.565485,3.732437,32.35,0.46,0.91,11.31
49.565398,3.732862,32.28,0.25,0.65,10.0
49.565398,3.732862,32.28,-1.15,1.81,10.69
49.565316,3.733285,32.33,-1.08,1.4,8.56
49.565316,3.733285,32.33,-0.9,1.07,8.46
49.565231,3.733712,32.3,-0.63,2.32,9.05
49.565231,3.733712,32.3,0.22,1.8,9.69
49.565142,3.734141,32.26,-0.54,1.41,10.22
49.565142,3.734141,32.26,0.19,1.15,11.68
49.565054,3.734571,32.21,-0.68,1.61,10.95
49.565054,3.734571,32.21,-0.59,1.53,10.65
49.564978,3.735,32.11,0.1,1.15,10.92
49.564978,3.735,32.11,-0.48,2.16,11.13
49.564904,3.735427,32.13,-1.05,1.21,10.43
49.564822,3.735858,32.14,-1.82,0.92,10.17
49.564822,3.735858,32.14,-0.74,1.23,7.66
49.564751,3.736285,32.14,-0.7,1.32,9.33
49.564751,3.736285,32.14,-0.12,1.54,8.28
49.564678,3.736717,32.18,-1.22,2.01,7.94
49.564678,3.736717,32.18,0.6,1.41,10.09
49.564605,3.737148,32.27,-0.69,0.84,9.11
49.564605,3.737148,32.27,-0.36,1.26,10.67
49.564537,3.737584,32.34,-0.33,2.2,9.94
49.564537,3.737584,32.34,-0.8,2.37,11.17
49.564467,3.738022,32.47,-0.55,1.75,8.86
49.564467,3.738022,32.47,-0.72,1.49,8.48
49.564402,3.73846,32.62,0.17,1.22,9.62
49.564402,3.73846,32.62,-0.09,1.91,10.66
49.564338,3.738905,32.79,-1.24,1.67,8.38
49.564338,3.738905,32.79,-1.21,2.04,10.22
49.564274,3.73935,32.97,-1.38,0.89,9.22
49.564274,3.73935,32.97,-1.12,1.37,9.06
49.564214,3.739794,33.05,-1.23,0.65,10.15
49.564214,3.739794,33.05,-0.05,1.55,10.5
49.56415,3.740234,33.07,-0.41,1.49,9.06
49.56415,3.740234,33.07,-0.86,0.26,9.45
49.564092,3.740679,33.14,-0.89,1.21,8.78
49.564092,3.740679,33.14,-0.19,0.69,9.18
49.564034,3.741127,33.16,-1.11,1.64,10.67
49.564034,3.741127,33.16,-0.29,0.83,8.17
49.563979,3.741573,33.11,-0.77,1.73,13.09
49.563979,3.741573,33.11,-0.77,1.99,10.94
49.563927,3.74202,32.88,-0.27,1.28,9.9
49.563927,3.74202,32.88,-0.64,1.29,9.91
49.56388,3.742475,32.95,-1.55,2.53,10.63
49.56388,3.742475,32.95,0.45,0.45,9.24
49.563834,3.742929,32.92,-1.86,0.83,12.11
49.563834,3.742929,32.92,-0.3,1.02,9.94
49.56379,3.743379,32.83,-1.06,1.1,9.82
49.56379,3.743379,32.83,0.32,1.16,10.75
49.563747,3.743825,32.7,0.2,0.79,11.09
49.563704,3.744272,32.71,-1.88,1.34,9.33
49.563704,3.744272,32.71,-0.91,1.36,9.19
49.56366,3.744715,32.66,-0.15,0.79,11.46
49.56366,3.744715,32.66,0.33,1.45,10.25
49.563623,3.74516,32.6,-1.58,1.85,10.58
49.563623,3.74516,32.6,-0.25,2.06,11.02
49.563586,3.745607,32.56,-1.05,1.68,9.03
49.563586,3.745607,32.56,-0.27,0.43,10.13
49.563549,3.746058,32.52,-0.93,0.67,9.56
49.563549,3.746058,32.52,0.43,1.92,10.68
49.563517,3.746504,32.48,-0.11,1.2,8.89
49.563517,3.746504,32.48,-1.66,1.66,7.82
49.563483,3.746948,32.43,-1.4,2.18,9.58
49.563483,3.746948,32.43,-0.42,0.19,8.98
49.56345,3.747393,32.41,-1.84,1.0,11.36
49.56345,3.747393,32.41,-0.8,1.53,9.29
49.563419,3.747836,32.45,-0.11,1.37,9.84
49.563419,3.747836,32.45,-1.02,1.62,9.53
49.563391,3.748283,32.48,-1.28,1.78,9.55
49.563391,3.748283,32.48,-0.57,0.8,11.07
49.563368,3.74873,32.52,-1.75,0.66,9.32
49.563368,3.74873,32.52,-1.01,1.37,11.82
49.563344,3.749181,32.55,-0.42,0.75,8.55
49.563344,3.749181,32.55,-0.43,1.17,11.01
49.563327,3.749632,32.55,-1.59,1.52,10.98
49.563327,3.749632,32.55,-0.15,0.79,9.56
49.563309,3.750086,32.54,-0.82,1.38,9.96
49.563309,3.750086,32.54,-1.2,0.55,8.21
49.563296,3.750538,32.58,0.3,1.17,11.99
49.563296,3.750538,32.58,0.33,0.05,12.17
49.563285,3.750986,32.57,-0.55,2.19,10.02
49.563285,3.750986,32.57,-0.24,1.78,9.25
49.563272,3.751439,32.64,-1.39,1.85,9.53
49.563272,3.751439,32.64,0.69,1.17,10.85
49.563259,3.75189,32.79,-0.58,1.87,8.18
49.563259,3.75189,32.79,-0.1,1.31,10.18
49.563253,3.752343,32.99,-0.83,0.99,11.25
49.563253,3.752343,32.99,-0.95,1.66,9.67
49.563244,3.752799,33.08,-0.34,1.37,9.64
49.563244,3.752799,33.08,-0.18,1.36,10.86
49.563241,3.753256,33.13,-1.28,1.83,10.09
49.563237,3.753711,33.1,-0.64,1.65,7.58
49.563237,3.753711,33.1,0.51,1.49,10.87
49.563237,3.754169,33.11,-1.5,1.17,8.49
49.563237,3.754169,33.11,-0.01,0.79,9.73
49.563238,3.754626,33.01,-1.13,1.49,10.55
49.563238,3.754626,33.01,-0.68,1.41,9.45
49.563234,3.755078,32.81,0.19,1.19,9.27
49.563234,3.755078,32.81,-0.58,0.8,11.36
49.563236,3.755529,32.69,-1.25,1.65,9.08
49.563236,3.755529,32.69,-1.46,1.18,8.25
49.563246,3.755977,32.77,0.36,1.31,9.95
49.563246,3.755977,32.77,-1.04,1.63,11.26
49.563261,3.75643,32.78,-1.16,1.91,9.32
49.563261,3.75643,32.78,0.36,2.01,9.19
49.56327,3.756882,32.7,-1.62,0.7,9.14
49.56327,3.756882,32.7,-0.98,1.2,11.85
49.56328,3.757333,32.67,-1.75,1.13,9.04
49.56328,3.757333,32.67,0.06,1.69,7.94
49.563291,3.757784,32.67,-0.28,1.06,8.85
49.563291,3.757784,32.67,0.15,0.89,11.4
49.563307,3.758233,32.6,-1.02,1.75,8.39
49.563307,3.758233,32.6,-0.96,1.17,7.5
49.563315,3.758684,32.46,-0.58,1.42,7.99
49.563315,3.758684,32.46,-1.27,0.14,9.31
49.563326,3.759136,32.27,0.25,0.92,8.57
49.563326,3.759136,32.27,-0.17,1.42,10.26
49.563342,3.759574,32.07,-0.67,0.84,8.79
49.563342,3.759574,32.07,-0.59,1.38,11.3
49.563359,3.76001,31.91,-0.76,0.64,10.07
49.563359,3.76001,31.91,-0.8,1.31,10.26
49.563372,3.760451,31.74,-2.0,0.33,10.57
49.563372,3.760451,31.74,-0.99,1.38,11.25
49.563389,3.760887,31.63,0.58,1.26,9.82
49.563389,3.760887,31.63,0.2,0.74,10.62
49.56341,3.76132,31.71,1.23,1.2,12.34
49.56341,3.76132,31.71,-0.06,1.62,8.52
49.563423,3.761761,31.84,0.1,0.9,8.31
49.563423,3.761761,31.84,0.3,1.43,10.56
49.563438,3.762207,32.08,0.09,0.91,10.46
49.563453,3.76266,32.25,-1.2,1.27,11.13
49.563453,3.76266,32.25,-0.46,1.45,11.12
49.563472,3.763105,32.36,-1.04,1.84,8.47
49.563472,3.763105,32.36,-0.01,1.78,10.12
49.56349,3.763554,32.46,-0.57,1.2,8.4
49.56349,3.763554,32.46,0.07,0.84,10.59
49.563508,3.764006,32.49,-0.25,0.83,12.49
49.563508,3.764006,32.49,0.11,1.93,9.91
49.563531,3.76445,32.5,-0.77,1.78,9.64
49.563531,3.76445,32.5,-0.8,1.47,8.71
49.563554,3.764902,32.48,0.74,1.03,9.48
49.563554,3.764902,32.48,0.02,1.48,10.78
49.56357,3.765345,32.53,-0.77,1.74,10.29
49.56357,3.765345,32.53,-0.26,1.47,9.78
49.563585,3.765792,32.49,-0.99,1.0,8.83
49.563585,3.765792,32.49,-0.22,1.03,8.49
49.563596,3.766237,32.37,0.66,0.87,9.74
49.563596,3.766237,32.37,-1.06,1.37,11.94
49.56361,3.766679,32.41,-1.32,1.05,11.52
49.56361,3.766679,32.41,0.16,1.69,9.7
49.563624,3.767124,32.52,-0.62,1.38,8.02
49.563624,3.767124,32.52,-0.63,1.23,10.33
49.563636,3.767579,32.63,0.27,-0.11,11.31
49.563636,3.767579,32.63,-1.24,1.49,8.32
49.563658,3.768031,32.7,-0.26,1.89,8.63
49.563658,3.768031,32.7,-0.5,1.08,7.97
49.563673,3.768485,32.72,0.08,1.47,11.38
49.563673,3.768485,32.72,-0.29,2.15,9.2
49.563687,3.768934,32.77,-0.71,1.49,8.1
49.563687,3.768934,32.77,0.34,0.52,11.12
49.563699,3.76939,32.78,-1.86,2.0,10.39
49.563699,3.76939,32.78,-1.27,1.24,8.64
49.563707,3.769841,32.87,-0.93,0.91,8.9
49.563707,3.769841,32.87,-1.32,2.08,10.11
49.563717,3.770295,32.92,-0.27,1.19,7.95
49.563717,3.770295,32.92,-0.63,1.31,12.58
49.563725,3.770747,33.0,-0.99,1.49,11.16
49.563725,3.770747,33.0,-0.46,1.17,8.71
49.563733,3.771203,33.05,-0.26,1.38,10.52
49.56374,3.771661,33.08,-1.23,2.29,11.51
49.56374,3.771661,33.08,0.23,1.07,9.59
49.563743,3.77212,33.13,0.18,2.19,11.73
49.563743,3.77212,33.13,1.04,1.7,9.85
49.563747,3.772581,33.21,1.11,1.07,10.62
49.563747,3.772581,33.21,-0.16,1.53,8.83
49.563743,3.773045,33.29,-0.39,1.94,9.15
49.563743,3.773045,33.29,-0.19,1.71,11.67
49.563739,3.77351,33.33,-1.1,1.5,8.26
49.563739,3.77351,33.33,0.23,0.65,9.42
49.563739,3.773974,33.33,-0.8,1.84,10.41
49.563739,3.773974,33.33,-0.2,1.28,10.64
49.563733,3.774434,33.3,-1.47,2.02,8.82
49.563733,3.774434,33.3,-0.56,0.29,8.25
49.563729,3.774902,33.34,-0.9,2.15,11.75
49.563729,3.774902,33.34,-1.37,1.44,8.65
49.563717,3.775365,33.37,-0.74,1.99,10.28
49.563717,3.775365,33.37,-0.81,1.72,8.57
49.563709,3.775824,33.38,-0.2,0.41,10.92
49.563709,3.775824,33.38,0.31,1.58,9.5
49.563697,3.776283,33.33,-0.05,1.04,11.92
49.563697,3.776283,33.33,-0.5,1.48,11.18
49.563683,3.776746,33.36,-0.44,1.02,8.25
49.563683,3.776746,33.36,-1.23,2.11,11.01
49.56367,3.777204,33.35,0.31,0.59,10.03
49.56367,3.777204,33.35,-0.17,1.42,12.72
49.563655,3.777663,33.31,-1.31,1.07,9.57
49.563655,3.777663,33.31,-0.27,1.52,9.96
49.563635,3.77812,33.29,-1.41,1.61,9.24
49.563635,3.77812,33.29,0.83,0.81,10.1
49.563609,3.778572,33.21,-0.21,2.12,10.45
49.563609,3.778572,33.21,-0.17,0.77,9.92
49.563585,3.779026,33.27,0.68,1.25,10.72
49.563585,3.779026,33.27,-0.22,1.22,8.8
49.563558,3.779481,33.14,-0.53,1.43,10.16
49.563558,3.779481,33.14,-0.02,1.62,12.01
49.563532,3.779935,32.99,-0.82,1.57,8.96
49.563532,3.779935,32.99,-0.07,1.14,7.83
49.563502,3.780389,32.91,-0.14,1.31,10.45
49.563502,3.780389,32.91,-0.45,0.96,9.28
49.563463,3.780841,32.93,-1.28,1.17,9.38
49.563463,3.780841,32.93,-0.89,1.03,11.86
49.563425,3.781293,32.98,0.6,1.39,8.28
49.563392,3.781746,32.99,0.22,1.92,9.08
49.563392,3.781746,32.99,-0.54,1.32,10.99
49.56336,3.782199,32.94,-1.02,1.27,8.69
49.56336,3.782199,32.94,0.73,1.24,8.98
49.56333,3.782658,32.78,-0.46,0.54,10.59
49.56333,3.782658,32.78,-1.0,1.77,11.35
49.563304,3.783112,32.68,0.68,1.55,9.3
49.563304,3.783112,32.68,-0.66,1.37,9.43
49.563272,3.783564,32.66,0.61,0.73,11.19
49.563272,3.783564,32.66,-0.6,2.2,10.23
49.563232,3.784017,32.6,-0.92,1.9,10.96
49.563232,3.784017,32.6,0.79,2.31,9.65
49.563186,3.784457,32.44,0.14,1.13,10.54
49.563186,3.784457,32.44,-0.26,1.15,11.26
49.563138,3.784896,32.58,-1.02,1.89,10.0
49.563138,3.784896,32.58,0.18,2.06,7.96
49.56309,3.785339,32.54,0.05,1.49,8.54
49.56309,3.785339,32.54,-0.17,0.98,9.64
49.563038,3.78578,32.47,0.19,0.95,10.98
49.563038,3.78578,32.47,-0.43,1.29,10.09
49.562983,3.786228,32.36,-0.29,1.76,10.06
49.562983,3.786228,32.36,0.27,1.46,9.2
49.562926,3.786671,32.26,0.41,1.02,7.92
49.562926,3.786671,32.26,0.82,1.88,9.11
49.56287,3.787105,32.21,0.02,1.37,9.98
49.56287,3.787105,32.21,-0.57,0.53,10.88
49.562809,3.78754,32.21,-0.64,1.57,9.68
49.562809,3.78754,32.21,-0.29,1.06,11.0
49.562741,3.787969,32.22,-1.62,1.82,11.05
49.562741,3.787969,32.22,-0.7,1.83,9.89
49.562671,3.788402,32.26,-1.12,1.53,10.04
49.562671,3.788402,32.26,-0.27,1.85,9.57
49.562601,3.788835,32.34,0.3,1.29,10.7
49.562601,3.788835,32.34,-0.49,0.62,10.85
49.56253,3.78927,32.4,-0.22,1.06,9.9
49.56253,3.78927,32.4,-1.47,2.41,10.45
49.562462,3.789705,32.44,-0.22,1.56,10.91
49.562462,3.789705,32.44,0.05,1.59,7.96
49.562395,3.790141,32.44,0.46,0.94,8.83
49.562326,3.790578,32.45,0.38,1.19,9.57
49.562326,3.790578,32.45,1.32,0.87,11.42
49.562248,3.791015,32.48,-1.17,1.96,9.66
49.562248,3.791015,32.48,-0.06,1.67,10.9
49.562168,3.79145,32.52,0.65,1.71,9.9
49.562168,3.79145,32.52,-0.72,0.14,10.21
49.562089,3.791883,32.56,-0.37,0.24,10.16
49.562089,3.791883,32.56,-0.5,2.12,9.94
49.562009,3.792316,32.65,0.27,1.29,8.97
49.562009,3.792316,32.65,-0.19,1.18,9.22
49.561926,3.792749,32.63,0.67,1.08,10.13
49.561926,3.792749,32.63,0.57,1.28,10.85
49.561842,3.793178,32.54,0.71,1.62,11.42
49.561842,3.793178,32.54,-0.55,0.97,8.9
49.561753,3.793607,32.39,-0.04,1.87,9.96
49.561753,3.793607,32.39,-0.08,1.65,9.66
49.561663,3.794031,32.24,-0.45,1.06,10.28
49.561663,3.794031,32.24,-0.04,0.96,10.86
49.561572,3.794451,32.01,0.26,0.71,8.58
49.561572,3.794451,32.01,-0.09,0.28,11.48
49.561479,3.79487,31.97,-0.29,0.65,10.11
49.561479,3.79487,31.97,0.2,1.39,9.49
49.561385,3.79529,31.94,-0.14,1.32,11.0
49.561385,3.79529,31.94,-0.86,1.33,10.85
49.561292,3.795708,31.92,-0.43,1.52,10.77
49.561292,3.795708,31.92,-0.24,1.18,11.36
49.561198,3.796121,31.85,-0.6,1.1,9.87
49.561198,3.796121,31.85,0.55,1.14,9.59
49.561103,3.796535,31.79,-0.3,0.88,8.61
49.561103,3.796535,31.79,-0.5,0.51,10.55
49.561007,3.796951,31.79,-0.72,0.64,10.57
49.561007,3.796951,31.79,0.5,0.64,9.77
49.560905,3.797366,31.74,-0.24,1.51,10.93
49.560905,3.797366,31.74,-0.51,1.07,10.73
49.560804,3.797779,31.63,-0.03,1.03,10.55
49.560804,3.797779,31.63,-0.45,2.16,9.04
49.560706,3.798187,31.54,-1.41,1.6,7.28
49.560706,3.798187,31.54,-0.25,2.06,9.89
49.560608,3.798595,31.53,-0.26,1.36,10.32
49.560608,3.798595,31.53,-0.3,1.28,10.75
49.56051,3.799001,31.61,-0.19,1.11,7.52
49.560406,3.799412,31.81,-1.51,1.08,10.21
49.560406,3.799412,31.81,-1.69,0.94,8.82
49.560303,3.799821,32.01,-0.92,2.06,10.39
49.560303,3.799821,32.01,-1.38,1.23,9.97
49.560198,3.800236,32.27,-0.79,1.45,10.93
49.560198,3.800236,32.27,-1.61,1.16,8.97
49.560096,3.800654,32.48,-0.68,1.25,9.4
49.560096,3.800654,32.48,-0.97,1.0,9.13
49.559992,3.801076,32.62,0.34,1.67,10.03
49.559992,3.801076,32.62,-0.63,1.67,9.47
49.559886,3.801499,32.65,0.47,2.19,8.82
49.559886,3.801499,32.65,-0.23,1.02,10.84
49.559781,3.801921,32.69,-0.52,1.22,9.4
49.559781,3.801921,32.69,-1.54,0.63,9.91
49.559676,3.802342,32.59,-1.26,0.71,10.2
49.559676,3.802342,32.59,-1.3,1.06,8.09
49.559573,3.802761,32.46,0.12,1.31,10.14
49.559573,3.802761,32.46,-1.07,1.09,11.84
49.559473,3.803179,32.48,0.03,1.74,10.59
49.559473,3.803179,32.48,-0.59,1.38,10.61
49.559372,3.803603,32.52,-1.26,1.31,9.33
49.559372,3.803603,32.52,-1.05,0.35,9.73
49.559273,3.804025,32.56,-0.78,0.39,9.96
49.559273,3.804025,32.56,-0.58,1.95,10.6
49.559172,3.804448,32.54,-1.1,2.05,7.49
49.559172,3.804448,32.54,-0.36,1.72,9.48
49.559072,3.804869,32.41,-0.24,1.8,8.4
49.559072,3.804869,32.41,-1.1,0.68,10.74
49.558975,3.805293,32.42,0.45,0.8,8.41
49.558975,3.805293,32.42,-0.98,0.96,10.75
49.558881,3.805711,32.39,-0.97,1.76,10.6
49.558881,3.805711,32.39,-1.0,1.13,9.84
49.558786,3.806133,32.43,-2.07,1.11,8.12
49.558786,3.806133,32.43,-0.69,1.32,10.25
49.558691,3.806559,32.49,-1.28,1.63,11.0
49.558691,3.806559,32.49,-0.79,1.2,9.5
49.558603,3.806982,32.56,-0.82,1.83,8.94
49.558603,3.806982,32.56,-0.54,1.11,9.36
49.558516,3.807409,32.57,-0.53,1.35,10.37
49.558516,3.807409,32.57,0.23,1.48,9.92
49.55843,3.807837,32.55,-0.64,1.35,8.28
49.558345,3.808267,32.63,-1.33,1.47,11.19
49.558345,3.808267,32.63,0.57,0.95,10.24
49.558261,3.808698,32.56,-0.67,1.46,10.79
49.558261,3.808698,32.56,-0.01,1.32,11.7
49.558179,3.80913,32.51,-1.65,1.79,8.49
49.558179,3.80913,32.51,-0.84,1.27,8.97
49.558099,3.809562,32.48,-1.34,1.58,10.23
49.558099,3.809562,32.48,0.27,1.03,11.85
49.55802,3.809995,32.43,0.25,0.52,10.09
49.55802,3.809995,32.43,-1.0,1.37,9.93
49.557944,3.810425,32.39,-0.89,1.72,8.41
49.557944,3.810425,32.39,-1.9,1.88,10.99
49.557867,3.810857,32.35,-0.46,2.0,7.9
49.557867,3.810857,32.35,-0.23,1.25,8.0
49.557792,3.811293,32.33,-0.31,1.34,9.18
49.557792,3.811293,32.33,0.82,1.43,11.14
49.557718,3.811721,32.32,-2.25,0.91,11.62
49.557718,3.811721,32.32,-0.64,1.65,7.77
49.557641,3.812152,32.28,-0.67,1.74,7.06
49.557641,3.812152,32.28,-0.03,1.02,9.12
49.557566,3.812583,32.26,-1.05,1.55,8.73
49.557566,3.812583,32.26,0.25,1.2,10.0
49.557492,3.813011,32.29,-0.35,0.89,9.8
49.557492,3.813011,32.29,-1.01,0.64,9.07
49.557419,3.813442,32.27,-1.7,1.89,9.9
49.557419,3.813442,32.27,0.2,1.72,10.75
49.557343,3.813878,32.18,-1.48,1.46,9.94
49.557343,3.813878,32.18,0.11,1.64,8.75
49.55727,3.814308,32.2,0.93,1.95,9.43
49.55727,3.814308,32.2,-0.38,1.78,9.77
49.557195,3.814742,32.3,-0.43,1.25,11.97
49.557195,3.814742,32.3,-0.76,1.04,10.11
49.557124,3.815175,32.5,-0.57,1.72,10.41
49.557124,3.815175,32.5,-1.68,1.14,9.56
49.557057,3.815607,32.52,-0.06,1.76,8.76
49.557057,3.815607,32.52,0.76,1.62,10.17
49.556984,3.816042,32.59,-0.26,1.21,12.11
49.556984,3.816042,32.59,-1.03,1.66,9.84
49.556913,3.81648,32.6,-1.4,1.72,9.96
49.55684,3.816916,32.44,-0.1,1.82,9.58
49.55684,3.816916,32.44,-0.56,0.92,11.34
49.556766,3.817349,32.46,-0.48,1.1,10.53
49.556766,3.817349,32.46,-0.42,1.56,11.3
49.55669,3.817784,32.5,-0.99,1.79,9.65
49.55669,3.817784,32.5,-0.4,1.36,8.52
49.556613,3.818217,32.65,-0.31,1.93,9.73
49.556613,3.818217,32.65,-0.59,0.7,10.35
49.556538,3.818648,32.7,-0.24,1.84,8.95
49.556538,3.818648,32.7,-0.5,0.93,7.6
49.556462,3.819084,32.73,0.39,1.25,10.14
49.556462,3.819084,32.73,0.24,0.19,10.81
49.556384,3.819522,32.72,-0.35,1.91,11.11
49.556384,3.819522,32.72,0.79,1.38,8.21
49.556304,3.819962,32.72,0.46,0.22,10.47
49.556304,3.819962,32.72,0.59,0.8,10.14
49.556225,3.820398,32.76,-0.69,1.94,10.09
49.556225,3.820398,32.76,-0.17,1.61,8.85
49.556142,3.820832,32.8,-0.34,1.01,9.5
49.556142,3.820832,32.8,0.73,1.64,10.43
49.55606,3.821264,32.8,-0.2,1.02,8.79
49.55606,3.821264,32.8,0.21,0.68,9.8
49.555975,3.821698,32.77,0.62,0.56,11.12
49.555975,3.821698,32.77,-0.21,1.79,10.87
49.555886,3.822134,32.78,0.39,1.93,8.84
49.555886,3.822134,32.78,0.36,0.9,10.05
49.555795,3.822567,32.92,-0.11,1.76,10.29
49.555795,3.822567,32.92,-0.02,1.51,6.88
49.555706,3.823,32.94,0.16,1.15,10.3
49.555706,3.823,32.94,-0.46,1.24,11.0
49.555612,3.823432,32.93,0.41,1.37,9.92
49.555612,3.823432,32.93,-0.34,1.23,10.67
49.555518,3.823863,33.01,-0.07,1.65,7.62
49.555518,3.823863,33.01,0.34,1.27,8.16
49.555422,3.824293,33.07,-0.48,0.77,11.55
49.555422,3.824293,33.07,-0.92,1.51,9.06
49.555321,3.824726,33.1,0.02,1.38,9.25
49.555321,3.824726,33.1,0.11,2.62,11.98
49.555219,3.825155,33.14,-0.46,1.69,8.96
49.555113,3.825586,33.18,1.09,1.78,10.76
49.555113,3.825586,33.18,-1.14,1.78,10.02
49.555008,3.826017,33.09,-0.45,1.71,9.47
49.555008,3.826017,33.09,0.91,1.1,10.57
49.554897,3.826441,32.92,-0.55,1.91,9.47
49.554897,3.826441,32.92,-1.02,1.19,9.53
49.554783,3.826862,32.78,0.6,1.54,10.07
49.554783,3.826862,32.78,-1.06,1.29,10.06
49.554669,3.82728,32.81,0.92,1.69,10.03
49.554669,3.82728,32.81,-0.38,0.86,9.42
49.554553,3.827696,32.9,0.07,1.2,12.57
49.554553,3.827696,32.9,-0.82,1.75,10.01
49.554433,3.828116,33.02,-0.33,1.26,8.91
49.554433,3.828116,33.02,-0.58,1.38,9.4
49.554314,3.828531,33.12,-0.86,1.8,9.67
49.554314,3.828531,33.12,0.68,1.25,9.09
49.554191,3.828945,33.19,-0.24,1.75,11.47
49.554191,3.828945,33.19,-0.79,1.4,8.7
49.554072,3.829362,33.19,0.81,1.5,10.17
49.554072,3.829362,33.19,-1.31,1.39,9.16
49.553952,3.829785,33.09,0.31,0.99,10.69
49.553952,3.829785,33.09,-0.36,1.16,11.77
49.55383,3.830202,32.95,-0.67,1.68,8.97
49.55383,3.830202,32.95,0.24,0.96,8.62
49.553707,3.830614,32.89,0.93,1.49,10.95
49.553707,3.830614,32.89,-0.34,1.74,10.16
49.553577,3.831028,32.85,-0.05,1.08,10.41
49.553577,3.831028,32.85,-0.19,1.4,12.41
49.553445,3.831433,33.1,-1.48,1.26,9.36
49.553445,3.831433,33.1,-0.29,0.6,8.43
49.553306,3.83184,33.02,-0.45,1.72,9.94
49.553306,3.83184,33.02,-0.26,1.29,8.18
49.553165,3.832245,33.15,0.72,0.57,12.04
49.553165,3.832245,33.15,-0.1,1.91,9.18
49.553022,3.832649,33.27,0.53,1.47,9.35
49.553022,3.832649,33.27,-0.27,1.96,11.91
49.552877,3.833048,33.34,0.62,1.43,9.59
49.552877,3.833048,33.34,-0.5,1.8,8.26
49.552732,3.83345,33.45,-0.16,0.79,7.36
49.552732,3.83345,33.45,-0.02,1.98,10.39
49.552582,3.833848,33.57,-0.34,0.96,7.24
49.55243,3.83425,33.63,-0.06,1.06,9.77
49.55243,3.83425,33.63,0.68,1.05,10.26
49.552278,3.834652,33.8,-0.26,1.45,9.1
49.552278,3.834652,33.8,0.36,1.13,10.03
49.552119,3.83506,33.94,-0.6,1.79,9.55
49.552119,3.83506,33.94,-0.4,1.04,10.49
49.551957,3.835468,34.12,0.63,1.16,9.76
49.551957,3.835468,34.12,-0.74,1.09,9.43
49.551792,3.835869,33.98,-0.07,0.67,10.43
49.551792,3.835869,33.98,0.75,1.18,7.06
49.551626,3.836262,34.09,-0.02,1.62,10.36
49.551626,3.836262,34.09,0.03,1.46,9.17
49.551458,3.836651,34.08,-0.13,1.15,10.11
49.551458,3.836651,34.08,0.05,1.59,8.42
49.551288,3.837038,34.14,-0.39,2.29,10.07
49.551288,3.837038,34.14,-0.11,1.32,9.41
49.551117,3.837427,34.2,-0.95,1.39,8.97
49.551117,3.837427,34.2,0.21,0.91,9.35
49.550943,3.83782,34.02,-0.52,0.17,10.27
49.550943,3.83782,34.02,-0.42,0.94,8.56
49.55077,3.838199,33.21,0.0,-0.13,8.77
49.55077,3.838199,33.21,1.33,1.18,11.37
49.550596,3.838571,32.53,0.52,0.63,10.76
49.550596,3.838571,32.53,-1.5,0.87,9.85
49.550423,3.838931,32.05,-1.45,1.07,8.29
49.550423,3.838931,32.05,-0.37,1.3,10.03
49.550253,3.839282,31.75,0.49,0.78,10.57
49.550253,3.839282,31.75,-0.24,0.57,10.79
49.550081,3.839627,31.44,-0.76,0.7,10.24
49.550081,3.839627,31.44,-0.09,1.46,10.02
49.549906,3.839965,31.3,-1.14,1.58,8.36
49.549906,3.839965,31.3,-0.94,1.47,9.89
49.549729,3.840303,31.15,-0.8,0.65,11.91
49.549729,3.840303,31.15,-0.35,0.82,8.98
49.549559,3.840644,30.77,-0.4,1.88,8.88
49.549559,3.840644,30.77,-0.19,1.33,10.73
49.549387,3.84098,30.82,0.3,1.38,9.65
49.549387,3.84098,30.82,-0.26,1.72,8.62
49.549214,3.841313,30.95,-0.11,1.88,12.25
49.549035,3.841642,31.05,1.0,1.36,11.57
49.549035,3.841642,31.05,0.99,1.64,9.91
49.548856,3.841971,31.29,-0.62,1.75,10.49
49.548856,3.841971,31.29,-0.8,1.6,10.01
49.548674,3.842306,31.39,0.25,1.63,9.7
49.548674,3.842306,31.39,-0.45,1.48,10.01
49.548491,3.842642,31.45,-0.39,1.07,11.0
49.548491,3.842642,31.45,-0.9,1.11,10.2
49.548306,3.842976,31.62,0.75,0.8,9.77
49.548306,3.842976,31.62,-1.57,0.62,10.86
49.548118,3.843306,31.91,0.43,1.27,12.04
49.548118,3.843306,31.91,0.47,1.02,9.39
49.547919,3.843638,32.05,-0.21,1.03,11.29
49.547919,3.843638,32.05,-0.3,1.28,9.94
49.547722,3.843967,32.18,-0.24,0.91,11.25
49.547722,3.843967,32.18,-1.01,1.71,11.68
49.547523,3.844293,32.32,0.28,1.63,8.76
49.547523,3.844293,32.32,-0.11,1.43,9.35
49.547325,3.844624,32.52,1.08,1.34,8.69
49.547325,3.844624,32.52,-1.06,1.63,8.95
49.547126,3.84495,32.57,0.1,2.53,9.2
49.547126,3.84495,32.57,0.28,1.85,8.19
49.546923,3.845278,32.77,0.03,0.48,11.23
49.546923,3.845278,32.77,-0.91,2.1,10.66
49.54672,3.8456,32.93,-0.16,2.18,10.68
49.54672,3.8456,32.93,-0.48,0.74,8.25
49.546513,3.845914,32.99,0.08,1.68,10.48
49.546513,3.845914,32.99,-0.79,1.2,7.72
49.546299,3.846232,33.05,0.8,1.05,10.64
49.546299,3.846232,33.05,-0.46,1.63,10.87
49.546082,3.846551,33.15,0.76,0.79,9.99
49.546082,3.846551,33.15,-0.02,1.52,11.34
49.545864,3.846862,33.28,-0.15,1.36,8.5
49.545864,3.846862,33.28,-0.7,1.52,11.6
49.545645,3.847175,33.3,-0.63,2.33,9.88
49.545645,3.847175,33.3,-0.38,0.79,11.84
49.545425,3.847488,33.37,-0.31,2.1,10.18
49.545425,3.847488,33.37,0.37,0.83,10.06
49.545199,3.8478,33.5,-1.24,1.61,9.59
49.545199,3.8478,33.5,-0.99,1.88,12.16
49.544976,3.848107,33.66,-1.47,0.83,8.31
49.544747,3.848414,33.75,-1.2,2.13,10.33
49.544747,3.848414,33.75,1.03,0.88,11.34
49.544515,3.848725,33.86,-0.54,1.52,8.29
49.544515,3.848725,33.86,-0.22,1.07,10.04
49.544284,3.849032,33.85,-2.01,0.62,8.57
49.544284,3.849032,33.85,-0.74,1.34,10.07
49.54406,3.849333,33.75,-1.09,0.13,9.27
49.54406,3.849333,33.75,-0.94,1.29,9.53
49.543829,3.849635,33.12,0.94,-0.27,8.94
49.543829,3.849635,33.12,0.12,-0.11,9.7
49.543602,3.849927,32.4,0.3,1.12,11.68
49.543602,3.849927,32.4,-1.47,1.19,11.3
49.543382,3.850205,32.16,-1.61,0.95,10.21
49.543382,3.850205,32.16,-0.28,1.89,10.05
49.54316,3.850479,31.98,0.65,2.06,8.1
49.54316,3.850479,31.98,-0.29,1.95,10.17
49.542935,3.850753,31.9,-0.45,2.15,10.37
49.542935,3.850753,31.9,-1.16,1.06,7.86
49.542711,3.851019,31.77,-1.29,1.29,11.79
49.542711,3.851019,31.77,-1.02,1.0,9.83
49.542485,3.851284,31.77,-1.25,1.37,11.23
49.542485,3.851284,31.77,0.34,2.4,10.39
49.542258,3.851551,31.82,0.32,1.78,10.03
49.542258,3.851551,31.82,-1.34,1.54,9.97
49.542029,3.851812,31.92,-0.86,1.46,10.53
49.542029,3.851812,31.92,-1.64,1.75,9.62
49.541793,3.852074,32.08,-0.04,1.64,10.88
49.541793,3.852074,32.08,-0.79,1.86,9.82
49.541561,3.852336,32.19,-0.06,1.01,7.76
49.541561,3.852336,32.19,-0.24,1.14,9.02
49.541327,3.8526,32.36,-0.21,1.38,11.18
49.541327,3.8526,32.36,-0.1,1.71,10.02
49.541089,3.852861,32.62,-1.0,1.54,10.5
49.541089,3.852861,32.62,-1.39,1.33,8.77
49.540848,3.853126,32.75,-1.75,1.36,10.24
49.540848,3.853126,32.75,-0.55,1.46,7.69
49.540609,3.853389,32.88,-0.67,1.38,8.0
49.540609,3.853389,32.88,-1.72,1.5,11.55
49.540368,3.853651,33.12,-0.31,2.19,10.79
49.540125,3.853912,33.29,0.76,0.97,9.25
49.540125,3.853912,33.29,0.59,2.52,8.79
49.539879,3.854172,33.47,-0.9,1.37,8.5
49.539879,3.854172,33.47,0.32,2.55,9.93
49.539631,3.854437,33.64,1.55,1.51,9.48
49.539631,3.854437,33.64,-1.38,1.91,9.85
49.539383,3.854704,33.85,1.22,0.79,9.92
49.539383,3.854704,33.85,-0.81,1.5,8.93
49.539134,3.854972,33.9,-1.13,1.35,12.33
49.539134,3.854972,33.9,1.13,0.82,7.62
49.53888,3.85524,33.97,-1.18,1.37,10.2
49.53888,3.85524,33.97,0.48,1.64,10.14
49.538626,3.855502,34.0,-0.27,1.1,8.66
49.538626,3.855502,34.0,-0.69,1.63,8.0
49.538373,3.855762,34.03,0.33,0.52,10.08
49.538373,3.855762,34.03,-1.53,0.98,9.28
49.538119,3.856024,34.12,-0.58,2.12,9.2
49.538119,3.856024,34.12,1.01,1.19,9.67
49.537863,3.85629,34.12,-0.73,1.34,9.24
49.537863,3.85629,34.12,-0.14,1.63,8.78
49.537608,3.856556,34.15,-0.42,0.69,8.0
49.537608,3.856556,34.15,0.47,1.02,9.47
49.537354,3.85682,33.98,-0.49,1.31,9.85
49.537354,3.85682,33.98,0.07,0.49,9.53
49.537101,3.857082,33.87,-0.49,1.63,7.58
49.537101,3.857082,33.87,-1.71,1.81,12.13
49.536849,3.857342,33.66,0.31,0.69,10.12
49.536849,3.857342,33.66,-0.57,1.03,11.82
49.536597,3.857602,33.46,-1.56,0.34,8.39
49.536597,3.857602,33.46,-1.56,1.59,9.44
49.536348,3.857861,33.21,-0.14,1.83,9.94
49.536348,3.857861,33.21,-1.91,0.53,8.47
49.536104,3.858116,32.46,0.67,0.54,9.26
49.536104,3.858116,32.46,-0.8,1.17,9.89
49.535865,3.858364,32.01,-0.48,1.06,11.24
49.535865,3.858364,32.01,-0.08,0.49,12.01
49.535627,3.858609,31.86,0.53,1.06,8.8
49.535627,3.858609,31.86,-0.1,1.95,8.65
49.535389,3.858854,31.73,-0.51,1.29,8.61
49.535389,3.858854,31.73,0.8,1.16,9.32
49.535152,3.859099,31.7,0.25,0.92,10.36
49.535152,3.859099,31.7,1.4,1.41,11.3
49.534917,3.85934,31.67,-1.51,2.66,8.51
49.534917,3.85934,31.67,-1.31,2.64,9.66
49.534681,3.859582,31.72,-0.89,2.82,10.53
49.534445,3.859828,31.87,-1.33,1.82,9.1
49.534445,3.859828,31.87,-1.27,1.48,8.7
49.534208,3.860076,31.98,-0.25,1.2,8.23
49.534208,3.860076,31.98,-1.0,2.04,9.41
49.533971,3.860327,32.14,-0.2,1.96,9.97
49.533971,3.860327,32.14,0.39,1.47,10.49
49.533731,3.860578,32.23,0.23,0.43,10.84
49.533731,3.860578,32.23,-0.81,1.01,9.59
49.533492,3.86083,32.41,-0.96,0.8,10.3
49.533492,3.86083,32.41,0.0,2.33,10.62
49.533252,3.861085,32.59,-0.91,1.99,10.16
49.533252,3.861085,32.59,-0.28,1.11,9.85
49.533011,3.861338,32.84,-0.72,1.1,9.38
49.533011,3.861338,32.84,-0.38,1.5,8.82
49.532766,3.861597,33.01,-1.47,1.58,7.57
49.532766,3.861597,33.01,-1.01,1.92,8.93
49.532521,3.861859,32.96,-1.71,1.78,10.16
49.532521,3.861859,32.96,-1.26,2.58,9.41
49.532277,3.862121,33.01,-0.88,1.47,9.77
49.532277,3.862121,33.01,-0.97,1.64,10.79
49.532034,3.862382,32.81,-0.14,0.85,8.32
49.532034,3.862382,32.81,-0.86,1.3,11.98
49.531793,3.862648,32.71,-0.19,1.41,8.68
49.531793,3.862648,32.71,-0.33,1.21,10.21
49.531554,3.862914,32.66,-1.34,0.78,8.21
49.531554,3.862914,32.66,-0.14,2.26,9.62
49.531315,3.863175,32.62,-0.4,1.99,10.15
49.531315,3.863175,32.62,-1.96,1.16,10.08
49.531077,3.863434,32.65,-0.68,0.92,10.27
49.531077,3.863434,32.65,-0.14,2.13,10.27
49.530838,3.863699,32.66,-0.12,2.18,9.59
49.530838,3.863699,32.66,-1.19,1.14,7.73
49.530606,3.863963,32.61,-0.68,0.49,10.63
49.530606,3.863963,32.61,-0.28,1.41,9.84
49.530372,3.864233,32.64,-0.78,1.74,9.59
49.530372,3.864233,32.64,-0.99,1.47,10.47
49.53013,3.864502,32.73,-0.04,0.2,9.65
49.53013,3.864502,32.73,-1.93,0.65,12.49
49.529892,3.864772,32.85,0.62,1.77,10.1
49.529892,3.864772,32.85,0.67,0.88,9.25
49.529653,3.865033,32.96,-0.67,1.92,10.5
49.529653,3.865033,32.96,-0.4,0.97,9.34
49.529415,3.86531,33.08,-0.11,0.56,10.38
49.529179,3.865592,33.19,-1.26,1.29,10.74
49.529179,3.865592,33.19,-0.91,1.07,8.19
49.528941,3.865869,33.36,-1.1,2.2,10.48
49.528941,3.865869,33.36,-0.62,1.88,8.94
49.528704,3.866154,33.43,-0.75,0.82,10.65
49.528704,3.866154,33.43,0.78,1.36,8.41
49.528465,3.866435,33.57,0.18,1.14,10.11
49.528465,3.866435,33.57,-0.85,2.26,8.99
49.528226,3.866714,33.57,-1.33,1.52,9.66
49.528226,3.866714,33.57,0.2,1.85,10.11
49.527985,3.866995,33.62,-1.26,0.66,10.48
49.527985,3.866995,33.62,-1.0,0.16,7.58
49.527744,3.867274,33.75,-0.97,2.07,8.97
49.527744,3.867274,33.75,0.57,0.42,9.67
49.527501,3.867556,33.82,-1.06,2.13,9.97
49.527501,3.867556,33.82,0.58,0.92,9.81
49.527258,3.867836,33.85,0.21,2.11,6.87
49.527258,3.867836,33.85,-0.57,1.63,11.53
49.527014,3.868114,33.86,0.09,1.73,9.05
49.527014,3.868114,33.86,0.18,2.09,8.94
49.52677,3.868394,33.93,0.4,0.48,10.51
49.52677,3.868394,33.93,1.08,0.73,9.81
49.526527,3.868674,33.99,-1.39,1.56,11.36
49.526527,3.868674,33.99,1.1,0.45,8.63
49.52628,3.868954,33.95,-0.91,1.06,9.26
49.52628,3.868954,33.95,-1.34,0.45,9.96
49.526034,3.86923,33.97,1.1,0.55,9.77
49.526034,3.86923,33.97,-0.53,1.43,9.22
49.525786,3.869505,33.99,-0.81,1.59,10.05
49.525786,3.869505,33.99,-0.67,0.43,9.41
49.525538,3.869777,33.86,-0.67,0.62,9.0
49.525538,3.869777,33.86,-0.55,-0.46,11.03
49.525295,3.870044,33.14,-0.7,-0.01,9.5
49.525295,3.870044,33.14,-0.96,1.1,10.07
49.525056,3.870305,32.59,-0.96,1.62,8.73
49.525056,3.870305,32.59,0.36,0.92,10.84
49.524815,3.870561,32.83,0.95,1.12,10.86
49.524815,3.870561,32.83,-0.03,2.27,9.74
49.524574,3.870821,32.71,-0.34,1.89,9.26
49.524574,3.870821,32.71,-1.22,1.36,7.61
49.524331,3.87109,32.92,-1.67,1.45,10.99
49.52409,3.871348,33.02,0.51,2.02,8.75
49.52409,3.871348,33.02,0.16,1.11,9.35
49.523845,3.871612,33.05,-0.86,1.81,10.37
49.523845,3.871612,33.05,-1.09,0.98,8.52
49.523605,3.871871,33.14,0.65,0.72,10.03
49.523605,3.871871,33.14,-0.28,1.7,9.55
49.523362,3.872133,33.08,1.07,1.18,8.25
49.523362,3.872133,33.08,0.05,0.99,9.13
49.523117,3.872389,33.04,-1.56,1.43,9.48
49.523117,3.872389,33.04,-0.54,0.54,11.04
49.522871,3.872647,32.71,0.29,0.93,9.26
49.522871,3.872647,32.71,-0.76,0.72,10.89
49.522629,3.872902,32.57,-0.96,1.67,9.59
49.522629,3.872902,32.57,-0.74,1.47,8.3
49.522387,3.873156,32.63,0.36,1.86,10.35
49.522387,3.873156,32.63,-1.3,1.23,12.04
49.522146,3.87341,32.75,-1.36,1.58,11.76
49.522146,3.87341,32.75,0.7,2.23,10.14
49.521902,3.873664,32.93,-0.49,0.99,11.32
49.521902,3.873664,32.93,-0.22,1.16,8.75
49.521655,3.873919,33.03,-0.78,2.05,7.93
49.521655,3.873919,33.03,-1.47,1.2,11.55
49.52141,3.874175,33.23,-0.21,1.51,9.62
49.52141,3.874175,33.23,-0.04,1.27,9.48
49.521162,3.874438,33.34,0.32,1.72,9.18
49.521162,3.874438,33.34,0.25,0.79,10.75
49.520913,3.874704,33.48,-0.39,1.32,9.15
49.520913,3.874704,33.48,-0.64,1.33,10.18
49.520666,3.874966,33.4,-1.04,1.3,10.32
49.520666,3.874966,33.4,0.87,1.35,9.81
49.520421,3.875227,33.36,-0.3,1.7,8.17
49.520421,3.875227,33.36,0.21,0.98,8.61
49.520174,3.875487,33.37,-0.55,1.77,11.7
49.520174,3.875487,33.37,-1.27,1.4,9.2
49.519926,3.875752,33.37,0.61,1.15,10.68
49.519926,3.875752,33.37,-1.52,1.25,9.32
49.519681,3.876018,33.44,-0.32,2.44,9.63
49.519681,3.876018,33.44,0.08,1.47,8.15
49.519432,3.876279,33.68,0.74,1.57,12.07
49.519182,3.876541,33.59,-0.64,0.85,9.82
49.519182,3.876541,33.59,-0.57,1.82,11.58
49.518934,3.876804,33.57,-0.59,0.96,10.16
49.518934,3.876804,33.57,-0.46,2.45,9.82
49.518685,3.877066,33.51,0.47,1.73,10.46
49.518685,3.877066,33.51,-0.63,0.79,12.46
49.518434,3.877324,33.37,0.48,1.3,9.84
49.518434,3.877324,33.37,-0.32,1.1,10.3
49.518187,3.877582,33.17,-1.49,1.47,9.23
49.518187,3.877582,33.17,0.05,2.04,7.75
49.517941,3.877843,33.16,-0.91,0.93,11.08
49.517941,3.877843,33.16,-0.11,1.54,9.17
49.517695,3.878103,33.21,-0.69,1.25,9.28
49.517695,3.878103,33.21,-1.2,1.77,9.49
49.517448,3.878361,33.29,-0.82,1.38,9.79
49.517448,3.878361,33.29,-2.32,1.33,10.3
49.517202,3.878621,33.26,-0.46,1.39,9.2
49.517202,3.878621,33.26,-0.19,1.4,9.98
49.51696,3.878879,32.85,-0.48,1.13,9.91
49.51696,3.878879,32.85,-1.31,1.31,8.32
49.516717,3.879133,32.68,-0.41,0.67,9.75
49.516717,3.879133,32.68,-0.03,1.02,10.8
49.516476,3.879386,32.56,-0.68,2.18,10.83
49.516476,3.879386,32.56,0.11,1.68,10.91
49.516235,3.879644,32.53,0.63,1.8,9.68
49.516235,3.879644,32.53,-0.3,1.02,11.64
49.515994,3.879901,32.5,0.18,0.54,10.51
49.515994,3.879901,32.5,0.26,1.14,12.05
49.515753,3.880155,32.28,-0.78,0.98,10.36
49.515753,3.880155,32.28,0.18,0.99,9.75
49.515514,3.880409,32.23,-1.01,1.21,9.16
49.515514,3.880409,32.23,-0.17,0.93,9.31
49.515273,3.880659,32.17,-0.42,1.13,8.08
49.515273,3.880659,32.17,-0.87,1.55,8.55
49.515037,3.880906,32.08,-0.08,1.55,9.33
49.515037,3.880906,32.08,1.18,1.49,9.73
49.514798,3.881159,32.04,-0.27,2.01,9.85
49.514798,3.881159,32.04,-0.58,1.27,11.32
49.514559,3.881411,32.12,-0.15,0.66,8.6
49.514559,3.881411,32.12,-0.39,0.7,10.96
49.514322,3.881665,32.22,-0.65,1.07,9.68
49.514085,3.881916,32.25,-0.67,1.92,11.69
49.514085,3.881916,32.25,-0.36,1.88,10.78
49.513845,3.882164,32.26,0.09,1.65,8.69
49.513845,3.882164,32.26,0.22,1.99,8.2
49.513605,3.882416,32.21,-1.04,1.24,8.45
49.513605,3.882416,32.21,-0.75,1.19,9.6
49.513368,3.882667,32.09,-0.16,0.71,10.92
49.513368,3.882667,32.09,-0.24,0.91,9.79
49.51313,3.88292,31.96,0.42,0.15,11.18
49.51313,3.88292,31.96,0.5,0.02,11.18
49.512895,3.883173,31.88,-0.35,1.49,9.97
49.512895,3.883173,31.88,0.35,1.79,10.26
49.512661,3.883422,31.76,0.32,1.21,10.94
49.512661,3.883422,31.76,-0.79,1.79,10.61
49.512427,3.883671,31.74,0.17,1.27,7.47
49.512427,3.883671,31.74,0.39,1.73,8.79
49.512192,3.883922,31.77,0.17,1.72,7.98
49.512192,3.883922,31.77,-0.87,2.23,8.95
49.511955,3.884169,31.89,-1.33,1.38,10.52
49.511955,3.884169,31.89,-0.71,1.9,8.15
49.511718,3.884416,31.91,-0.63,1.73,8.55
49.511718,3.884416,31.91,-0.9,1.82,8.63
49.511481,3.884664,31.91,-0.39,1.76,9.87
49.511481,3.884664,31.91,0.4,1.92,10.0
49.511244,3.884912,31.91,-0.46,1.48,8.13
49.511244,3.884912,31.91,0.52,2.35,9.12
49.511007,3.88516,31.91,-0.94,1.91,8.17
49.511007,3.88516,31.91,-1.8,1.45,8.96
49.510771,3.885409,31.9,0.38,1.6,9.56
49.510771,3.885409,31.9,0.28,1.82,9.17
49.510535,3.885659,31.92,-0.43,1.06,9.66
49.510535,3.885659,31.92,-1.44,1.59,8.29
49.510299,3.885908,31.88,-0.29,1.8,9.13
49.510299,3.885908,31.88,0.06,2.08,9.17
49.510062,3.886156,31.84,0.02,1.11,9.08
49.510062,3.886156,31.84,-0.33,0.99,9.58
49.509827,3.886402,31.79,-0.28,1.7,8.32
49.509827,3.886402,31.79,-0.55,1.81,9.04
49.50959,3.886641,31.84,0.16,1.71,9.82
49.50959,3.886641,31.84,-0.35,1.54,9.26
49.50935,3.886877,31.93,-0.38,2.41,9.24
49.50935,3.886877,31.93,-0.38,1.79,8.8
49.509105,3.887117,32.16,-0.34,1.7,8.96
49.508862,3.887354,32.13,1.26,1.28,11.43
49.508862,3.887354,32.13,-1.17,0.92,8.31
49.508619,3.887589,32.21,-0.36,0.48,9.72
49.508619,3.887589,32.21,-0.1,0.91,11.15
49.508376,3.887826,32.27,0.11,1.31,10.41
49.508376,3.887826,32.27,-0.61,1.89,10.49
49.508129,3.888065,32.38,0.59,1.72,8.6
49.508129,3.888065,32.38,-0.24,1.67,8.56
49.507878,3.888302,32.43,1.27,1.2,8.23
49.507878,3.888302,32.43,-0.17,1.57,10.89
49.507627,3.888533,32.58,-1.26,0.99,11.01
49.507627,3.888533,32.58,-1.03,1.65,8.6
49.507372,3.88876,32.57,-1.52,0.57,7.69
49.507372,3.88876,32.57,-0.03,0.73,8.76
49.507117,3.888988,32.66,0.39,1.12,11.2
49.507117,3.888988,32.66,-1.24,1.94,8.25
49.506861,3.889217,32.69,-0.9,1.1,8.38
49.506861,3.889217,32.69,-0.07,0.89,10.98
49.506606,3.889441,32.83,-1.66,1.15,10.58
49.506606,3.889441,32.83,-1.49,0.55,8.23
49.506347,3.889664,32.92,0.68,2.18,10.34
49.506347,3.889664,32.92,-0.93,1.47,8.71
49.506088,3.889886,33.07,0.05,0.84,8.81
49.506088,3.889886,33.07,-0.39,1.36,10.29
49.505829,3.890111,33.08,-0.1,1.86,9.81
49.505829,3.890111,33.08,-0.73,1.02,10.09
49.505567,3.890332,33.03,-1.88,1.18,10.4
49.505567,3.890332,33.03,0.51,1.44,8.55
49.505304,3.890549,33.0,0.23,0.95,9.16
49.505304,3.890549,33.0,-0.26,1.96,8.72
49.50504,3.890765,32.94,-0.42,2.01,9.19
49.50504,3.890765,32.94,-0.13,0.22,9.57
49.504775,3.890975,32.96,-0.06,2.42,10.94
49.504775,3.890975,32.96,-1.6,1.33,8.39
49.504511,3.891185,33.01,-0.68,0.12,8.94
49.504511,3.891185,33.01,-0.79,1.5,11.86
49.504244,3.891394,33.02,-2.07,1.33,10.31
49.504244,3.891394,33.02,-0.95,0.68,8.12
49.503978,3.891599,32.96,-1.25,1.13,11.42
49.503713,3.891806,32.99,-0.49,1.88,11.11
49.503713,3.891806,32.99,-0.65,1.1,9.26
49.503447,3.892007,32.94,0.79,0.18,10.71
49.503447,3.892007,32.94,-0.7,1.64,11.71
49.503184,3.892199,32.93,0.45,1.62,9.61
49.503184,3.892199,32.93,0.01,0.52,9.61
49.502922,3.892388,32.88,-0.49,0.48,11.03
49.502922,3.892388,32.88,-0.73,1.69,10.52
49.502661,3.892576,32.83,-0.78,1.03,8.49
49.502661,3.892576,32.83,0.22,0.68,8.61
49.502398,3.892761,32.77,-0.46,1.63,11.13
49.502398,3.892761,32.77,-0.8,1.62,7.81
49.502127,3.892948,32.75,0.14,1.33,9.3
49.502127,3.892948,32.75,-0.41,0.4,10.7
49.501859,3.893134,32.71,-1.55,1.58,12.22
49.501859,3.893134,32.71,-1.06,1.49,7.68
49.501595,3.893316,32.65,-0.84,0.91,8.09
49.501595,3.893316,32.65,0.57,0.79,11.29
49.501328,3.893497,32.82,-0.05,1.37,9.55
49.501328,3.893497,32.82,-0.09,2.04,9.67
49.501057,3.893674,32.96,-0.32,0.74,11.59
49.501057,3.893674,32.96,0.54,1.79,8.72
49.500786,3.89385,33.05,0.54,0.31,12.18
49.500786,3.89385,33.05,0.71,0.52,10.11
49.500513,3.894023,32.96,-0.79,1.74,8.93
49.500513,3.894023,32.96,-0.04,0.49,9.45
49.500238,3.89419,33.06,0.19,1.0,9.56
49.500238,3.89419,33.06,-0.52,1.85,10.16
49.499964,3.894357,33.05,-0.45,0.65,10.81
49.499964,3.894357,33.05,-0.33,1.79,7.98
49.499691,3.894526,33.03,-0.19,1.74,9.03
49.499691,3.894526,33.03,0.08,0.41,9.55
49.499416,3.894692,32.94,-1.11,2.05,10.75
49.499416,3.894692,32.94,0.51,1.46,9.24
49.499144,3.894854,32.86,0.1,0.55,11.02
49.499144,3.894854,32.86,-0.84,2.19,10.2
49.49887,3.895008,32.98,-0.12,1.7,9.5
49.49887,3.895008,32.98,0.42,0.78,9.49
49.498593,3.895164,32.92,0.58,1.18,10.49
49.498593,3.895164,32.92,-0.91,2.03,10.26
49.498317,3.895318,32.74,-0.11,1.02,8.88
49.498043,3.895474,32.58,-0.76,-0.04,10.36
49.498043,3.895474,32.58,0.46,0.27,9.84
49.497772,3.895628,32.37,0.45,1.26,11.56
49.497772,3.895628,32.37,-0.25,2.01,10.68
49.497496,3.895774,32.19,0.03,2.25,10.69
49.497496,3.895774,32.19,-1.08,2.57,11.15
49.497222,3.895918,31.92,0.25,1.64,10.61
49.497222,3.895918,31.92,-0.42,1.73,10.74
49.49695,3.896059,31.8,-0.6,0.87,11.41
49.49695,3.896059,31.8,-0.46,1.58,11.74
49.496679,3.896195,31.66,-0.97,1.92,10.97
49.496679,3.896195,31.66,0.17,2.18,13.39
49.496409,3.896333,31.61,-0.38,0.67,10.98
49.496409,3.896333,31.61,-0.42,0.58,10.39
49.49614,3.89647,31.61,-0.54,1.07,10.55
49.49614,3.89647,31.61,-0.58,0.79,10.5
49.495874,3.896606,31.51,-0.57,2.05,7.99
49.495874,3.896606,31.51,-0.69,1.9,8.51
49.495605,3.896746,31.42,-0.8,1.31,11.01
49.495605,3.896746,31.42,-0.79,0.93,9.7
49.495337,3.896886,31.39,-0.11,1.26,9.22
49.495337,3.896886,31.39,0.15,1.46,10.92
49.495071,3.897026,31.41,-0.84,0.79,10.99
49.495071,3.897026,31.41,-0.86,2.49,7.49
49.494799,3.897167,31.49,-0.75,2.13,7.37
49.494799,3.897167,31.49,-0.14,2.23,9.89
49.494531,3.897304,31.61,-0.85,1.07,10.22
49.494531,3.897304,31.61,-0.6,1.29,10.11
49.494263,3.897441,31.72,-0.17,1.36,9.75
49.494263,3.897441,31.72,-0.96,2.0,7.86
49.49399,3.897582,31.76,-1.08,2.29,10.71
49.49399,3.897582,31.76,-0.94,1.96,10.62
49.493721,3.897727,31.82,-0.08,1.1,10.48
49.493721,3.897727,31.82,0.04,1.58,9.88
49.493446,3.897875,31.86,-0.44,1.64,9.53
49.493446,3.897875,31.86,-0.25,1.9,7.71
49.493175,3.898019,31.94,-1.3,2.12,9.07
49.493175,3.898019,31.94,1.25,2.43,9.09
49.492899,3.898164,31.95,-0.03,1.88,9.43
49.492899,3.898164,31.95,-1.2,2.03,7.84
49.492624,3.89831,31.99,-0.11,2.37,7.92
49.492351,3.898449,32.04,0.28,1.14,8.62
49.492351,3.898449,32.04,-0.57,2.34,9.01
49.492077,3.898589,32.12,-0.89,1.89,8.37
49.492077,3.898589,32.12,0.59,1.65,10.95
49.4918,3.898733,32.18,-0.86,0.95,10.0
49.4918,3.898733,32.18,-1.77,1.02,10.66
49.491526,3.898872,32.34,-1.4,1.93,10.08
49.491526,3.898872,32.34,-0.49,1.81,10.15
49.491249,3.899017,32.42,0.04,1.68,9.23
49.491249,3.899017,32.42,-0.31,2.08,9.36
49.490972,3.899159,32.47,0.42,1.53,9.56
49.490972,3.899159,32.47,-0.72,1.08,10.53
49.490694,3.899302,32.52,-1.15,2.03,10.54
49.490694,3.899302,32.52,-0.02,1.51,10.08
49.490417,3.899448,32.7,-0.24,1.56,9.54
49.490417,3.899448,32.7,-0.39,1.5,10.64
49.490139,3.899596,32.76,-0.74,1.84,8.78
49.490139,3.899596,32.76,-0.63,1.72,8.57
49.489861,3.899741,32.9,-1.19,0.98,10.09
49.489861,3.899741,32.9,-0.53,1.51,10.06
49.489577,3.899886,33.0,-0.54,1.18,7.81
49.489577,3.899886,33.0,-1.59,0.72,10.6
49.489293,3.900031,33.22,-1.4,1.28,7.75
49.489293,3.900031,33.22,-1.32,0.94,10.56
49.489009,3.90018,33.52,-1.04,1.62,10.62
49.489009,3.90018,33.52,-0.44,0.93,9.67
49.488724,3.900332,33.71,-0.04,1.36,9.49
49.488724,3.900332,33.71,-0.51,1.63,11.88
49.488434,3.900489,33.93,-0.25,0.59,8.54
49.488434,3.900489,33.93,-0.17,1.04,10.41
49.488145,3.900646,34.15,-0.73,1.18,9.77
49.488145,3.900646,34.15,0.65,0.68,8.75
49.487859,3.900808,34.26,-0.76,0.66,9.47
49.487859,3.900808,34.26,-0.42,2.57,12.08
49.487569,3.900975,34.34,0.77,1.45,10.83
49.487569,3.900975,34.34,-1.14,0.88,8.64
49.487279,3.901142,34.43,-1.15,1.44,9.85
49.487279,3.901142,34.43,-0.89,1.75,9.75
49.486989,3.901309,34.5,-1.06,2.28,9.6
49.486989,3.901309,34.5,-0.39,0.94,10.13
49.4867,3.901478,34.68,-0.92,0.23,9.03
49.486411,3.901649,34.66,-0.78,0.96,9.14
49.486411,3.901649,34.66,-1.59,1.12,9.55
49.486112,3.901821,34.61,-1.48,1.92,8.6
49.486112,3.901821,34.61,-1.49,1.78,10.75
49.485825,3.901994,34.46,-0.16,0.47,9.12
49.485825,3.901994,34.46,-0.15,0.74,9.9
49.485537,3.90217,34.42,-0.43,0.35,9.26
49.485537,3.90217,34.42,-1.17,1.93,10.19
49.485254,3.902347,34.39,-0.32,0.52,11.78
49.485254,3.902347,34.39,-0.46,0.46,8.5
49.484967,3.902524,34.41,-1.32,1.81,10.16
49.484967,3.902524,34.41,-0.68,0.52,10.46
49.484682,3.902704,33.91,-0.63,1.49,9.62
49.484682,3.902704,33.91,-0.45,0.66,9.85
49.484399,3.902881,33.3,-0.57,0.29,9.08
49.484399,3.902881,33.3,-0.32,1.67,10.7
49.484124,3.903051,32.99,-1.24,1.55,10.46
49.484124,3.903051,32.99,0.7,0.61,9.57
49.483853,3.903225,32.96,-0.74,0.51,11.35
49.483853,3.903225,32.96,-0.96,1.67,8.85
49.483578,3.9034,32.96,1.02,1.01,11.0
49.483578,3.9034,32.96,-0.6,2.04,11.2
49.483304,3.903571,33.13,-1.0,1.78,9.85
49.483304,3.903571,33.13,-0.73,1.52,10.15
49.483024,3.903747,33.19,-0.45,1.1,8.8
49.483024,3.903747,33.19,-1.57,1.36,11.08
49.482746,3.903924,33.55,0.31,1.72,9.62
49.482746,3.903924,33.55,-0.94,0.21,10.54
49.482467,3.904105,33.65,-1.13,0.67,9.52
49.482467,3.904105,33.65,-1.35,0.85,7.95
49.482192,3.904283,33.63,-0.44,1.01,9.94
49.482192,3.904283,33.63,-0.56,0.47,10.97
49.481924,3.90446,33.47,-0.82,0.68,8.64
49.481924,3.90446,33.47,0.92,0.53,9.36
49.481648,3.904634,33.12,-0.75,0.91,9.32
49.481648,3.904634,33.12,-0.81,0.82,10.52
49.481379,3.904808,32.59,-1.13,1.48,9.4
49.481379,3.904808,32.59,-0.66,0.7,8.02
49.481114,3.904978,32.17,0.6,0.46,9.67
49.480848,3.905148,31.99,0.34,0.75,9.06
49.480848,3.905148,31.99,0.02,1.28,10.35
49.480575,3.905324,32.19,-0.19,1.87,9.81
49.480575,3.905324,32.19,-0.31,1.44,9.96
49.4803,3.905501,32.39,-0.72,1.87,11.43
49.4803,3.905501,32.39,-0.29,2.35,8.76
49.480028,3.905668,32.61,-0.37,1.85,10.32
49.480028,3.905668,32.61,-0.31,1.12,10.31
49.479757,3.905839,32.85,-0.83,1.58,7.5
49.479757,3.905839,32.85,0.07,0.9,9.18
49.479484,3.906008,33.03,0.34,0.62,9.79
49.479484,3.906008,33.03,-0.52,1.3,10.01
49.47921,3.906183,33.14,-0.34,0.81,10.24
49.47921,3.906183,33.14,-0.16,1.23,10.15
49.478935,3.906358,33.24,-0.72,1.47,8.42
49.478935,3.906358,33.24,-1.24,0.84,10.9
49.478657,3.906536,33.35,-1.55,1.67,9.41
49.478657,3.906536,33.35,-0.34,1.44,9.42
49.478383,3.906712,33.35,-0.25,1.41,9.23
49.478383,3.906712,33.35,-1.17,1.41,11.31
49.478108,3.906892,33.47,-1.56,1.31,10.0
49.478108,3.906892,33.47,0.24,1.26,9.77
49.477832,3.907066,33.47,-0.16,0.83,11.17
49.477832,3.907066,33.47,-0.06,1.6,9.63
49.477551,3.907241,33.13,-0.62,0.93,11.79
49.477551,3.907241,33.13,-0.91,1.22,8.92
49.477274,3.907417,33.09,-1.09,1.19,7.94
49.477274,3.907417,33.09,-0.51,1.1,12.97
49.476999,3.90759,32.79,0.33,1.23,9.7
49.476999,3.90759,32.79,-1.16,1.37,9.65
49.476727,3.90776,32.65,0.54,1.36,9.96
49.476727,3.90776,32.65,-0.02,1.01,10.72
49.476457,3.907931,32.49,-1.1,1.99,9.21
49.476457,3.907931,32.49,-1.09,1.4,9.02
49.476191,3.908102,32.23,-0.93,1.3,9.98
49.476191,3.908102,32.23,-0.01,1.17,9.37
49.475924,3.908274,32.03,-1.01,0.81,8.78
49.475924,3.908274,32.03,-0.73,1.41,8.08
49.475658,3.908448,31.8,-1.72,1.92,7.55
49.475658,3.908448,31.8,-0.84,1.45,10.18
49.475398,3.908621,31.81,-1.21,1.51,10.14
49.475137,3.908799,31.77,-1.12,1.73,8.67
49.475137,3.908799,31.77,-0.31,1.73,9.17
49.474875,3.908977,31.97,-1.08,1.98,8.73
49.474875,3.908977,31.97,0.19,1.96,10.9
49.474611,3.909158,32.07,-0.73,1.29,10.03
49.474611,3.909158,32.07,-0.38,1.5,9.85
49.474345,3.909344,32.27,-1.0,1.59,8.35
49.474345,3.909344,32.27,0.3,1.81,9.92
49.474079,3.909531,32.16,0.64,0.28,11.62
49.474079,3.909531,32.16,0.36,1.16,10.12
49.473816,3.909722,32.19,-1.35,1.05,11.27
49.473816,3.909722,32.19,-1.18,1.43,9.96
49.473551,3.909915,32.18,-0.73,1.33,9.62
49.473551,3.909915,32.18,0.27,1.83,11.51
49.47329,3.910104,32.17,-0.46,1.76,9.86
49.47329,3.910104,32.17,-0.38,1.22,8.94
49.473029,3.910294,32.2,-0.14,1.46,8.21
49.473029,3.910294,32.2,0.37,0.73,8.9
49.472769,3.910484,32.3,-0.3,0.69,10.66
49.472769,3.910484,32.3,-0.31,0.99,10.89
49.472506,3.910677,32.31,-1.63,1.15,10.73
49.472506,3.910677,32.31,-0.59,1.69,10.33
49.472244,3.910871,32.32,-0.99,1.35,10.2
49.472244,3.910871,32.32,-1.48,1.21,8.94
49.471984,3.91107,32.25,-1.21,1.24,8.76
49.471984,3.91107,32.25,-1.02,1.41,7.95
49.471728,3.911271,32.29,0.08,1.66,7.96
49.471728,3.911271,32.29,-0.25,0.79,11.59
49.471468,3.911475,32.26,1.37,1.86,9.91
49.471468,3.911475,32.26,-0.45,2.56,10.33
49.47121,3.911679,32.29,0.05,1.81,8.87
49.47121,3.911679,32.29,0.06,2.18,8.69
49.470949,3.911886,32.43,-0.24,1.8,8.45
49.470949,3.911886,32.43,0.84,1.2,10.01
49.470686,3.912088,32.36,-0.87,2.01,8.97
49.470686,3.912088,32.36,-1.4,1.88,10.07
49.470422,3.912286,32.61,-0.92,1.77,9.39
49.470422,3.912286,32.61,0.36,0.16,9.74
49.470157,3.912487,32.54,0.3,1.04,8.92
49.470157,3.912487,32.54,-1.54,1.37,9.62
49.469894,3.912687,32.67,-0.56,1.57,9.14
49.469894,3.912687,32.67,-0.74,0.79,9.28
49.469633,3.912888,32.72,0.33,0.77,11.8
49.469633,3.912888,32.72,-0.68,1.75,10.68
49.46937,3.91309,32.71,-0.26,2.01,10.82
49.469107,3.913287,32.64,-0.36,1.68,9.73
49.469107,3.913287,32.64,0.53,0.43,10.36
49.468843,3.91349,32.58,-0.12,0.72,12.84
49.468843,3.91349,32.58,-0.55,1.88,11.08
49.468579,3.913693,32.49,-0.11,1.78,8.51
49.468579,3.913693,32.49,-0.01,1.93,9.46
49.468316,3.913895,32.47,-0.12,0.93,10.98
49.468316,3.913895,32.47,-1.23,1.18,10.3
49.468055,3.914095,32.41,1.27,0.92,11.28
49.468055,3.914095,32.41,-1.17,1.72,11.05
49.467793,3.914298,32.32,-1.7,1.39,12.34
49.467793,3.914298,32.32,-0.48,1.3,9.59
49.467535,3.914495,32.32,-0.5,1.78,8.54
49.467535,3.914495,32.32,-0.47,-0.32,11.89
49.467277,3.914693,32.47,0.37,0.98,10.68
49.467277,3.914693,32.47,-0.77,1.83,12.79
49.467016,3.914896,32.47,0.13,1.8,11.54
49.467016,3.914896,32.47,0.08,1.83,11.48
49.466756,3.915096,32.5,-0.78,2.09,9.91
49.466756,3.915096,32.5,0.12,0.45,11.37
49.466492,3.9153,32.51,0.34,0.52,12.5
49.466492,3.9153,32.51,-1.29,2.09,10.87
49.466231,3.915503,32.5,0.54,1.32,10.31
49.466231,3.915503,32.5,-0.45,1.23,8.98
49.465972,3.915703,32.48,-0.47,1.49,10.33
49.465972,3.915703,32.48,-0.51,1.18,12.26
49.465709,3.915903,32.42,-1.92,1.71,11.2
49.465709,3.915903,32.42,-1.09,1.42,11.62
49.465447,3.916105,32.19,-0.59,1.66,10.36
49.465447,3.916105,32.19,-0.04,1.36,10.06
49.465188,3.916303,32.08,0.38,1.41,8.8
49.465188,3.916303,32.08,-0.75,2.15,8.4
49.46493,3.916496,31.96,0.55,1.71,8.68
49.46493,3.916496,31.96,-0.42,2.02,9.76
49.464674,3.916691,31.97,-0.19,2.11,9.74
49.464674,3.916691,31.97,0.2,1.91,9.78
49.464418,3.916889,31.89,-0.81,1.09,8.82
49.464418,3.916889,31.89,0.54,2.17,8.41
49.464162,3.917088,31.73,-0.39,1.75,9.39
49.463907,3.917283,31.67,-0.45,2.34,9.68
49.463907,3.917283,31.67,-0.33,1.55,10.2
49.463652,3.917478,31.76,-1.5,2.5,8.06
49.463652,3.917478,31.76,-0.24,2.53,8.35
49.463396,3.917674,31.78,-0.41,2.27,11.51
49.463396,3.917674,31.78,-0.57,2.23,11.17
49.46314,3.917871,31.76,-0.91,1.29,10.28
49.46314,3.917871,31.76,-0.41,2.14,9.11
49.462883,3.918067,31.82,-0.03,2.32,9.71
49.462883,3.918067,31.82,0.01,1.63,10.8
49.462628,3.918263,32.0,-1.15,2.15,10.06
49.462628,3.918263,32.0,-0.46,2.0,11.05
49.462371,3.918456,32.15,-0.29,1.86,10.15
49.462371,3.918456,32.15,-0.23,1.73,10.28
49.46211,3.918651,32.28,0.26,1.44,9.16
49.46211,3.918651,32.28,-0.43,0.59,11.39
49.461849,3.918848,32.38,0.47,0.91,8.88
49.461849,3.918848,32.38,-1.29,1.59,8.49
49.461585,3.919041,32.55,-0.09,2.32,8.04
49.461585,3.919041,32.55,0.95,1.07,10.84
49.461319,3.91923,32.72,-0.76,0.77,11.05
49.461319,3.91923,32.72,-1.1,2.55,11.69
49.461054,3.919421,32.87,-0.56,1.58,8.98
49.461054,3.919421,32.87,0.53,1.17,9.64
49.460784,3.919611,32.94,-0.39,1.76,10.0
49.460784,3.919611,32.94,0.07,1.87,7.8
49.460512,3.919802,33.06,0.81,1.36,11.49
49.460512,3.919802,33.06,-0.2,1.78,10.57
49.460242,3.919993,33.0,-0.23,1.29,8.02
49.460242,3.919993,33.0,-0.17,1.23,9.21
49.459973,3.920181,32.92,0.6,1.04,10.57
49.459973,3.920181,32.92,0.51,1.41,7.57
49.459702,3.920364,32.93,-0.12,0.28,10.55
49.459702,3.920364,32.93,-0.5,1.5,11.27
49.459432,3.920545,32.95,-0.05,1.79,9.27
49.459432,3.920545,32.95,-0.75,0.95,10.33
49.459165,3.920722,33.12,-0.27,1.76,11.62
49.459165,3.920722,33.12,0.29,0.78,8.64
49.458898,3.920899,33.28,-0.35,2.09,11.59
49.458628,3.921075,33.31,0.02,1.36,9.64
49.458628,3.921075,33.31,-0.74,1.43,10.41
49.458352,3.921255,33.51,0.05,0.94,8.87
49.458352,3.921255,33.51,0.49,-0.05,9.91
49.458076,3.92143,33.1,-0.68,1.73,9.62
49.458076,3.92143,33.1,-0.25,0.25,8.1
49.457807,3.921597,32.74,0.26,0.52,9.07
49.457807,3.921597,32.74,-0.57,1.47,9.82
49.457538,3.921761,32.42,-0.71,0.94,9.17
49.457538,3.921761,32.42,0.41,1.99,8.7
49.457271,3.921925,32.8,-0.02,0.25,10.25
49.457271,3.921925,32.8,-1.89,2.13,10.54
49.456996,3.922089,33.09,0.32,1.83,9.41
49.456996,3.922089,33.09,0.36,0.75,11.12
49.456722,3.922251,33.1,-0.5,2.23,8.94
49.456722,3.922251,33.1,0.02,1.46,8.26
49.456443,3.922416,33.09,-0.04,0.25,11.25
49.456443,3.922416,33.09,-0.92,1.49,9.05
49.456163,3.92258,33.15,-0.17,0.46,9.8
49.456163,3.92258,33.15,0.81,1.2,11.55
49.455883,3.922742,33.0,-0.36,1.15,9.59
49.455883,3.922742,33.0,0.36,0.97,9.89
49.455603,3.922895,32.81,0.23,-0.54,9.65
49.455603,3.922895,32.81,0.14,1.17,10.69
49.455324,3.92305,32.26,-0.69,1.23,9.7
49.455324,3.92305,32.26,-1.03,1.3,9.78
49.455049,3.923199,32.34,0.35,1.57,8.21
49.455049,3.923199,32.34,-1.3,0.27,11.42
49.454774,3.923351,32.56,-0.3,-0.16,9.49
49.454774,3.923351,32.56,0.09,1.27,9.56
49.454499,3.923501,32.64,0.12,0.94,9.75
49.454499,3.923501,32.64,0.22,1.73,8.71
49.454223,3.923648,32.65,0.86,0.75,12.32
49.454223,3.923648,32.65,-1.21,1.62,10.91
49.45395,3.923788,32.51,-0.74,1.17,10.57
49.45395,3.923788,32.51,-0.37,2.1,9.53
49.453679,3.92393,32.46,-0.06,0.9,9.3
49.453679,3.92393,32.46,-0.47,0.59,11.62
49.453409,3.924073,32.35,-1.07,0.57,10.2
49.453409,3.924073,32.35,-0.88,1.17,10.71
49.453131,3.924218,32.34,0.3,1.0,10.72
49.453131,3.924218,32.34,-1.44,1.42,9.15
49.452848,3.92436,32.42,-0.45,1.67,9.03
49.45257,3.924495,32.45,-0.63,1.03,8.87
49.45257,3.924495,32.45,-0.28,0.39,9.87
49.452294,3.924626,32.53,-0.49,1.05,10.29
49.452294,3.924626,32.53,-0.07,1.24,9.71
49.452013,3.924758,32.59,-0.77,1.7,9.49
49.452013,3.924758,32.59,0.76,1.39,10.74
49.451729,3.924889,32.67,-0.32,1.16,8.15
49.451729,3.924889,32.67,-0.5,1.67,11.42
49.451447,3.925015,32.89,-0.92,1.36,8.61
49.451447,3.925015,32.89,-0.34,1.18,9.37
49.451167,3.925142,33.04,-1.01,1.03,10.51
49.451167,3.925142,33.04,-0.45,1.03,9.67
49.450882,3.925275,33.15,0.59,0.96,8.09
49.450882,3.925275,33.15,-0.38,2.29,11.08
49.450595,3.925407,33.31,-0.18,0.52,10.31
49.450595,3.925407,33.31,0.11,1.7,10.48
49.450304,3.925536,33.49,-0.41,1.33,9.76
49.450304,3.925536,33.49,-0.27,1.61,10.29
49.450011,3.925664,33.49,0.44,0.85,9.18
49.450011,3.925664,33.49,-0.43,0.19,10.9
49.449718,3.925791,33.41,-0.46,0.87,8.62
49.449718,3.925791,33.41,-0.26,1.67,10.35
49.449428,3.925911,33.39,0.31,1.78,8.98
49.449428,3.925911,33.39,-1.31,0.46,11.01
49.449135,3.926027,33.4,-1.27,1.01,9.42
49.449135,3.926027,33.4,0.81,0.65,9.53
49.448843,3.926143,33.45,-0.21,1.72,11.22
49.448843,3.926143,33.45,-0.42,0.62,9.37
49.448549,3.926256,33.45,-0.02,1.06,8.15
49.448549,3.926256,33.45,0.36,0.12,9.42
49.448257,3.926367,33.32,-1.27,1.66,8.79
49.448257,3.926367,33.32,-0.01,0.96,9.93
49.447961,3.926478,33.31,-0.58,2.25,10.71
49.447961,3.926478,33.31,-0.44,1.22,9.18
49.447671,3.926586,33.21,-0.64,1.43,10.54
49.447671,3.926586,33.21,-0.79,1.18,9.31
49.44738,3.926691,33.12,-0.31,0.65,9.48
49.44738,3.926691,33.12,-0.94,1.74,10.88
49.447085,3.926793,33.17,0.76,0.72,9.58
49.447085,3.926793,33.17,0.67,0.87,9.67
49.446786,3.926895,33.15,-0.58,1.84,9.97
49.446495,3.926999,33.05,0.71,0.85,8.68
49.446495,3.926999,33.05,-1.14,0.8,9.71
49.4462,3.927103,32.97,0.14,1.92,10.86
49.4462,3.927103,32.97,-0.04,2.04,9.44
49.445907,3.9272,33.01,-0.07,0.83,11.99
49.445907,3.9272,33.01,0.31,1.95,9.34
49.445611,3.927301,33.19,-0.78,0.74,10.22
49.445611,3.927301,33.19,-0.3,1.62,11.16
49.445318,3.927397,33.27,-0.11,1.97,10.55
49.445318,3.927397,33.27,-0.12,2.43,10.7
49.445021,3.927489,33.13,-0.52,1.69,9.73
49.445021,3.927489,33.13,-1.29,1.59,11.45
49.444726,3.927582,33.65,-0.18,1.19,8.53
49.444726,3.927582,33.65,-0.53,1.59,10.49
49.444423,3.927672,33.83,0.34,0.35,9.22
49.444423,3.927672,33.83,-0.38,2.17,8.94
49.444121,3.927759,33.59,-1.22,0.74,10.53
49.444121,3.927759,33.59,-0.1,2.24,9.98
49.443823,3.927845,33.68,0.3,0.95,10.38
49.443823,3.927845,33.68,-0.13,0.81,10.6
49.44353,3.927932,33.64,-0.54,1.2,10.28
49.44353,3.927932,33.64,-0.5,0.95,9.47
49.44323,3.928007,33.66,0.07,1.54,9.91
49.44323,3.928007,33.66,-1.01,1.0,10.01
49.442932,3.928081,33.57,-0.81,0.66,10.35
49.442932,3.928081,33.57,0.4,0.58,10.9
49.442635,3.928154,33.33,0.09,1.34,11.6
49.442635,3.928154,33.33,-1.62,1.71,10.2
49.442345,3.928225,33.3,-1.81,1.21,12.29
49.442345,3.928225,33.3,-1.94,1.16,11.31
49.442052,3.928309,33.32,-0.91,0.42,10.18
49.442052,3.928309,33.32,-0.58,2.24,10.4
49.44176,3.928391,33.18,-0.98,0.92,9.77
49.44176,3.928391,33.18,0.21,1.06,9.47
49.441467,3.928476,33.11,-0.48,1.47,9.83
49.441467,3.928476,33.11,-0.91,1.21,8.03
49.441176,3.92856,33.15,0.65,1.06,11.67
49.441176,3.92856,33.15,-0.28,1.56,7.66
49.440882,3.928639,33.39,-1.02,1.59,10.91
49.440882,3.928639,33.39,0.44,2.04,9.2
49.440589,3.92872,33.58,-1.43,1.04,9.97
49.44029,3.928792,33.96,0.34,0.91,8.48
49.44029,3.928792,33.96,-0.18,1.68,11.31
49.439991,3.928866,33.9,0.2,-0.22,10.23
49.439991,3.928866,33.9,-1.25,1.5,8.87
49.439694,3.928941,33.42,-0.99,0.85,8.68
49.439694,3.928941,33.42,-1.59,1.33,10.7
49.439398,3.929017,33.18,-1.15,1.07,9.6
49.439398,3.929017,33.18,0.58,0.84,10.95
49.439105,3.929087,33.11,-1.11,1.49,9.54
49.439105,3.929087,33.11,0.22,1.41,9.66
49.43881,3.929155,33.22,-1.42,0.44,10.52
49.43881,3.929155,33.22,-0.25,1.93,10.66
49.438518,3.929224,32.97,-0.74,1.87,10.04
49.438518,3.929224,32.97,-0.16,0.63,9.46
49.438227,3.929294,32.36,-1.09,1.03,10.25
49.438227,3.929294,32.36,-1.1,1.36,10.96
49.437942,3.929361,32.27,-0.28,1.7,10.36
49.437942,3.929361,32.27,0.26,1.5,9.07
49.437656,3.929437,32.36,-0.12,1.09,9.96
49.437656,3.929437,32.36,0.26,0.88,9.37
49.437369,3.929511,32.01,0.03,0.43,9.6
49.437369,3.929511,32.01,1.04,1.48,8.94
49.437085,3.929578,31.63,-0.27,1.44,8.29
49.437085,3.929578,31.63,1.03,1.9,9.07
49.436807,3.929643,31.61,-0.35,0.99,7.45
49.436807,3.929643,31.61,-0.29,1.44,7.57
49.436525,3.929699,31.66,-1.47,1.56,10.0
49.436525,3.929699,31.66,-1.61,1.72,9.25
49.436246,3.929758,31.75,-1.13,1.68,10.66
49.436246,3.929758,31.75,-0.79,0.94,10.73
49.435962,3.929815,31.66,-0.86,1.69,10.89
49.435962,3.929815,31.66,-0.46,1.92,11.18
49.435681,3.929877,31.72,-1.02,0.54,11.62
49.435681,3.929877,31.72,-0.83,0.43,12.23
49.435399,3.929946,31.76,-0.3,0.79,10.8
49.435399,3.929946,31.76,-0.1,1.55,8.76
49.435118,3.930013,31.81,-0.32,0.79,10.48
49.435118,3.930013,31.81,-0.51,0.45,11.43
49.434835,3.930076,31.78,0.92,1.84,9.01
49.434835,3.930076,31.78,0.89,1.83,9.59
49.43455,3.930141,31.75,0.33,0.99,9.73
49.434266,3.930204,31.89,-0.06,1.37,10.36
49.434266,3.930204,31.89,0.24,1.65,10.62
49.43398,3.930262,31.98,-0.1,0.92,10.74
49.43398,3.930262,31.98,-0.31,0.25,9.36
49.433695,3.93032,32.11,0.37,1.35,10.85
49.433695,3.93032,32.11,-0.46,0.6,9.23
49.433408,3.930379,32.26,0.28,2.07,11.97
49.433408,3.930379,32.26,-0.2,1.35,12.93
49.433118,3.930437,32.39,-1.57,1.49,10.14
49.433118,3.930437,32.39,0.34,2.46,8.52
49.432828,3.930493,32.48,0.05,1.73,7.77
49.432828,3.930493,32.48,-0.17,1.25,10.63
49.432538,3.930544,32.49,-0.15,1.26,10.52
49.432538,3.930544,32.49,0.51,1.35,11.26
49.432247,3.930595,32.59,-0.87,1.84,8.26
49.432247,3.930595,32.59,1.05,1.29,11.3
49.431957,3.93064,32.54,-0.09,1.04,9.51
49.431957,3.93064,32.54,-0.41,1.28,9.71
49.431667,3.930687,32.49,-0.52,1.59,9.41
49.431667,3.930687,32.49,1.83,0.63,7.22
49.431376,3.930734,32.44,-0.75,0.93,7.89
49.431376,3.930734,32.44,0.43,0.94,11.58
49.431085,3.930775,32.45,-0.09,0.9,11.94
49.431085,3.930775,32.45,-0.1,1.28,8.83
49.430797,3.930817,32.48,-1.3,1.84,9.83
49.430797,3.930817,32.48,-0.85,1.41,8.65
49.430509,3.930859,32.48,0.32,0.46,10.81
49.430509,3.930859,32.48,0.07,1.14,9.49
49.430218,3.930896,32.43,-0.07,0.68,9.73
49.430218,3.930896,32.43,-0.85,1.5,9.27
49.429928,3.93093,32.48,0.41,1.0,8.1
49.429928,3.93093,32.48,0.17,1.52,9.43
49.429638,3.930966,32.39,0.22,1.47,8.75
49.429638,3.930966,32.39,-0.51,1.43,10.64
49.429348,3.931001,32.26,-0.02,1.51,10.57
49.429348,3.931001,32.26,-0.65,0.76,11.16
49.429059,3.931032,32.19,0.25,1.12,11.58
49.429059,3.931032,32.19,-0.63,1.61,12.25
49.428772,3.93106,32.15,-0.78,1.57,11.65
49.428484,3.931086,32.13,0.48,1.29,10.57
49.428484,3.931086,32.13,-0.71,1.09,9.87
49.428195,3.931111,32.11,-0.05,1.64,10.07
49.428195,3.931111,32.11,-1.32,2.25,8.57
49.427906,3.931134,32.17,-0.82,1.29,7.56
49.427906,3.931134,32.17,-0.03,1.6,8.44
49.427616,3.931156,32.32,0.33,1.4,8.52
49.427616,3.931156,32.32,0.81,1.14,12.42
49.427325,3.931178,32.35,-0.77,1.73,11.19
49.427325,3.931178,32.35,-0.87,1.38,10.57
49.427032,3.931201,32.48,-0.72,1.5,9.25
49.427032,3.931201,32.48,-0.11,1.69,9.16
49.426739,3.931217,32.58,-0.17,0.9,9.86
49.426739,3.931217,32.58,0.23,2.29,11.05
49.426446,3.931228,32.67,-1.12,1.45,8.45
49.426446,3.931228,32.67,-0.84,1.86,8.15
49.426152,3.931238,32.79,0.31,1.05,8.31
49.426152,3.931238,32.79,-0.19,1.45,10.86
49.425857,3.931243,32.94,-1.0,1.69,8.97
49.425857,3.931243,32.94,-0.14,0.86,8.13
49.42556,3.931256,33.27,0.76,2.25,11.5
49.42556,3.931256,33.27,0.47,1.08,8.91
49.425262,3.931261,33.42,-1.03,2.07,10.86
49.425262,3.931261,33.42,-0.23,1.71,8.59
49.424965,3.93126,33.32,-0.87,1.31,8.89
49.424965,3.93126,33.32,-0.64,1.05,7.48
49.424666,3.931265,33.81,-0.44,1.81,10.86
49.424666,3.931265,33.81,-0.41,0.45,11.74
49.424364,3.931268,33.87,-0.72,1.53,9.57
49.424364,3.931268,33.87,0.01,1.29,9.5
49.42406,3.931278,33.79,-0.03,0.34,9.17
49.42406,3.931278,33.79,-0.75,1.26,7.68
49.423752,3.931284,33.79,-0.08,0.14,7.46
49.423752,3.931284,33.79,-0.11,1.68,9.77
49.423446,3.931285,33.79,-0.22,1.28,12.07
49.423446,3.931285,33.79,-0.71,1.13,9.88
49.423139,3.931284,33.81,-0.64,1.76,8.73
49.423139,3.931284,33.81,-1.33,1.28,11.01
49.422831,3.931285,33.96,-0.66,1.69,8.75
49.422831,3.931285,33.96,-1.36,1.36,10.69
49.422527,3.931285,33.99,-1.5,0.84,8.64
49.422527,3.931285,33.99,-0.98,1.39,7.83
49.422221,3.931285,34.12,-0.14,2.25,11.97
49.421916,3.931284,34.12,0.37,1.45,8.98
49.421916,3.931284,34.12,0.17,1.12,9.17
49.421608,3.931277,34.04,-0.44,1.26,8.77
49.421608,3.931277,34.04,0.14,1.7,10.08
49.421303,3.931273,33.92,-1.13,1.85,10.08
49.421303,3.931273,33.92,-0.22,0.94,11.15
49.420997,3.93127,33.8,-0.63,1.51,9.81
49.420997,3.93127,33.8,-0.27,0.38,10.72
49.420692,3.931274,33.78,-0.36,0.74,8.75
49.420692,3.931274,33.78,0.56,1.19,10.65
49.420388,3.931274,33.78,-1.14,0.71,9.92
49.420388,3.931274,33.78,-0.38,1.9,10.28
49.420083,3.931276,33.85,-0.1,1.05,7.63
49.420083,3.931276,33.85,0.0,1.85,9.96
49.419777,3.931281,33.76,-0.7,2.55,11.47
49.419777,3.931281,33.76,-0.2,1.35,7.76
49.419474,3.931282,33.85,-1.97,2.26,10.73
49.419474,3.931282,33.85,-2.3,1.21,9.11
49.419168,3.931285,33.95,-1.39,2.22,9.99
49.419168,3.931285,33.95,-0.81,1.01,11.03
49.41886,3.931296,33.9,-1.27,0.71,10.43
49.41886,3.931296,33.9,-0.34,1.27,9.69
49.418557,3.931302,33.76,-0.08,0.75,8.72
49.418557,3.931302,33.76,-0.94,1.58,8.61
49.418256,3.931319,33.58,-0.84,1.11,9.44
49.418256,3.931319,33.58,-0.61,1.32,10.57
49.417956,3.931346,33.44,0.02,0.92,10.75
