Location-lat,Location-long,Speed,Accelerometer-X,Accelerometer-Y,Accelerometer-Z
0.0, 0.0, 0.0, 0.73, 0.96, 9.88
0.0, 0.0, 0.0, 0.68, 0.98, 9.86
50.674452, 2.368063, 0.00, 0.34, 1.20, 9.87
50.674452, 2.368063, 0.00, 0.78, 0.77, 9.63
50.674452, 2.368063, 0.00, -0.79, 0.91, 10.01
50.674518, 2.368240, 0.47, -0.49, 0.94, 10.44
50.674518, 2.368240, 0.47, -1.04, 1.01, 10.69
50.674469, 2.368236, 0.49, -1.18, 1.33, 9.55
50.674469, 2.368236, 0.49, -1.26, 1.59, 9.04
50.674445, 2.368241, 0.16, -0.79, 1.02, 9.96
50.674445, 2.368241, 0.16, -0.80, 1.13, 9.87
50.674429, 2.368233, 0.02, -0.83, 1.13, 9.89
50.674429, 2.368233, 0.02, -0.81, 1.13, 9.98
50.674418, 2.368222, 0.07, -0.78, 1.14, 9.87
50.674418, 2.368222, 0.07, -0.60, 1.48, 8.83
50.674404, 2.368248, 0.00, -1.57, 1.21, 9.74
50.674404, 2.368248, 0.00, -0.05, 0.72, 10.04
50.674402, 2.368249, 0.00, -0.00, 0.71, 9.84
50.674402, 2.368249, 0.00, -0.02, 0.61, 10.05
50.674402, 2.368249, 0.00, -0.09, 0.46, 9.55
50.674402, 2.368249, 0.00, -2.10, 1.43, 9.80
50.674390, 2.368258, 0.00, -0.30, 0.90, 9.81
50.674384, 2.368262, 0.00, -0.07, 0.54, 9.50
50.674384, 2.368262, 0.00, -0.32, 0.77, 10.31
50.674379, 2.368265, 0.00, -1.47, 1.81, 10.15
50.674379, 2.368265, 0.00, -2.07, 1.37, 9.50
50.674377, 2.368273, 0.00, -1.70, 1.24, 9.47
50.674377, 2.368273, 0.00, -1.07, 1.66, 10.12
50.674377, 2.368284, 0.00, -0.02, 0.29, 9.74
50.674377, 2.368284, 0.00, -0.20, 0.60, 9.61
50.674375, 2.368299, 0.00, -1.47, 1.75, 9.93
50.674375, 2.368299, 0.00, -1.43, 2.12, 10.13
50.674374, 2.368317, 0.00, 0.34, 0.55, 10.06
50.674374, 2.368317, 0.00, -0.17, 0.07, 9.50
50.674377, 2.368333, 0.00, 0.24, 0.34, 9.83
50.674377, 2.368333, 0.00, -0.37, 0.81, 9.64
50.674379, 2.368347, 0.00, -2.16, 1.78, 9.91
50.674379, 2.368347, 0.00, 0.11, 0.29, 9.60
50.674381, 2.368357, 0.00, -1.56, 1.13, 9.41
50.674381, 2.368357, 0.00, -0.51, 0.62, 10.24
50.674381, 2.368365, 0.00, -1.48, 0.93, 9.45
50.674381, 2.368365, 0.00, 0.61, 0.82, 10.05
50.674380, 2.368370, 0.00, -1.59, 0.75, 9.49
50.674380, 2.368370, 0.00, -1.17, 2.22, 9.96
50.674380, 2.368373, 0.00, -0.08, 0.67, 10.12
50.674380, 2.368373, 0.00, -0.38, 0.38, 10.30
50.674378, 2.368376, 0.00, -0.90, 1.02, 10.30
50.674378, 2.368376, 0.00, -0.78, 1.17, 10.36
50.674375, 2.368385, 0.00, -0.79, 0.79, 9.68
50.674375, 2.368385, 0.00, -1.14, 1.45, 10.25
50.674373, 2.368394, 1.00, 0.54, 0.28, 10.90
50.674373, 2.368394, 1.00, -1.53, 1.37, 9.37
50.674371, 2.368409, 1.26, -0.26, -0.34, 10.68
50.674366, 2.368426, 0.92, -1.14, 0.38, 9.64
50.674366, 2.368426, 0.92, -1.69, 0.02, 9.96
50.674361, 2.368436, 0.89, -2.34, 0.80, 9.83
50.674361, 2.368436, 0.89, -1.93, 1.89, 9.48
50.674355, 2.368442, 0.00, -2.52, 1.71, 9.82
50.674355, 2.368442, 0.00, -0.68, 0.36, 10.13
50.674353, 2.368442, 0.00, -1.44, 1.14, 9.68
50.674353, 2.368442, 0.00, -1.03, 0.41, 9.51
50.674353, 2.368442, 0.00, -1.02, 1.41, 9.83
50.674353, 2.368442, 0.00, -0.92, 1.66, 9.82
50.674353, 2.368442, 0.00, -1.75, 1.88, 10.07
50.674353, 2.368442, 0.00, -1.97, 2.33, 9.80
50.674353, 2.368442, 0.00, -1.17, 0.52, 8.93
50.674353, 2.368442, 0.00, -2.12, 2.02, 10.05
50.674365, 2.368454, 2.45, -1.77, 1.37, 9.68
50.674365, 2.368454, 2.45, -2.25, 1.31, 9.57
50.674393, 2.368483, 4.41, -1.70, 1.35, 10.25
50.674393, 2.368483, 4.41, -0.14, 0.38, 8.98
50.674433, 2.368524, 5.03, -2.37, 1.22, 9.68
50.674433, 2.368524, 5.03, -1.53, 0.69, 10.06
50.674480, 2.368564, 5.32, -2.64, 0.98, 10.17
50.674480, 2.368564, 5.32, -1.98, 1.40, 10.14
50.674529, 2.368610, 6.21, -1.14, 2.20, 10.37
50.674529, 2.368610, 6.21, -0.91, 1.79, 9.18
50.674584, 2.368664, 7.15, -0.59, 1.92, 9.46
50.674584, 2.368664, 7.15, -0.34, 2.25, 9.66
50.674645, 2.368727, 7.75, -0.81, 1.56, 9.64
50.674645, 2.368727, 7.75, -1.68, 1.89, 9.28
50.674703, 2.368804, 8.05, -0.14, 1.41, 9.48
50.674703, 2.368804, 8.05, -0.08, 0.38, 9.22
50.674756, 2.368899, 8.56, -2.32, 1.64, 9.31
50.674798, 2.369013, 9.09, -1.73, 0.98, 8.89
50.674798, 2.369013, 9.09, -2.31, 1.34, 11.33
50.674840, 2.369137, 10.26, -0.63, 1.36, 7.47
50.674840, 2.369137, 10.26, -1.84, 1.70, 9.51
50.674888, 2.369272, 11.07, -2.45, 1.38, 9.08
50.674888, 2.369272, 11.07, -1.45, 0.78, 10.48
50.674938, 2.369421, 12.13, -1.53, 0.64, 10.40
50.674938, 2.369421, 12.13, -0.77, 0.51, 9.87
50.674993, 2.369573, 12.15, 0.11, 0.03, 9.04
50.674993, 2.369573, 12.15, -0.13, 0.10, 10.61
50.675054, 2.369716, 11.68, -0.29, -0.15, 11.35
50.675054, 2.369716, 11.68, -1.10, -0.33, 9.53
50.675119, 2.369845, 11.10, -0.30, -0.01, 8.58
50.675119, 2.369845, 11.10, -0.33, 0.88, 10.45
50.675188, 2.369961, 10.69, -1.43, -0.32, 10.92
50.675188, 2.369961, 10.69, 0.89, 1.22, 7.68
50.675256, 2.370063, 10.14, -2.92, -0.39, 14.25
50.675256, 2.370063, 10.14, -1.14, -0.40, 11.83
50.675325, 2.370148, 9.51, -0.29, -0.55, 8.86
50.675325, 2.370148, 9.51, -0.64, 0.00, 8.86
50.675393, 2.370220, 8.95, -0.58, 0.21, 10.41
50.675393, 2.370220, 8.95, -1.76, -0.79, 8.89
50.675464, 2.370277, 8.78, -1.90, 0.23, 10.04
50.675464, 2.370277, 8.78, -0.52, -0.20, 8.94
50.675550, 2.370306, 8.91, -1.51, -0.20, 11.35
50.675550, 2.370306, 8.91, -0.05, 0.99, 8.91
50.675635, 2.370319, 8.91, -1.13, 1.26, 8.77
50.675635, 2.370319, 8.91, 0.03, 1.18, 12.84
50.675715, 2.370329, 8.43, -1.66, 0.64, 11.64
50.675715, 2.370329, 8.43, 0.15, 1.01, 8.94
50.675790, 2.370335, 7.79, -1.27, 0.49, 9.45
50.675790, 2.370335, 7.79, -1.36, 0.65, 10.17
50.675856, 2.370339, 7.20, -0.34, 1.09, 10.66
50.675920, 2.370344, 6.82, -0.25, 1.13, 8.06
50.675920, 2.370344, 6.82, -0.26, -0.49, 9.06
50.675979, 2.370342, 5.98, 0.09, 0.54, 10.56
50.675979, 2.370342, 5.98, -0.99, 0.96, 9.67
50.676031, 2.370342, 5.44, -1.90, 0.98, 6.59
50.676031, 2.370342, 5.44, -2.99, 0.20, 9.39
50.676078, 2.370340, 5.70, -1.67, 0.92, 9.37
50.676078, 2.370340, 5.70, -1.11, 3.29, 9.26
50.676132, 2.370340, 6.80, -0.57, 0.72, 10.49
50.676132, 2.370340, 6.80, -0.71, 0.07, 9.62
50.676195, 2.370338, 7.18, -0.74, 1.67, 9.14
50.676195, 2.370338, 7.18, -0.95, 1.24, 9.50
50.676262, 2.370341, 7.28, 0.18, 1.27, 10.43
50.676262, 2.370341, 7.28, 0.74, 0.83, 9.38
50.676327, 2.370346, 6.99, 0.73, 1.47, 10.39
50.676327, 2.370346, 6.99, -1.08, 2.04, 10.27
50.676391, 2.370351, 6.61, -1.27, 1.58, 11.00
50.676391, 2.370351, 6.61, -0.47, 2.72, 10.06
50.676455, 2.370367, 7.14, -0.66, 2.64, 9.73
50.676455, 2.370367, 7.14, -1.23, 2.04, 10.26
50.676522, 2.370408, 8.23, -2.06, 2.97, 9.81
50.676522, 2.370408, 8.23, -0.49, 1.21, 11.04
50.676590, 2.370473, 8.92, -0.02, 1.68, 9.57
50.676590, 2.370473, 8.92, -0.73, 1.01, 9.90
50.676655, 2.370551, 8.89, -1.14, 1.09, 9.26
50.676655, 2.370551, 8.89, 0.86, 0.35, 9.54
50.676717, 2.370630, 8.67, -0.60, 0.64, 9.67
50.676717, 2.370630, 8.67, -0.84, 1.40, 9.73
50.676776, 2.370708, 8.14, -0.95, 1.98, 10.06
50.676776, 2.370708, 8.14, -1.82, 2.59, 9.44
50.676837, 2.370790, 8.68, -1.26, 2.38, 9.95
50.676837, 2.370790, 8.68, -1.57, 1.81, 9.07
50.676898, 2.370886, 9.54, -1.15, 1.66, 9.57
50.676957, 2.370998, 10.55, -2.04, 1.20, 9.42
50.676957, 2.370998, 10.55, -1.17, 1.38, 9.22
50.677016, 2.371129, 11.42, -1.12, 2.25, 10.02
50.677016, 2.371129, 11.42, -0.56, 1.00, 10.25
50.677075, 2.371264, 11.32, -0.64, -1.15, 10.07
50.677075, 2.371264, 11.32, -0.75, 2.39, 8.51
50.677134, 2.371398, 11.49, -2.10, 0.38, 9.84
50.677134, 2.371398, 11.49, -1.01, 1.68, 10.59
50.677193, 2.371539, 12.47, -0.27, 2.09, 9.79
50.677193, 2.371539, 12.47, -1.41, 1.36, 10.66
50.677256, 2.371688, 13.29, 0.39, 0.28, 9.25
50.677256, 2.371688, 13.29, 0.87, 0.61, 9.20
50.677316, 2.371842, 12.71, -0.49, 1.46, 9.32
50.677316, 2.371842, 12.71, -1.10, 1.22, 10.53
50.677374, 2.371994, 12.70, -1.53, 0.16, 10.72
50.677374, 2.371994, 12.70, 0.57, 0.37, 9.07
50.677432, 2.372144, 12.53, -0.91, 1.03, 9.72
50.677432, 2.372144, 12.53, -0.45, 1.26, 10.31
50.677489, 2.372290, 12.09, 0.57, 1.86, 9.14
50.677489, 2.372290, 12.09, -0.85, 1.45, 8.86
50.677545, 2.372432, 11.87, 0.08, 2.42, 9.42
50.677545, 2.372432, 11.87, -0.56, 1.82, 10.17
50.677593, 2.372582, 11.80, -0.36, 3.06, 10.43
50.677593, 2.372582, 11.80, -0.57, 2.56, 9.45
50.677628, 2.372745, 12.27, -0.45, 2.66, 9.18
50.677628, 2.372745, 12.27, -1.22, 2.76, 8.77
50.677645, 2.372924, 12.85, -1.66, 2.36, 11.22
50.677645, 2.372924, 12.85, -1.41, 2.59, 8.19
50.677649, 2.373117, 13.92, -1.10, 2.41, 8.91
50.677649, 2.373117, 13.92, -1.54, 1.52, 10.83
50.677638, 2.373326, 14.95, -2.02, 1.93, 9.16
50.677638, 2.373326, 14.95, 0.49, 0.52, 10.24
50.677620, 2.373547, 15.61, 1.30, 0.13, 10.06
50.677603, 2.373757, 14.21, 1.89, 0.32, 10.89
50.677603, 2.373757, 14.21, 2.43, 0.58, 10.99
50.677587, 2.373930, 10.92, 1.81, -0.44, 10.81
50.677587, 2.373930, 10.92, 2.71, -0.38, 9.75
50.677575, 2.374059, 7.66, 1.03, -0.81, 9.98
50.677575, 2.374059, 7.66, 0.23, -0.24, 11.54
50.677560, 2.374148, 5.80, 0.04, -1.12, 8.98
50.677560, 2.374148, 5.80, 0.16, 0.41, 10.61
50.677549, 2.374214, 4.01, 0.75, -1.44, 10.04
50.677549, 2.374214, 4.01, -0.76, 1.16, 10.09
50.677542, 2.374259, 2.87, -0.89, -0.74, 10.32
50.677542, 2.374259, 2.87, -1.02, 0.81, 10.05
50.677539, 2.374292, 2.23, -0.50, -0.27, 9.56
50.677539, 2.374292, 2.23, -0.76, 0.49, 10.32
50.677537, 2.374318, 1.72, -1.48, 0.98, 9.80
50.677537, 2.374318, 1.72, -0.41, 0.58, 10.35
50.677536, 2.374339, 1.42, -0.62, -0.69, 10.01
50.677536, 2.374339, 1.42, -2.50, 1.11, 9.68
50.677535, 2.374358, 1.45, -3.06, 1.55, 9.61
50.677535, 2.374358, 1.45, -3.32, 0.98, 9.91
50.677534, 2.374387, 2.84, -2.86, 1.20, 9.19
50.677534, 2.374387, 2.84, -2.94, 2.08, 9.10
50.677535, 2.374445, 4.83, -2.59, 1.53, 9.59
50.677535, 2.374445, 4.83, -2.34, 1.65, 10.37
50.677535, 2.374531, 6.80, 0.24, 0.41, 10.09
50.677535, 2.374531, 6.80, -0.10, 0.50, 9.55
50.677533, 2.374628, 6.77, -2.88, 1.47, 9.74
50.677533, 2.374628, 6.77, -2.15, 0.56, 9.63
50.677528, 2.374732, 7.91, -2.30, 0.24, 11.65
50.677528, 2.374732, 7.91, -0.85, 0.43, 11.81
50.677523, 2.374852, 8.83, -0.02, 0.09, 7.39
50.677523, 2.374852, 8.83, -2.67, -0.38, 8.22
50.677518, 2.374974, 8.51, -0.39, 0.28, 9.69
50.677518, 2.374974, 8.51, 0.03, 0.33, 9.17
50.677518, 2.375095, 8.27, -4.28, 0.79, 10.40
50.677526, 2.375213, 8.33, -1.94, 1.24, 9.00
50.677526, 2.375213, 8.33, -3.50, 0.39, 9.00
50.677546, 2.375332, 9.09, -1.96, -0.96, 10.26
50.677546, 2.375332, 9.09, -2.72, -0.70, 9.45
50.677579, 2.375458, 9.71, -2.25, 0.23, 10.60
50.677579, 2.375458, 9.71, -1.45, -0.21, 8.70
50.677626, 2.375572, 9.76, -0.63, 0.92, 9.45
50.677626, 2.375572, 9.76, -1.52, 0.40, 9.69
50.677680, 2.375677, 9.25, -1.41, 1.00, 10.86
50.677680, 2.375677, 9.25, -0.93, 2.40, 7.35
50.677733, 2.375775, 8.65, -0.67, 2.41, 8.91
50.677733, 2.375775, 8.65, -0.48, -0.64, 8.40
50.677783, 2.375866, 8.79, 0.05, -0.85, 10.84
50.677783, 2.375866, 8.79, 0.17, 0.67, 4.69
50.677837, 2.375957, 8.07, -0.66, 0.71, 4.88
50.677837, 2.375957, 8.07, -0.22, 0.75, 11.24
50.677890, 2.376042, 8.16, -3.75, 0.18, 7.74
50.677890, 2.376042, 8.16, -4.68, 1.23, 12.73
50.677944, 2.376125, 8.47, -1.35, 1.27, 8.45
50.677944, 2.376125, 8.47, -2.16, 1.71, 9.16
50.678004, 2.376208, 9.04, -1.58, 2.89, 9.24
50.678004, 2.376208, 9.04, -1.10, 2.13, 8.64
50.678066, 2.376298, 9.57, -0.55, 3.08, 8.22
50.678066, 2.376298, 9.57, -0.94, 2.77, 8.91
50.678125, 2.376401, 9.95, -1.25, 2.08, 8.79
50.678125, 2.376401, 9.95, -2.36, 1.93, 8.45
50.678179, 2.376522, 10.64, -1.92, 2.35, 9.01
50.678179, 2.376522, 10.64, -2.73, 1.19, 9.95
50.678226, 2.376662, 11.25, -1.64, 0.97, 7.97
50.678226, 2.376662, 11.25, -1.32, 0.93, 9.30
50.678265, 2.376809, 11.54, -0.60, 1.09, 8.89
50.678265, 2.376809, 11.54, -2.24, 0.96, 10.62
50.678309, 2.376957, 11.96, -1.03, 1.60, 8.56
50.678309, 2.376957, 11.96, -1.48, 1.31, 10.71
50.678356, 2.377106, 12.34, -2.04, 0.57, 10.34
50.678356, 2.377106, 12.34, -2.06, 0.07, 10.06
50.678406, 2.377259, 12.70, -1.91, 0.21, 9.89
50.678458, 2.377422, 12.57, -1.70, 2.26, 8.35
50.678458, 2.377422, 12.57, -1.55, -0.27, 9.10
50.678518, 2.377583, 13.12, -1.34, 0.60, 7.80
50.678518, 2.377583, 13.12, -1.41, 1.50, 13.05
50.678586, 2.377736, 13.45, -1.31, 0.06, 9.33
50.678586, 2.377736, 13.45, -2.29, 0.60, 9.85
50.678659, 2.377881, 13.74, -2.49, -0.24, 10.75
50.678659, 2.377881, 13.74, -0.66, 0.26, 11.42
50.678738, 2.378022, 13.42, 0.66, 0.54, 7.69
50.678738, 2.378022, 13.42, -2.65, 1.63, 10.96
50.678821, 2.378162, 13.19, -0.05, 0.50, 9.70
50.678821, 2.378162, 13.19, -0.37, 0.08, 9.69
50.678905, 2.378295, 12.63, -0.31, -1.01, 10.04
50.678905, 2.378295, 12.63, -0.40, 0.10, 9.97
50.678984, 2.378424, 11.89, -0.46, 0.46, 10.90
50.678984, 2.378424, 11.89, 0.27, -0.69, 11.35
50.679056, 2.378540, 10.59, 0.31, 0.91, 9.56
50.679056, 2.378540, 10.59, -0.36, 0.09, 9.37
50.679121, 2.378644, 9.77, -0.56, 0.38, 10.66
50.679121, 2.378644, 9.77, -0.77, -0.60, 9.74
50.679180, 2.378736, 8.48, -0.79, -0.16, 9.96
50.679180, 2.378736, 8.48, -0.45, -1.04, 9.15
50.679227, 2.378812, 6.99, -0.78, -0.64, 8.43
50.679227, 2.378812, 6.99, 1.92, -0.62, 9.89
50.679265, 2.378876, 5.92, 0.71, -0.46, 10.10
50.679265, 2.378876, 5.92, -0.88, 0.17, 10.03
50.679295, 2.378924, 4.48, -0.54, 0.74, 9.63
50.679295, 2.378924, 4.48, -0.69, 0.68, 10.07
50.679316, 2.378959, 3.45, -0.84, 0.39, 10.27
50.679316, 2.378959, 3.45, -0.91, -0.76, 9.73
50.679334, 2.378989, 2.73, -0.87, -0.21, 9.63
50.679334, 2.378989, 2.73, -0.90, -0.65, 10.14
50.679344, 2.379006, 1.73, 0.40, -0.21, 10.26
50.679344, 2.379006, 1.73, -0.90, 0.65, 9.83
50.679344, 2.379006, 0.00, -1.84, 0.85, 9.22
50.679344, 2.379006, 0.00, -1.40, 1.26, 9.48
50.679344, 2.379006, 0.00, -1.86, 0.97, 9.88
50.679344, 2.379006, 0.00, -1.52, 0.13, 9.78
50.679344, 2.379006, 0.00, -2.20, 0.31, 9.82
50.679344, 2.379006, 0.00, -1.24, 0.45, 10.20
50.679344, 2.379006, 0.00, -1.51, -0.07, 9.77
50.679344, 2.379006, 0.00, -1.60, -0.11, 9.56
50.679344, 2.379006, 0.00, -1.68, 0.10, 9.63
50.679344, 2.379006, 0.00, -1.66, 0.11, 9.86
50.679344, 2.379006, 0.00, -1.66, 1.03, 9.41
50.679344, 2.379006, 0.00, -1.42, 1.35, 9.78
50.679344, 2.379006, 0.00, -1.40, 1.10, 9.62
50.679344, 2.379006, 0.00, -1.45, 0.61, 9.80
50.679344, 2.379006, 0.00, -1.56, 0.08, 10.03
50.679344, 2.379006, 0.00, -1.83, 0.52, 10.03
50.679344, 2.379006, 0.00, -2.21, 0.77, 9.37
50.679344, 2.379006, 0.00, -0.80, 1.21, 10.05
50.679344, 2.379006, 0.00, -1.84, 0.18, 10.00
50.679344, 2.379006, 0.00, -1.63, 1.32, 9.80
50.679344, 2.379006, 0.00, -1.40, 0.45, 9.75
50.679344, 2.379006, 0.00, -1.97, 0.56, 10.06
50.679344, 2.379006, 0.00, -1.57, 1.32, 9.46
50.679344, 2.379006, 0.00, -1.30, 0.30, 9.40
50.679344, 2.379006, 0.00, -1.74, 0.73, 9.99
50.679344, 2.379006, 0.00, -1.58, 1.30, 9.63
50.679344, 2.379006, 0.00, -1.34, -0.33, 9.93
50.679344, 2.379006, 0.00, -0.94, -0.28, 9.76
50.679344, 2.379006, 0.00, -2.15, 0.82, 9.55
50.679344, 2.379006, 0.00, -2.01, 0.97, 9.19
50.679344, 2.379006, 0.00, -1.74, 1.21, 9.95
50.679344, 2.379006, 0.00, -1.70, 0.92, 9.82
50.679344, 2.379006, 0.00, -1.59, 0.39, 9.58
50.679344, 2.379006, 0.00, -1.32, 1.11, 9.99
50.679344, 2.379006, 0.00, -1.48, 0.81, 9.67
50.679344, 2.379006, 0.00, -2.22, 0.25, 9.76
50.679344, 2.379006, 0.00, -1.26, 1.20, 10.03
50.679344, 2.379006, 0.00, -1.58, 0.86, 10.04
50.679344, 2.379006, 0.00, -2.07, 0.42, 9.38
50.679344, 2.379006, 0.00, -1.74, 0.77, 9.89
50.679344, 2.379006, 0.00, -1.96, 1.53, 9.96
50.679344, 2.379006, 0.00, -2.89, 1.27, 9.44
50.679351, 2.379022, 0.82, -3.39, 1.46, 10.25
50.679351, 2.379022, 0.82, -3.49, 0.90, 9.98
50.679362, 2.379046, 2.80, -4.80, 0.61, 9.06
50.679362, 2.379046, 2.80, -3.29, -0.23, 10.08
50.679386, 2.379086, 4.50, -3.55, -0.78, 10.04
50.679386, 2.379086, 4.50, -3.51, -0.90, 10.00
50.679431, 2.379113, 5.67, -3.20, -0.46, 9.02
50.679431, 2.379113, 5.67, -1.41, -0.52, 10.11
50.679488, 2.379102, 6.17, -1.40, -0.17, 10.57
50.679488, 2.379102, 6.17, -2.98, 0.82, 9.41
50.679544, 2.379056, 6.76, -2.72, 1.98, 9.74
50.679544, 2.379056, 6.76, -2.30, 2.43, 9.62
50.679601, 2.378995, 7.87, -3.20, 1.75, 9.62
50.679601, 2.378995, 7.87, -2.11, 2.15, 9.26
50.679669, 2.378926, 9.42, -2.39, 1.64, 9.71
50.679669, 2.378926, 9.42, -3.06, 1.18, 8.84
50.679747, 2.378845, 10.82, -2.95, 1.06, 10.24
50.679747, 2.378845, 10.82, -1.20, 0.19, 10.21
50.679831, 2.378755, 11.17, -1.60, 1.02, 9.51
50.679831, 2.378755, 11.17, -2.94, 1.29, 9.67
50.679917, 2.378664, 11.58, -2.49, 1.41, 9.98
50.679917, 2.378664, 11.58, -2.11, 1.50, 9.07
50.680008, 2.378570, 12.40, -2.78, 1.58, 8.97
50.680008, 2.378570, 12.40, -2.12, 0.93, 9.42
50.680105, 2.378470, 13.28, -2.69, 0.86, 8.88
50.680105, 2.378470, 13.28, -2.42, 1.31, 10.46
50.680209, 2.378364, 14.17, -2.55, 0.92, 9.80
50.680209, 2.378364, 14.17, -1.85, 1.42, 8.86
50.680319, 2.378249, 14.94, -1.57, 1.83, 10.48
50.680319, 2.378249, 14.94, -2.18, 1.35, 9.51
50.680435, 2.378130, 15.78, -2.64, 0.98, 10.23
50.680435, 2.378130, 15.78, -1.88, 1.06, 11.19
50.680557, 2.378003, 16.58, -1.14, 1.64, 9.69
50.680557, 2.378003, 16.58, -0.93, 1.18, 9.14
50.680681, 2.377867, 16.73, -1.45, 1.45, 8.51
50.680681, 2.377867, 16.73, -2.77, 0.25, 9.33
50.680803, 2.377726, 16.64, -1.48, 1.05, 9.58
50.680925, 2.377585, 16.92, -1.59, 1.22, 9.33
50.680925, 2.377585, 16.92, -1.42, 1.18, 9.85
50.681051, 2.377441, 17.43, -2.07, 0.71, 11.30
50.681051, 2.377441, 17.43, -1.36, 0.81, 9.23
50.681180, 2.377294, 17.92, -1.50, 1.09, 9.74
50.681180, 2.377294, 17.92, -1.12, 0.44, 10.09
50.681311, 2.377145, 18.53, -2.19, 1.29, 9.91
50.681311, 2.377145, 18.53, -1.53, 1.50, 11.63
50.681450, 2.376988, 19.13, -2.15, 1.87, 10.47
50.681450, 2.376988, 19.13, -1.54, 1.99, 9.51
50.681592, 2.376827, 19.79, -2.96, 0.11, 10.51
50.681592, 2.376827, 19.79, -1.92, 1.27, 9.34
50.681739, 2.376663, 20.34, -2.07, 0.12, 10.12
50.681739, 2.376663, 20.34, -1.22, 1.58, 8.67
50.681889, 2.376495, 20.97, -1.73, 1.13, 11.16
50.681889, 2.376495, 20.97, -2.35, 1.23, 9.56
50.682045, 2.376319, 21.65, -2.62, 0.93, 9.51
50.682045, 2.376319, 21.65, -0.06, -0.22, 9.70
50.682203, 2.376138, 21.40, 0.23, 0.51, 10.30
50.682203, 2.376138, 21.40, -0.67, 0.88, 10.16
50.682356, 2.375960, 20.68, -0.87, 1.09, 9.72
50.682356, 2.375960, 20.68, -1.24, 1.68, 9.44
50.682509, 2.375790, 20.42, -1.49, 0.98, 10.18
50.682509, 2.375790, 20.42, -0.56, 2.32, 9.89
50.682659, 2.375626, 20.48, -0.40, 1.34, 10.07
50.682659, 2.375626, 20.48, -1.04, 0.76, 7.90
50.682813, 2.375468, 20.60, -1.00, 0.80, 10.82
50.682813, 2.375468, 20.60, -0.75, 1.59, 9.03
50.682970, 2.375316, 20.85, -0.56, 2.36, 9.86
50.682970, 2.375316, 20.85, -0.70, 0.88, 8.60
50.683131, 2.375173, 21.09, -0.28, 1.58, 10.45
50.683131, 2.375173, 21.09, -1.59, 1.82, 10.16
50.683299, 2.375029, 21.44, -1.20, 0.89, 9.28
50.683299, 2.375029, 21.44, 0.45, 1.21, 9.65
50.683464, 2.374876, 21.26, 0.09, 1.43, 9.50
50.683464, 2.374876, 21.26, -0.72, 1.38, 9.99
50.683627, 2.374729, 20.87, -0.45, 0.84, 9.60
50.683627, 2.374729, 20.87, 0.35, 1.58, 10.07
50.683791, 2.374591, 20.61, -0.73, 1.33, 10.12
50.683791, 2.374591, 20.61, -0.52, 1.35, 10.24
50.683958, 2.374470, 20.33, -0.02, 1.77, 8.72
50.684130, 2.374368, 20.20, -0.35, 1.76, 9.60
50.684130, 2.374368, 20.20, -1.13, 0.64, 8.53
50.684305, 2.374279, 20.16, -0.72, 0.69, 10.07
50.684305, 2.374279, 20.16, -1.49, 0.77, 12.26
50.684475, 2.374189, 20.06, -0.89, 0.64, 9.41
50.684475, 2.374189, 20.06, -2.36, 0.45, 12.02
50.684475, 2.374189, 20.06, -1.79, 0.75, 9.20
50.684643, 2.374087, 20.12, -1.68, -0.25, 10.86
50.684811, 2.373979, 20.24, -2.15, -0.88, 9.86
50.684811, 2.373979, 20.24, -2.24, -0.16, 10.92
50.684971, 2.373840, 20.50, -1.34, -0.41, 10.36
50.684971, 2.373840, 20.50, -1.21, 0.40, 10.64
50.685132, 2.373680, 21.09, -2.16, -0.40, 11.63
50.685132, 2.373680, 21.09, -1.30, -0.24, 9.74
50.685288, 2.373503, 21.46, -1.75, -0.77, 9.83
50.685288, 2.373503, 21.46, -2.30, 0.05, 10.43
50.685430, 2.373299, 21.60, -1.37, -0.33, 10.69
50.685430, 2.373299, 21.60, -0.31, -0.41, 10.24
50.685562, 2.373076, 21.48, -0.81, 0.41, 9.86
50.685562, 2.373076, 21.48, -1.04, 0.88, 9.72
50.685686, 2.372846, 21.29, 0.13, 1.14, 11.61
50.685686, 2.372846, 21.29, -1.02, 1.34, 9.67
50.685807, 2.372613, 21.21, -1.82, 0.78, 10.91
50.685807, 2.372613, 21.21, -1.29, 0.76, 12.65
50.685930, 2.372378, 21.70, -1.10, 1.86, 10.82
50.685930, 2.372378, 21.70, -1.04, 0.58, 10.27
50.686056, 2.372137, 22.28, -0.40, 0.77, 8.40
50.686056, 2.372137, 22.28, -1.13, -0.42, 8.56
50.686185, 2.371891, 22.67, -0.62, -0.00, 7.04
50.686185, 2.371891, 22.67, -1.11, 0.47, 10.11
50.686314, 2.371644, 22.39, -1.65, 0.54, 9.82
50.686314, 2.371644, 22.39, -1.25, 0.91, 10.03
50.686441, 2.371396, 22.47, -1.11, 0.97, 9.44
50.686441, 2.371396, 22.47, -1.37, 0.78, 9.24
50.686566, 2.371143, 22.43, -1.58, 0.44, 9.97
50.686692, 2.370895, 22.34, -0.87, 0.93, 9.45
50.686692, 2.370895, 22.34, -0.19, 1.16, 10.42
50.686816, 2.370647, 22.26, -1.17, 0.13, 8.35
50.686816, 2.370647, 22.26, -0.98, -0.21, 7.51
50.686938, 2.370399, 22.11, -0.95, -0.45, 11.07
50.686938, 2.370399, 22.11, 0.09, 0.50, 9.81
50.687057, 2.370154, 21.58, -0.37, 1.11, 11.43
50.687057, 2.370154, 21.58, -0.07, 0.27, 8.09
50.687172, 2.369911, 21.27, -1.27, 1.13, 10.00
50.687172, 2.369911, 21.27, -1.96, 0.39, 10.28
50.687281, 2.369664, 21.38, -1.15, 1.19, 8.88
50.687281, 2.369664, 21.38, -1.48, 0.79, 10.82
50.687393, 2.369416, 21.72, -0.76, 0.90, 10.38
50.687393, 2.369416, 21.72, -1.02, 0.45, 7.01
50.687507, 2.369164, 22.02, -0.71, 0.99, 9.72
50.687507, 2.369164, 22.02, -1.63, 0.42, 7.82
50.687620, 2.368905, 22.35, -1.26, 0.45, 8.82
50.687620, 2.368905, 22.35, -1.28, 1.51, 8.09
50.687738, 2.368648, 22.51, -1.52, 0.75, 8.83
50.687738, 2.368648, 22.51, -0.76, 1.01, 10.67
50.687854, 2.368386, 22.75, -0.13, -0.46, 9.56
50.687854, 2.368386, 22.75, -1.21, 1.04, 9.19
50.687968, 2.368122, 22.48, -0.79, 1.06, 9.84
50.687968, 2.368122, 22.48, -1.14, 1.56, 10.55
50.688084, 2.367862, 22.20, -0.49, 0.52, 9.02
50.688084, 2.367862, 22.20, -0.10, 1.24, 9.10
50.688192, 2.367604, 21.68, -0.88, 1.07, 10.79
50.688192, 2.367604, 21.68, -1.42, -0.15, 9.13
50.688303, 2.367354, 21.39, 0.17, 0.81, 9.00
50.688303, 2.367354, 21.39, -1.38, 0.71, 13.19
50.688417, 2.367109, 21.28, -1.89, 0.70, 11.96
50.688417, 2.367109, 21.28, 0.63, 1.13, 8.71
50.688530, 2.366866, 21.00, -0.04, 1.68, 10.99
50.688530, 2.366866, 21.00, 1.09, 1.54, 10.90
50.688641, 2.366630, 20.69, 0.34, 1.48, 6.30
50.688641, 2.366630, 20.69, 0.36, 2.74, 9.46
50.688756, 2.366398, 20.87, -0.59, 1.55, 9.04
50.688756, 2.366398, 20.87, -0.11, 1.71, 10.83
50.688880, 2.366172, 21.07, -2.01, 0.40, 9.94
50.688880, 2.366172, 21.07, -1.98, 0.63, 10.40
50.689008, 2.365952, 21.09, -0.12, 1.83, 8.88
50.689136, 2.365734, 21.22, -0.14, 1.54, 9.53
50.689136, 2.365734, 21.22, -1.72, 1.54, 13.41
50.689267, 2.365518, 21.35, -0.64, -0.45, 10.75
50.689267, 2.365518, 21.35, 0.28, -0.03, 8.64
50.689400, 2.365308, 20.86, -1.97, 0.03, 9.61
50.689400, 2.365308, 20.86, -0.60, 0.16, 9.42
50.689531, 2.365103, 20.36, -0.86, 0.10, 9.84
50.689531, 2.365103, 20.36, -0.69, -0.55, 9.61
50.689662, 2.364908, 19.79, 0.39, 0.55, 9.77
50.689662, 2.364908, 19.79, -0.57, 0.87, 10.02
50.689784, 2.364716, 19.14, 0.62, -0.12, 10.51
50.689784, 2.364716, 19.14, -0.17, 0.93, 9.51
50.689902, 2.364533, 18.17, -0.02, 0.01, 8.49
50.689902, 2.364533, 18.17, -1.09, -1.34, 10.41
50.690019, 2.364358, 17.68, -1.12, 0.76, 10.01
50.690019, 2.364358, 17.68, -0.78, 0.64, 10.02
50.690131, 2.364187, 17.27, -0.61, -0.23, 10.44
50.690131, 2.364187, 17.27, -0.79, -0.44, 10.16
50.690238, 2.364018, 16.63, -0.57, -0.28, 9.39
50.690238, 2.364018, 16.63, -0.50, 0.54, 9.31
50.690343, 2.363853, 16.00, -0.25, 0.72, 9.71
50.690343, 2.363853, 16.00, -0.67, -0.23, 8.51
50.690441, 2.363691, 15.29, -0.33, 0.20, 10.36
50.690441, 2.363691, 15.29, -0.74, 0.29, 9.30
50.690530, 2.363532, 14.52, -0.09, 0.09, 9.61
50.690530, 2.363532, 14.52, -0.56, 0.03, 9.34
50.690614, 2.363380, 13.88, -0.42, 0.64, 9.99
50.690614, 2.363380, 13.88, 0.20, 0.76, 9.80
50.690692, 2.363233, 13.36, -0.19, 1.75, 10.71
50.690692, 2.363233, 13.36, -0.82, 0.66, 10.64
50.690770, 2.363088, 13.27, 0.06, 0.08, 8.21
50.690770, 2.363088, 13.27, -1.06, 0.03, 9.39
50.690847, 2.362948, 12.74, -0.90, 1.38, 10.85
50.690847, 2.362948, 12.74, -0.43, 1.02, 8.34
50.690924, 2.362815, 12.71, -0.85, 1.92, 12.19
50.690924, 2.362815, 12.71, -1.17, 1.00, 11.41
50.691008, 2.362690, 12.85, -1.57, 0.21, 10.80
50.691008, 2.362690, 12.85, -2.29, 0.34, 12.37
50.691098, 2.362566, 13.36, -0.23, 0.35, 9.97
50.691098, 2.362566, 13.36, -0.09, 0.65, 9.22
50.691189, 2.362442, 13.43, -0.25, 0.94, 9.41
50.691277, 2.362320, 13.00, -0.33, 0.62, 8.49
50.691277, 2.362320, 13.00, -0.88, 0.27, 9.60
50.691359, 2.362200, 12.65, -0.93, 0.89, 9.22
50.691359, 2.362200, 12.65, -1.56, 0.24, 11.51
50.691445, 2.362087, 12.32, -0.37, 1.33, 9.13
50.691445, 2.362087, 12.32, -0.75, 0.87, 10.52
50.691529, 2.361974, 12.04, -0.93, 0.37, 9.24
50.691529, 2.361974, 12.04, -1.08, 0.43, 10.26
50.691610, 2.361861, 12.05, -1.99, 0.35, 10.68
50.691610, 2.361861, 12.05, -1.22, 1.13, 11.04
50.691697, 2.361753, 12.07, -1.50, 0.31, 8.70
50.691697, 2.361753, 12.07, -1.47, 1.06, 9.71
50.691786, 2.361643, 12.37, -0.36, 1.20, 9.50
50.691786, 2.361643, 12.37, -1.30, 0.57, 10.12
50.691876, 2.361530, 12.42, -0.51, 0.45, 9.45
50.691876, 2.361530, 12.42, -1.35, 0.63, 9.98
50.691951, 2.361406, 12.30, -0.78, 1.10, 8.65
50.691951, 2.361406, 12.30, -0.41, 1.15, 10.38
50.692028, 2.361288, 12.41, -1.66, 1.12, 10.66
50.692028, 2.361288, 12.41, -0.78, 0.89, 10.04
50.692112, 2.361171, 12.53, -0.62, 1.01, 10.05
50.692112, 2.361171, 12.53, -2.05, -0.06, 9.06
50.692194, 2.361047, 12.67, -0.08, 1.25, 9.05
50.692194, 2.361047, 12.67, -0.93, 0.59, 9.90
50.692274, 2.360918, 12.80, -1.78, -0.24, 8.67
50.692274, 2.360918, 12.80, -1.32, 0.46, 7.03
50.692354, 2.360784, 12.94, -0.92, 0.51, 11.01
50.692354, 2.360784, 12.94, -0.62, 0.84, 10.43
50.692431, 2.360644, 12.69, -0.02, 0.60, 8.47
50.692431, 2.360644, 12.69, 0.07, 0.78, 9.73
50.692508, 2.360508, 12.29, -0.66, 0.88, 9.65
50.692508, 2.360508, 12.29, -0.78, 1.02, 10.64
50.692573, 2.360372, 12.08, -1.11, 0.80, 9.51
50.692573, 2.360372, 12.08, -1.87, -0.02, 9.71
50.692633, 2.360231, 12.10, -2.32, -0.05, 11.29
50.692633, 2.360231, 12.10, -1.20, -0.59, 10.11
50.692689, 2.360083, 12.10, -1.85, -0.41, 10.23
50.692689, 2.360083, 12.10, -2.84, -1.06, 11.00
50.692730, 2.359927, 12.01, -1.23, -0.71, 8.59
50.692730, 2.359927, 12.01, -1.11, 0.06, 10.57
50.692751, 2.359754, 12.09, -2.97, -1.02, 10.71
50.692751, 2.359754, 12.09, -1.19, 0.81, 9.92
50.692762, 2.359601, 11.99, -0.91, 0.02, 11.07
50.692743, 2.359429, 12.03, -1.71, -0.65, 9.31
50.692743, 2.359429, 12.03, -0.91, 0.33, 11.96
50.692711, 2.359259, 11.54, -0.17, -0.24, 10.76
50.692711, 2.359259, 11.54, -1.02, -0.42, 12.59
50.692675, 2.359107, 9.89, 1.36, 0.27, 10.79
50.692675, 2.359107, 9.89, 0.11, 0.54, 10.15
50.692644, 2.358974, 8.08, 1.44, -0.80, 10.55
50.692644, 2.358974, 8.08, -1.63, 0.27, 9.72
50.692624, 2.358865, 6.61, -0.76, 0.22, 9.67
50.692624, 2.358865, 6.61, -0.48, 0.24, 9.69
50.692609, 2.358775, 5.65, -1.14, 1.16, 11.49
50.692609, 2.358775, 5.65, -0.75, 0.04, 10.04
50.692602, 2.358699, 4.87, -0.11, 0.12, 11.15
50.692602, 2.358699, 4.87, -0.83, 0.62, 10.34
50.692594, 2.358639, 3.91, -2.80, 1.48, 9.62
50.692594, 2.358639, 3.91, -1.80, 0.91, 8.86
50.692587, 2.358579, 4.68, -2.19, 1.20, 9.63
50.692587, 2.358579, 4.68, -1.83, 0.80, 10.68
50.692579, 2.358502, 6.06, -1.96, 0.91, 9.32
50.692579, 2.358502, 6.06, -0.49, 1.24, 10.50
50.692578, 2.358415, 6.61, -1.14, 1.60, 9.94
50.692578, 2.358415, 6.61, -3.24, 0.61, 10.08
50.692575, 2.358317, 7.05, -2.08, 1.58, 9.37
50.692575, 2.358317, 7.05, -1.58, 1.02, 8.05
50.692575, 2.358209, 7.97, -0.19, 0.84, 10.86
50.692575, 2.358209, 7.97, -0.91, 1.66, 10.97
50.692576, 2.358082, 7.80, -1.54, 0.97, 9.89
50.692576, 2.358082, 7.80, -1.37, 1.02, 8.77
50.692578, 2.357964, 7.93, -1.24, 1.52, 10.22
50.692578, 2.357964, 7.93, -1.47, 1.46, 9.41
50.692582, 2.357851, 8.44, -0.23, 2.01, 10.82
50.692582, 2.357851, 8.44, 0.37, 1.33, 9.68
50.692594, 2.357736, 8.17, -0.36, 1.99, 10.00
50.692594, 2.357736, 8.17, -1.18, 1.18, 9.38
50.692620, 2.357634, 8.15, 0.11, 0.98, 9.98
50.692620, 2.357634, 8.15, -0.33, 0.80, 10.41
50.692661, 2.357549, 7.73, -0.57, 1.09, 10.44
50.692661, 2.357549, 7.73, -0.81, 1.31, 9.83
50.692711, 2.357479, 7.11, -1.00, 1.61, 10.20
50.692711, 2.357479, 7.11, -2.22, 0.84, 10.33
50.692771, 2.357422, 7.39, -1.84, 1.25, 10.04
50.692771, 2.357422, 7.39, -1.01, 1.68, 9.38
50.692837, 2.357375, 8.21, -1.73, 0.27, 10.15
50.692837, 2.357375, 8.21, -1.36, 0.62, 10.63
50.692910, 2.357329, 8.70, -0.17, 0.24, 10.31
50.692981, 2.357282, 8.30, -1.61, 0.60, 8.80
50.692981, 2.357282, 8.30, -1.76, 0.76, 9.65
50.693049, 2.357226, 8.51, -1.81, 1.46, 10.88
50.693049, 2.357226, 8.51, -1.70, 0.69, 10.19
50.693119, 2.357162, 9.14, -1.48, 0.85, 9.92
50.693119, 2.357162, 9.14, -1.70, 1.92, 9.94
50.693194, 2.357091, 10.03, -2.06, 1.62, 10.03
50.693194, 2.357091, 10.03, 0.31, 1.05, 9.86
50.693270, 2.357013, 10.35, -0.79, 0.71, 9.05
50.693270, 2.357013, 10.35, -1.11, 1.52, 10.30
50.693349, 2.356937, 10.49, -1.29, 1.38, 9.30
50.693349, 2.356937, 10.49, -0.79, 0.99, 8.67
50.693434, 2.356867, 10.91, -0.34, 1.68, 9.93
50.693434, 2.356867, 10.91, 0.53, 2.09, 9.75
50.693524, 2.356797, 11.52, -1.55, 0.88, 9.17
50.693524, 2.356797, 11.52, -1.39, 0.67, 10.56
50.693613, 2.356722, 11.97, -0.75, 0.28, 9.62
50.693613, 2.356722, 11.97, -0.82, 0.01, 9.72
50.693707, 2.356637, 11.84, -0.80, -0.22, 9.53
50.693707, 2.356637, 11.84, 0.14, -0.21, 9.75
50.693794, 2.356544, 10.79, 0.09, -0.41, 10.23
50.693794, 2.356544, 10.79, 0.85, 0.41, 11.08
50.693870, 2.356459, 9.75, 0.48, 0.67, 9.62
50.693870, 2.356459, 9.75, -1.36, 0.23, 10.75
50.693942, 2.356387, 9.03, 0.30, 0.24, 10.18
50.693942, 2.356387, 9.03, 0.78, 1.07, 9.41
50.694010, 2.356320, 8.57, -0.70, 0.14, 9.73
50.694010, 2.356320, 8.57, -0.82, 0.84, 10.03
50.694075, 2.356255, 8.52, -0.64, 0.80, 9.50
50.694075, 2.356255, 8.52, -0.19, 0.91, 9.33
50.694140, 2.356192, 8.62, -0.27, 1.07, 9.10
50.694140, 2.356192, 8.62, -1.38, 1.38, 9.21
50.694202, 2.356121, 8.84, -0.97, 1.12, 10.15
50.694202, 2.356121, 8.84, -0.28, 1.71, 9.94
50.694265, 2.356046, 9.15, -0.77, -0.06, 9.54
50.694265, 2.356046, 9.15, -1.52, 1.04, 9.82
50.694332, 2.355977, 9.05, -1.78, 0.61, 8.93
50.694332, 2.355977, 9.05, -1.92, 0.40, 9.10
50.694402, 2.355909, 9.35, -0.77, 0.62, 10.30
50.694473, 2.355843, 9.15, -1.95, -0.40, 9.82
50.694473, 2.355843, 9.15, -1.49, 0.85, 10.35
50.694543, 2.355777, 9.22, -0.95, 1.50, 10.44
50.694543, 2.355777, 9.22, -0.81, 0.95, 8.67
50.694615, 2.355709, 9.20, -0.93, 0.23, 9.94
50.694615, 2.355709, 9.20, 0.09, -0.41, 10.14
50.694682, 2.355644, 8.08, 0.34, -0.38, 9.64
50.694682, 2.355644, 8.08, -0.22, 1.04, 10.46
50.694741, 2.355586, 7.27, 1.47, -0.41, 10.19
50.694741, 2.355586, 7.27, -0.59, 0.53, 9.81
50.694794, 2.355533, 6.48, 1.19, 0.61, 9.76
50.694794, 2.355533, 6.48, -0.43, 1.29, 10.53
50.694837, 2.355487, 5.52, -0.93, 0.51, 10.44
50.694837, 2.355487, 5.52, 0.12, 0.13, 9.60
50.694876, 2.355446, 5.31, -0.49, 1.21, 9.98
50.694876, 2.355446, 5.31, -0.33, 1.10, 9.49
50.694916, 2.355403, 5.43, -1.10, 0.79, 9.31
50.694916, 2.355403, 5.43, -1.82, 0.61, 9.62
50.694957, 2.355359, 5.93, -1.64, 1.45, 9.60
50.694957, 2.355359, 5.93, 0.29, 0.97, 10.79
50.695003, 2.355313, 6.23, -1.76, 1.52, 10.18
50.695003, 2.355313, 6.23, -1.22, 1.42, 9.93
50.695052, 2.355260, 7.04, -2.20, 0.97, 10.60
50.695052, 2.355260, 7.04, -0.65, 1.66, 10.45
50.695105, 2.355199, 7.67, -1.02, 0.36, 10.12
50.695105, 2.355199, 7.67, -0.55, 1.03, 10.12
50.695162, 2.355136, 7.70, -0.89, 1.04, 9.63
50.695162, 2.355136, 7.70, -1.73, 0.73, 9.84
50.695222, 2.355074, 7.87, -1.36, 1.13, 10.28
50.695222, 2.355074, 7.87, -0.94, 1.01, 9.46
50.695281, 2.355010, 8.09, -0.57, 1.14, 9.88
50.695281, 2.355010, 8.09, -1.15, 0.70, 9.23
50.695343, 2.354942, 8.34, -0.08, -0.13, 10.11
50.695343, 2.354942, 8.34, -0.09, 1.15, 10.74
50.695404, 2.354873, 7.88, 0.01, 0.86, 9.54
50.695404, 2.354873, 7.88, -0.98, 0.68, 10.33
50.695459, 2.354810, 7.30, -0.34, 0.54, 10.12
50.695459, 2.354810, 7.30, -0.35, 1.05, 10.51
50.695511, 2.354751, 6.71, -1.12, 0.57, 9.35
50.695511, 2.354751, 6.71, 0.14, 0.11, 9.98
50.695558, 2.354694, 6.30, -1.30, 0.60, 10.18
50.695558, 2.354694, 6.30, 0.07, 0.35, 9.77
50.695601, 2.354643, 5.98, -1.74, 1.33, 9.56
50.695644, 2.354589, 6.12, -1.32, 1.18, 10.41
50.695644, 2.354589, 6.12, -1.43, 1.10, 10.60
50.695691, 2.354532, 6.85, -2.20, 0.95, 10.12
50.695691, 2.354532, 6.85, -1.22, 1.12, 10.19
50.695743, 2.354470, 7.58, -0.70, 1.73, 10.57
50.695743, 2.354470, 7.58, -1.21, 1.50, 9.56
50.695800, 2.354405, 8.24, -1.09, 1.40, 10.18
50.695800, 2.354405, 8.24, -1.78, 1.17, 10.28
50.695863, 2.354333, 8.78, -1.96, 0.85, 10.00
50.695863, 2.354333, 8.78, -0.95, 0.77, 9.50
50.695927, 2.354256, 9.01, -1.02, 0.35, 10.35
50.695927, 2.354256, 9.01, -1.13, 0.79, 10.98
50.695990, 2.354179, 8.65, -1.60, 0.91, 10.87
50.695990, 2.354179, 8.65, -0.46, 1.99, 9.58
50.696051, 2.354102, 8.64, -0.67, 1.93, 10.81
50.696051, 2.354102, 8.64, -1.23, 0.31, 9.05
50.696112, 2.354024, 8.91, -0.82, 1.54, 9.48
50.696112, 2.354024, 8.91, -1.38, 1.41, 10.26
50.696175, 2.353942, 9.15, -1.17, 1.05, 9.48
50.696175, 2.353942, 9.15, -1.51, 0.91, 9.51
50.696241, 2.353857, 9.66, -0.23, 0.34, 9.96
50.696241, 2.353857, 9.66, -0.12, 0.75, 10.00
50.696305, 2.353770, 9.14, -0.69, 0.48, 9.84
50.696305, 2.353770, 9.14, -0.77, 1.20, 10.38
50.696361, 2.353688, 8.69, -0.28, 1.11, 10.67
50.696361, 2.353688, 8.69, -1.39, 0.25, 9.82
50.696419, 2.353610, 8.33, -1.17, 0.35, 9.63
50.696419, 2.353610, 8.33, -1.51, 1.95, 9.84
50.696474, 2.353532, 8.62, -0.23, 1.24, 8.71
50.696474, 2.353532, 8.62, -1.18, 0.67, 9.56
50.696534, 2.353448, 8.92, -1.43, 1.33, 9.48
50.696534, 2.353448, 8.92, -2.19, 2.16, 9.25
50.696596, 2.353362, 9.46, -0.89, 1.88, 10.22
50.696596, 2.353362, 9.46, -2.28, 1.41, 9.02
50.696665, 2.353267, 10.41, -1.39, 1.92, 8.60
50.696665, 2.353267, 10.41, -0.72, 1.30, 9.25
50.696736, 2.353165, 11.03, -0.51, 1.09, 10.76
50.696736, 2.353165, 11.03, -0.50, 0.27, 9.97
50.696807, 2.353061, 10.59, -0.22, 1.43, 10.79
50.696807, 2.353061, 10.59, 0.35, 0.97, 8.87
50.696876, 2.352960, 10.25, -0.81, 0.53, 9.26
50.696876, 2.352960, 10.25, 0.13, 1.00, 9.35
50.696943, 2.352860, 9.89, -0.61, 1.11, 9.92
50.697005, 2.352763, 9.61, -0.97, 0.53, 8.60
50.697005, 2.352763, 9.61, -1.00, 0.56, 9.82
50.697064, 2.352668, 9.05, 0.35, 1.10, 9.92
50.697064, 2.352668, 9.05, -1.37, 0.88, 9.59
50.697119, 2.352580, 8.62, -1.11, 0.74, 10.12
50.697119, 2.352580, 8.62, 0.00, 1.25, 10.22
50.697173, 2.352495, 8.29, -0.13, 0.55, 8.63
50.697173, 2.352495, 8.29, 0.53, 0.36, 9.86
50.697224, 2.352414, 7.37, 0.61, 0.26, 10.70
50.697224, 2.352414, 7.37, -0.45, 1.54, 9.81
50.697266, 2.352345, 6.14, -1.41, 0.47, 9.83
50.697266, 2.352345, 6.14, -0.88, 0.09, 10.23
50.697304, 2.352283, 5.92, -0.50, 1.18, 9.73
50.697304, 2.352283, 5.92, -0.73, 0.14, 9.58
50.697340, 2.352226, 5.51, -0.42, -0.55, 9.24
50.697340, 2.352226, 5.51, -0.87, 0.44, 9.81
50.697372, 2.352175, 4.79, -2.33, 1.35, 10.12
50.697372, 2.352175, 4.79, -2.45, 1.09, 9.60
50.697403, 2.352126, 5.25, -1.31, 1.85, 10.26
50.697403, 2.352126, 5.25, -2.41, 1.37, 9.47
50.697440, 2.352069, 6.02, -1.17, 2.58, 10.04
50.697440, 2.352069, 6.02, -2.18, 0.54, 9.49
50.697480, 2.352006, 6.75, -1.88, 1.09, 10.76
50.697480, 2.352006, 6.75, -1.95, 1.54, 10.23
50.697525, 2.351934, 7.56, -0.49, 0.71, 9.96
50.697525, 2.351934, 7.56, -2.07, 0.30, 9.63
50.697572, 2.351860, 7.41, -1.53, 1.42, 9.75
50.697572, 2.351860, 7.41, -2.09, 1.23, 9.83
50.697621, 2.351783, 7.91, -1.06, 1.08, 9.43
50.697621, 2.351783, 7.91, -1.94, 0.29, 9.99
50.697672, 2.351704, 8.06, -1.08, 1.39, 10.57
50.697672, 2.351704, 8.06, -2.14, 1.39, 9.81
50.697725, 2.351623, 8.34, -1.19, 1.35, 9.86
50.697725, 2.351623, 8.34, -0.57, 0.95, 10.64
50.697781, 2.351539, 8.66, -1.45, 1.13, 9.83
50.697781, 2.351539, 8.66, -1.31, 1.42, 9.24
50.697837, 2.351453, 8.78, -1.83, 1.05, 9.94
50.697837, 2.351453, 8.78, -0.45, 0.67, 10.49
50.697896, 2.351362, 9.46, -1.44, 0.07, 10.82
50.697896, 2.351362, 9.46, -1.58, 0.26, 9.45
50.697956, 2.351267, 9.23, -1.82, -0.23, 9.83
50.697956, 2.351267, 9.23, -1.09, 0.91, 10.06
50.698014, 2.351175, 8.94, -0.86, 0.03, 8.74
50.698069, 2.351086, 8.65, -0.99, 1.35, 9.16
50.698069, 2.351086, 8.65, -0.87, 1.80, 10.38
50.698123, 2.350996, 8.74, 0.50, 0.79, 10.25
50.698123, 2.350996, 8.74, -0.62, 0.09, 10.29
50.698172, 2.350907, 8.32, -1.71, 0.46, 10.16
50.698172, 2.350907, 8.32, -1.03, -0.14, 9.27
50.698220, 2.350824, 7.81, -0.34, -0.26, 10.62
50.698220, 2.350824, 7.81, -1.68, 0.72, 10.32
50.698265, 2.350746, 7.30, -1.58, 1.11, 10.14
50.698265, 2.350746, 7.30, -0.14, 1.10, 10.92
50.698307, 2.350671, 7.13, -1.85, 1.51, 10.46
50.698307, 2.350671, 7.13, -1.00, 2.05, 9.51
50.698348, 2.350594, 7.53, -1.40, 1.63, 9.21
50.698348, 2.350594, 7.53, 0.13, 0.38, 9.67
50.698390, 2.350515, 7.54, 0.84, 0.01, 9.87
50.698390, 2.350515, 7.54, -1.42, -0.20, 9.85
50.698428, 2.350438, 6.83, -0.43, 0.91, 9.26
50.698428, 2.350438, 6.83, -1.01, 0.32, 9.56
50.698463, 2.350364, 6.52, -1.25, 1.45, 10.74
50.698463, 2.350364, 6.52, -0.65, 1.54, 9.97
50.698499, 2.350291, 6.50, -0.76, 1.47, 10.39
50.698499, 2.350291, 6.50, -1.51, 1.45, 9.44
50.698535, 2.350215, 7.05, -1.66, 0.74, 9.00
50.698535, 2.350215, 7.05, -1.37, 1.39, 9.99
50.698576, 2.350131, 7.58, -0.80, 1.74, 9.46
50.698576, 2.350131, 7.58, -0.92, 1.39, 9.97
50.698619, 2.350040, 8.17, -1.04, 1.29, 9.71
50.698619, 2.350040, 8.17, -1.30, 1.47, 9.97
50.698665, 2.349945, 8.50, -1.16, 1.19, 9.82
50.698665, 2.349945, 8.50, -1.83, 1.45, 9.29
50.698711, 2.349844, 8.97, -0.70, 1.17, 8.85
50.698711, 2.349844, 8.97, -0.21, 1.22, 9.61
50.698758, 2.349740, 8.81, -1.53, 0.82, 9.10
50.698758, 2.349740, 8.81, -1.20, 1.47, 9.98
50.698804, 2.349637, 8.80, -1.86, 0.44, 9.90
50.698804, 2.349637, 8.80, -0.49, 1.12, 10.07
50.698851, 2.349535, 8.88, -0.31, 0.89, 10.13
50.698851, 2.349535, 8.88, 0.67, 0.60, 9.63
50.698899, 2.349432, 8.85, 0.09, 0.36, 9.22
50.698899, 2.349432, 8.85, -0.79, 0.84, 10.68
50.698947, 2.349335, 8.57, 0.04, 0.14, 9.28
50.698947, 2.349335, 8.57, -0.86, 0.46, 10.39
50.698996, 2.349243, 8.32, -0.70, 1.26, 9.53
50.699046, 2.349155, 8.36, 0.45, 0.52, 10.33
50.699046, 2.349155, 8.36, -1.20, 1.29, 9.98
50.699097, 2.349071, 7.92, -0.96, -0.06, 10.06
50.699097, 2.349071, 7.92, -0.42, 0.16, 10.40
50.699147, 2.348991, 7.57, -1.38, -0.22, 9.72
50.699147, 2.348991, 7.57, -0.84, 0.43, 10.92
50.699191, 2.348919, 6.81, -0.63, -0.35, 10.72
50.699191, 2.348919, 6.81, -0.49, -0.29, 9.91
50.699233, 2.348856, 6.42, -0.51, 0.68, 9.96
50.699233, 2.348856, 6.42, -0.93, 0.75, 9.63
50.699274, 2.348795, 6.26, -0.59, 0.89, 9.49
50.699274, 2.348795, 6.26, -1.85, 0.19, 10.18
50.699313, 2.348738, 5.74, -0.37, 0.53, 10.32
50.699313, 2.348738, 5.74, -0.03, 1.15, 10.12
50.699349, 2.348685, 5.16, 0.74, 0.37, 9.41
50.699349, 2.348685, 5.16, -1.40, 1.10, 9.98
50.699382, 2.348635, 4.94, -1.95, 1.32, 9.85
50.699382, 2.348635, 4.94, -1.49, 1.55, 9.99
50.699415, 2.348584, 5.53, -1.43, 1.84, 9.78
50.699415, 2.348584, 5.53, -2.02, 1.23, 10.15
50.699454, 2.348523, 6.63, -1.88, 0.81, 9.59
50.699454, 2.348523, 6.63, -1.65, 1.42, 10.34
50.699499, 2.348453, 7.43, -1.11, 1.84, 10.45
50.699499, 2.348453, 7.43, -2.34, 1.23, 10.04
50.699547, 2.348374, 8.17, -0.23, 1.71, 9.91
50.699547, 2.348374, 8.17, -0.05, 1.96, 9.82
50.699600, 2.348296, 8.19, -0.13, 2.02, 9.61
50.699600, 2.348296, 8.19, 0.36, 2.07, 8.59
50.699658, 2.348222, 7.97, -0.67, 2.68, 10.18
50.699658, 2.348222, 7.97, -1.09, 1.53, 11.28
50.699725, 2.348173, 8.22, -0.14, 0.41, 11.37
50.699725, 2.348173, 8.22, -1.92, -1.58, 9.90
50.699800, 2.348157, 8.26, -2.69, -2.78, 9.73
50.699800, 2.348157, 8.26, -2.85, -2.99, 9.63
50.699875, 2.348140, 7.85, -3.93, -2.36, 10.07
50.699875, 2.348140, 7.85, -4.35, -2.61, 9.29
50.699940, 2.348084, 8.06, -3.31, -2.65, 9.86
50.699940, 2.348084, 8.06, -3.34, -0.98, 10.55
50.699973, 2.347966, 8.98, -2.08, -0.35, 9.77
50.699973, 2.347966, 8.98, -1.59, 1.87, 11.65
50.699969, 2.347821, 9.80, -0.51, 3.95, 12.06
50.699969, 2.347821, 9.80, -1.23, 2.70, 9.23
50.699954, 2.347666, 10.68, -1.11, 4.04, 9.96
50.699961, 2.347501, 11.52, -0.36, 1.77, 9.08
50.699961, 2.347501, 11.52, -1.16, 1.70, 9.26
50.699997, 2.347341, 12.05, -2.40, 1.60, 9.76
50.699997, 2.347341, 12.05, -2.41, 1.54, 8.55
50.700046, 2.347178, 13.10, -3.01, 0.96, 9.62
50.700046, 2.347178, 13.10, -2.75, 0.74, 9.48
50.700098, 2.347000, 14.37, -2.10, 0.50, 9.39
50.700098, 2.347000, 14.37, -3.29, 0.28, 9.92
50.700156, 2.346806, 15.43, -0.61, 0.68, 8.91
50.700156, 2.346806, 15.43, -1.44, -0.38, 9.28
50.700215, 2.346609, 15.13, -0.17, 0.12, 7.60
50.700215, 2.346609, 15.13, -1.10, 0.59, 11.39
50.700272, 2.346415, 14.86, -1.11, 1.22, 9.48
50.700272, 2.346415, 14.86, -2.31, 1.60, 9.73
50.700332, 2.346224, 15.32, -0.76, 1.51, 9.54
50.700332, 2.346224, 15.32, -1.67, 1.55, 8.71
50.700393, 2.346024, 15.88, -1.24, -0.11, 10.82
50.700393, 2.346024, 15.88, -1.30, 0.72, 11.07
50.700456, 2.345822, 15.89, -1.47, 1.47, 12.15
50.700456, 2.345822, 15.89, -1.59, 1.99, 10.32
50.700519, 2.345616, 16.15, -0.71, 1.10, 9.90
50.700519, 2.345616, 16.15, -1.35, 0.72, 8.08
50.700584, 2.345402, 16.54, -1.40, 1.74, 10.83
50.700584, 2.345402, 16.54, -2.40, 1.63, 10.98
50.700653, 2.345185, 17.14, -0.89, 0.76, 9.98
50.700653, 2.345185, 17.14, -1.98, 0.93, 10.95
50.700722, 2.344966, 17.02, -0.31, 1.13, 10.00
50.700722, 2.344966, 17.02, -2.02, 1.48, 11.53
50.700789, 2.344748, 17.13, -2.15, 0.95, 11.02
50.700789, 2.344748, 17.13, -1.18, 1.82, 9.27
50.700858, 2.344526, 17.47, -2.40, 0.85, 10.41
50.700858, 2.344526, 17.47, -0.88, -0.03, 9.05
50.700927, 2.344304, 17.87, -0.23, 0.89, 10.34
50.700927, 2.344304, 17.87, -0.45, 0.39, 10.11
50.700996, 2.344079, 17.35, -0.10, 0.92, 9.24
50.700996, 2.344079, 17.35, -1.46, -0.52, 9.26
50.701064, 2.343860, 16.79, 0.61, 1.08, 8.09
50.701064, 2.343860, 16.79, -0.22, 1.02, 10.49
50.701129, 2.343651, 15.87, 0.83, -0.31, 8.02
50.701129, 2.343651, 15.87, -1.01, 0.58, 9.43
50.701191, 2.343456, 14.73, 0.48, 0.61, 9.41
50.701191, 2.343456, 14.73, -0.54, 0.06, 10.49
50.701250, 2.343272, 14.18, -1.11, 1.52, 9.96
50.701305, 2.343096, 13.84, -1.58, 1.23, 9.62
50.701305, 2.343096, 13.84, -1.02, 0.60, 8.80
50.701360, 2.342922, 13.95, -0.89, 0.85, 10.78
50.701360, 2.342922, 13.95, -0.99, 0.28, 9.53
50.701416, 2.342749, 13.56, -2.22, 0.82, 9.53
50.701416, 2.342749, 13.56, -1.31, 1.06, 9.95
50.701471, 2.342575, 13.92, -1.84, 1.52, 12.49
50.701471, 2.342575, 13.92, -1.34, 1.05, 10.24
50.701528, 2.342394, 14.47, -0.64, 0.31, 10.60
50.701528, 2.342394, 14.47, -0.13, 0.83, 10.38
50.701586, 2.342206, 15.04, -3.09, 1.22, 10.55
50.701586, 2.342206, 15.04, -1.19, 1.20, 9.92
50.701646, 2.342013, 15.56, -2.27, 0.34, 9.74
50.701646, 2.342013, 15.56, -2.42, 2.10, 9.50
50.701707, 2.341811, 16.20, -1.78, 1.48, 9.04
50.701707, 2.341811, 16.20, -0.33, 1.77, 9.08
50.701773, 2.341599, 16.78, -3.79, -0.15, 11.05
50.701773, 2.341599, 16.78, -2.25, 2.41, 9.30
50.701842, 2.341382, 17.43, -1.30, 0.40, 8.82
50.701842, 2.341382, 17.43, -1.91, 1.55, 11.52
50.701914, 2.341156, 18.09, -2.80, 1.70, 9.52
50.701914, 2.341156, 18.09, -2.23, 1.12, 11.39
50.701988, 2.340921, 18.78, -1.98, 2.06, 9.52
50.701988, 2.340921, 18.78, -0.79, 1.34, 10.30
50.702066, 2.340677, 19.49, -1.56, 1.54, 9.97
50.702066, 2.340677, 19.49, -1.39, 0.36, 9.99
50.702147, 2.340424, 20.10, -1.06, 0.36, 7.66
50.702147, 2.340424, 20.10, -1.64, -0.67, 10.19
50.702227, 2.340169, 20.06, -1.24, 0.59, 9.01
50.702227, 2.340169, 20.06, -1.94, -0.32, 11.61
50.702309, 2.339914, 20.51, -1.41, 0.53, 8.96
50.702309, 2.339914, 20.51, 0.10, 0.52, 8.73
50.702392, 2.339654, 20.83, -0.23, 1.77, 10.38
50.702392, 2.339654, 20.83, -0.64, 1.69, 9.64
50.702477, 2.339394, 20.32, -0.64, 1.92, 9.42
50.702477, 2.339394, 20.32, -2.05, 1.00, 8.93
50.702561, 2.339140, 20.10, -0.65, 1.75, 13.60
50.702561, 2.339140, 20.10, 0.74, 1.60, 9.50
50.702647, 2.338897, 19.54, 0.12, 1.72, 9.27
50.702647, 2.338897, 19.54, 0.19, 1.07, 12.07
50.702736, 2.338669, 19.01, -0.18, 0.23, 10.06
50.702834, 2.338454, 18.55, 0.32, -0.03, 9.62
50.702834, 2.338454, 18.55, 0.24, -0.06, 8.34
50.702930, 2.338240, 18.02, -0.52, 0.70, 8.45
50.702930, 2.338240, 18.02, -1.64, 0.81, 11.76
50.703021, 2.338029, 17.67, -0.42, 0.90, 9.96
50.703021, 2.338029, 17.67, -0.25, 0.82, 8.39
50.703106, 2.337817, 17.50, -0.96, 0.26, 10.35
50.703106, 2.337817, 17.50, -0.49, 0.16, 10.69
50.703189, 2.337608, 17.35, -0.79, -0.07, 10.25
50.703189, 2.337608, 17.35, -1.05, 0.62, 10.34
50.703271, 2.337401, 17.21, -0.96, 1.65, 10.53
50.703271, 2.337401, 17.21, -0.29, 0.20, 8.59
50.703355, 2.337199, 16.97, -0.15, 0.61, 9.87
50.703355, 2.337199, 16.97, 0.04, -0.43, 9.66
50.703450, 2.337013, 16.55, 0.35, 0.54, 9.84
50.703450, 2.337013, 16.55, -0.11, 0.71, 8.33
50.703534, 2.336823, 16.11, -0.26, 0.00, 8.89
50.703534, 2.336823, 16.11, -1.37, 0.78, 9.47
50.703614, 2.336634, 16.10, -0.09, 0.89, 9.51
50.703614, 2.336634, 16.10, -1.05, 1.49, 9.84
50.703692, 2.336440, 16.68, -1.06, 1.39, 9.41
50.703692, 2.336440, 16.68, -1.39, 1.34, 10.65
50.703775, 2.336239, 17.04, -1.40, 0.35, 9.05
50.703775, 2.336239, 17.04, -1.81, -0.15, 10.00
50.703856, 2.336038, 16.74, -1.24, 0.14, 7.77
50.703856, 2.336038, 16.74, 0.13, 0.94, 12.04
50.703935, 2.335841, 16.33, -0.60, 1.34, 8.96
50.703935, 2.335841, 16.33, -1.54, 1.25, 9.17
50.704017, 2.335648, 16.49, -0.67, -0.44, 9.95
50.704017, 2.335648, 16.49, -0.07, 1.01, 8.19
50.704101, 2.335455, 16.38, -1.08, 0.99, 10.96
50.704101, 2.335455, 16.38, 0.31, 1.14, 10.98
50.704186, 2.335265, 16.26, -0.71, 1.18, 9.59
50.704186, 2.335265, 16.26, -0.79, 1.51, 9.24
50.704273, 2.335077, 16.29, -1.00, 0.81, 8.84
50.704273, 2.335077, 16.29, -0.88, 1.02, 10.87
50.704358, 2.334888, 16.67, -1.47, 1.55, 11.53
50.704358, 2.334888, 16.67, -0.38, 1.47, 9.73
50.704447, 2.334699, 16.77, -0.23, 1.54, 10.47
50.704447, 2.334699, 16.77, -0.45, 0.80, 10.46
50.704539, 2.334516, 16.69, -0.99, 0.86, 9.68
50.704639, 2.334343, 16.47, -0.91, 1.40, 10.86
50.704639, 2.334343, 16.47, -0.20, 1.19, 10.12
50.704747, 2.334191, 16.56, -1.11, 1.60, 8.71
50.704747, 2.334191, 16.56, -1.69, 1.43, 9.88
50.704862, 2.334040, 17.18, -1.10, 1.75, 9.23
50.704862, 2.334040, 17.18, -0.23, 1.10, 9.72
50.704982, 2.333886, 17.16, -0.48, 1.39, 9.43
50.704982, 2.333886, 17.16, -0.93, 0.83, 10.10
50.705106, 2.333738, 17.09, -0.39, 1.53, 12.18
50.705106, 2.333738, 17.09, -0.60, 1.60, 7.89
50.705233, 2.333596, 16.99, -0.14, 1.88, 9.90
50.705233, 2.333596, 16.99, -0.50, 1.39, 9.93
50.705363, 2.333467, 17.17, -0.97, 1.40, 9.10
50.705363, 2.333467, 17.17, -1.38, 1.49, 8.68
50.705498, 2.333343, 17.49, -0.80, 1.98, 10.07
50.705498, 2.333343, 17.49, -1.43, 1.52, 9.08
50.705640, 2.333229, 17.81, -0.64, 2.35, 9.54
50.705640, 2.333229, 17.81, -0.26, 1.12, 10.41
50.705788, 2.333123, 18.12, -0.53, 2.00, 10.04
50.705788, 2.333123, 18.12, 0.02, 0.80, 10.59
50.705936, 2.333027, 17.31, 0.41, 0.56, 9.10
50.705936, 2.333027, 17.31, 0.33, 2.02, 10.42
50.706081, 2.332943, 16.50, -1.08, 1.28, 11.54
50.706081, 2.332943, 16.50, -0.29, 1.07, 8.70
50.706220, 2.332868, 16.14, -0.27, 1.53, 10.26
50.706220, 2.332868, 16.14, -0.57, 1.53, 8.71
50.706359, 2.332809, 15.76, -0.44, 1.22, 8.25
50.706359, 2.332809, 15.76, -1.22, 1.72, 8.97
50.706493, 2.332766, 15.69, -1.91, 0.76, 9.99
50.706493, 2.332766, 15.69, -2.16, -0.48, 10.20
50.706633, 2.332726, 15.84, -2.55, 0.10, 10.69
50.706633, 2.332726, 15.84, -1.23, -0.63, 8.58
50.706775, 2.332688, 16.13, -0.85, 1.35, 9.81
50.706775, 2.332688, 16.13, -1.82, 0.86, 10.25
50.706923, 2.332631, 16.52, -1.35, -0.81, 10.33
50.706923, 2.332631, 16.52, -0.48, 0.32, 8.95
50.707067, 2.332570, 16.59, -1.52, -0.06, 10.54
50.707067, 2.332570, 16.59, -1.33, 0.22, 10.93
50.707211, 2.332497, 16.14, -1.20, -0.30, 10.63
50.707211, 2.332497, 16.14, -1.18, 1.77, 12.06
50.707350, 2.332417, 15.98, -1.43, -0.36, 12.32
50.707350, 2.332417, 15.98, -1.24, -0.18, 11.02
50.707485, 2.332334, 15.63, -0.69, -0.33, 9.34
50.707485, 2.332334, 15.63, -1.13, 0.99, 10.21
50.707618, 2.332244, 15.44, -1.83, 0.90, 8.26
50.707618, 2.332244, 15.44, -1.52, 1.31, 8.97
50.707752, 2.332148, 15.63, -2.30, 1.09, 10.30
50.707883, 2.332052, 16.21, -1.82, 0.06, 8.02
50.707883, 2.332052, 16.21, -0.67, 0.69, 9.92
50.708011, 2.331946, 16.03, -1.42, -0.13, 13.04
50.708011, 2.331946, 16.03, -1.51, 0.04, 10.13
50.708134, 2.331831, 15.81, -0.65, 0.45, 10.36
50.708134, 2.331831, 15.81, -0.29, 0.28, 8.12
50.708251, 2.331711, 15.51, -0.84, -0.51, 8.71
50.708251, 2.331711, 15.51, -1.70, -0.01, 10.69
50.708362, 2.331585, 15.46, -1.62, 0.67, 10.43
50.708362, 2.331585, 15.46, -0.58, 0.55, 10.03
50.708473, 2.331459, 15.33, -0.96, 0.59, 11.34
50.708473, 2.331459, 15.33, -1.02, 0.76, 11.64
50.708586, 2.331342, 15.07, -0.68, 0.91, 9.19
50.708586, 2.331342, 15.07, -0.31, 0.52, 8.94
50.708700, 2.331238, 14.74, -0.68, 0.61, 10.13
50.708700, 2.331238, 14.74, -0.51, 1.05, 10.06
50.708820, 2.331145, 14.37, -1.13, 0.69, 10.12
50.708820, 2.331145, 14.37, -0.41, 0.99, 9.56
50.708930, 2.331044, 14.14, -0.88, 0.75, 10.74
50.708930, 2.331044, 14.14, -1.02, 0.89, 10.46
50.709041, 2.330945, 14.17, -0.12, 0.74, 9.19
50.709041, 2.330945, 14.17, -0.38, 0.99, 10.29
50.709151, 2.330848, 13.77, -0.94, -0.19, 9.69
50.709151, 2.330848, 13.77, -0.93, 0.85, 10.24
50.709258, 2.330753, 13.57, -1.00, 0.55, 9.86
50.709258, 2.330753, 13.57, -1.43, 0.59, 10.25
50.709363, 2.330656, 13.60, -0.71, 1.01, 9.25
50.709363, 2.330656, 13.60, -1.11, 0.75, 9.85
50.709469, 2.330558, 13.69, -0.91, 1.04, 8.38
50.709469, 2.330558, 13.69, -1.67, 0.90, 10.29
50.709575, 2.330459, 13.89, -1.00, 0.67, 9.77
50.709575, 2.330459, 13.89, -1.69, 0.45, 9.85
50.709683, 2.330356, 14.19, -1.74, -0.13, 9.02
50.709683, 2.330356, 14.19, -1.66, 0.42, 9.98
50.709790, 2.330243, 14.28, -1.54, 0.15, 10.13
50.709790, 2.330243, 14.28, -0.92, 0.19, 8.18
50.709890, 2.330122, 14.10, -1.16, 0.32, 8.69
50.709890, 2.330122, 14.10, -1.89, 0.21, 9.33
50.709989, 2.329997, 14.09, -2.42, 0.18, 11.44
50.709989, 2.329997, 14.09, -1.11, 0.47, 9.61
50.710075, 2.329852, 14.11, -1.07, 0.32, 8.90
50.710075, 2.329852, 14.11, -0.73, 1.16, 9.78
50.710157, 2.329709, 13.75, -0.50, 1.75, 9.23
50.710236, 2.329565, 13.81, -1.30, 2.16, 9.73
50.710236, 2.329565, 13.81, -1.29, 0.95, 9.15
50.710318, 2.329418, 13.84, -0.97, 0.35, 8.35
50.710318, 2.329418, 13.84, -1.84, 0.77, 8.93
50.710402, 2.329272, 13.80, -0.97, 0.85, 8.67
50.710402, 2.329272, 13.80, -0.93, 0.07, 10.41
50.710483, 2.329123, 13.80, -1.13, 0.72, 11.23
50.710483, 2.329123, 13.80, -1.58, 0.25, 9.67
50.710561, 2.328970, 13.88, -1.73, 0.82, 9.47
50.710561, 2.328970, 13.88, -1.27, 0.65, 10.55
50.710636, 2.328807, 13.97, -1.32, 0.74, 10.55
50.710636, 2.328807, 13.97, -1.42, 0.27, 9.56
50.710705, 2.328638, 14.04, -0.88, 0.12, 11.04
50.710705, 2.328638, 14.04, -1.24, 0.15, 9.49
50.710769, 2.328467, 13.72, -1.13, 0.25, 9.39
50.710769, 2.328467, 13.72, -0.61, 0.83, 8.41
50.710828, 2.328298, 13.41, 0.62, 0.95, 10.04
50.710828, 2.328298, 13.41, -0.68, 0.87, 8.91
50.710884, 2.328136, 13.11, -0.92, 1.25, 10.38
50.710884, 2.328136, 13.11, -1.13, 0.96, 8.74
50.710941, 2.327979, 12.76, 0.02, 0.09, 10.30
50.710941, 2.327979, 12.76, -1.43, 0.89, 9.82
50.711000, 2.327839, 11.69, -0.90, 0.62, 9.16
50.711000, 2.327839, 11.69, -1.47, 0.27, 9.84
50.711062, 2.327712, 11.52, -0.45, 0.08, 9.11
50.711062, 2.327712, 11.52, -0.31, 0.47, 9.23
50.711125, 2.327592, 10.62, -0.42, -0.02, 10.34
50.711125, 2.327592, 10.62, -0.16, 1.00, 10.18
50.711186, 2.327480, 9.75, -0.82, 0.21, 9.50
50.711186, 2.327480, 9.75, -0.72, 0.16, 10.36
50.711249, 2.327381, 9.20, -1.45, 0.41, 10.69
50.711249, 2.327381, 9.20, -1.57, 0.49, 10.39
50.711311, 2.327296, 9.11, -1.39, 0.74, 11.03
50.711311, 2.327296, 9.11, -1.09, 0.87, 10.75
50.711372, 2.327213, 8.87, -0.06, 0.50, 9.23
50.711372, 2.327213, 8.87, -1.44, 1.18, 10.47
50.711433, 2.327135, 8.47, 0.03, -0.13, 10.65
50.711433, 2.327135, 8.47, -1.87, 1.10, 10.99
50.711489, 2.327060, 8.04, -0.30, 0.71, 10.66
50.711489, 2.327060, 8.04, -0.05, 0.87, 8.98
50.711543, 2.326990, 7.57, -0.99, 0.69, 9.52
50.711597, 2.326921, 7.46, -1.39, 1.15, 10.47
50.711597, 2.326921, 7.46, -1.91, 0.44, 9.32
50.711648, 2.326855, 7.43, -0.68, 0.03, 10.70
50.711648, 2.326855, 7.43, 0.26, -0.54, 9.79
50.711697, 2.326794, 6.55, -0.34, 0.10, 9.46
50.711697, 2.326794, 6.55, -0.90, 0.54, 10.18
50.711742, 2.326740, 5.97, -1.15, 0.61, 9.93
50.711742, 2.326740, 5.97, -1.66, 0.41, 9.87
50.711782, 2.326689, 5.82, -1.24, 0.57, 8.78
50.711782, 2.326689, 5.82, 0.40, 0.23, 9.61
50.711818, 2.326639, 5.01, 0.06, 0.38, 10.39
50.711818, 2.326639, 5.01, -0.41, 0.31, 10.18
50.711850, 2.326595, 4.57, -0.88, 0.53, 9.84
50.711850, 2.326595, 4.57, -1.11, 1.07, 10.05
50.711880, 2.326554, 4.50, -0.29, 0.02, 10.18
50.711880, 2.326554, 4.50, -0.82, 0.39, 9.95
50.711910, 2.326513, 4.25, -1.63, 0.76, 9.54
50.711910, 2.326513, 4.25, -1.41, 0.41, 9.91
50.711941, 2.326473, 4.36, -1.28, 0.26, 9.29
50.711941, 2.326473, 4.36, -1.70, 1.13, 9.82
50.711972, 2.326433, 4.71, -1.81, 0.71, 9.89
50.711972, 2.326433, 4.71, -1.70, 1.16, 9.89
50.712008, 2.326389, 5.53, -1.10, 0.79, 9.85
50.712008, 2.326389, 5.53, -1.25, 1.31, 10.39
50.712048, 2.326344, 5.69, -1.58, 1.39, 10.48
50.712048, 2.326344, 5.69, -1.52, 1.44, 9.99
50.712086, 2.326300, 5.72, -0.83, 0.46, 9.80
50.712086, 2.326300, 5.72, -1.34, 0.91, 9.89
50.712127, 2.326248, 6.09, -1.38, 0.75, 9.81
50.712127, 2.326248, 6.09, -0.81, 1.14, 10.50
50.712166, 2.326189, 6.18, -0.41, 0.91, 9.76
50.712166, 2.326189, 6.18, -0.17, 1.34, 9.53
50.712208, 2.326127, 6.43, -1.36, 1.02, 9.53
50.712208, 2.326127, 6.43, -1.26, 0.85, 9.53
50.712254, 2.326068, 6.35, -0.22, 0.47, 9.26
50.712254, 2.326068, 6.35, -1.74, 1.51, 9.56
50.712302, 2.326005, 6.26, -1.78, 2.26, 9.78
50.712302, 2.326005, 6.26, -0.89, 3.08, 9.64
50.712356, 2.325947, 7.23, -0.91, 3.44, 9.50
50.712356, 2.325947, 7.23, -0.08, 3.97, 9.24
50.712422, 2.325899, 8.04, 0.93, 3.40, 11.47
50.712422, 2.325899, 8.04, -0.51, 2.29, 9.34
50.712499, 2.325885, 8.27, -1.49, 1.51, 10.41
50.712583, 2.325915, 9.26, -1.70, -0.74, 10.25
50.712583, 2.325915, 9.26, -2.71, -1.19, 9.86
50.712675, 2.325943, 9.21, -2.14, -1.46, 11.21
50.712675, 2.325943, 9.21, -3.18, -1.58, 9.19
50.712755, 2.325947, 9.41, -2.71, -1.70, 10.42
50.712755, 2.325947, 9.41, -2.30, -1.55, 10.04
50.712839, 2.325899, 9.75, -2.85, -2.05, 10.98
50.712839, 2.325899, 9.75, -3.14, -2.15, 10.55
50.712912, 2.325810, 9.86, -2.55, -1.77, 9.10
50.712912, 2.325810, 9.86, -2.75, -2.33, 9.43
50.712965, 2.325688, 9.79, -2.07, -1.97, 10.42
50.712965, 2.325688, 9.79, -2.57, -1.47, 9.10
50.712989, 2.325549, 9.49, -1.89, -0.83, 10.97
50.712989, 2.325549, 9.49, -1.85, -0.14, 10.74
50.712995, 2.325405, 9.58, -1.28, 1.56, 9.66
50.712995, 2.325405, 9.58, -0.25, 2.80, 10.07
50.712993, 2.325266, 9.89, -0.11, 3.52, 7.51
50.712993, 2.325266, 9.89, 0.76, 3.68, 8.16
50.713005, 2.325119, 10.53, 0.96, 3.63, 9.97
50.713005, 2.325119, 10.53, 0.14, 3.58, 9.52
50.713043, 2.324985, 10.61, -0.69, 2.86, 9.44
50.713043, 2.324985, 10.61, -1.66, 1.59, 9.79
50.713105, 2.324872, 10.89, -1.70, 0.87, 10.29
50.713105, 2.324872, 10.89, -1.39, 1.42, 9.69
50.713182, 2.324771, 11.18, -1.60, 0.77, 10.26
50.713182, 2.324771, 11.18, -0.86, -0.07, 10.05
50.713261, 2.324672, 11.38, -1.28, 0.71, 10.20
50.713261, 2.324672, 11.38, -1.34, 0.74, 10.62
50.713339, 2.324572, 11.36, -1.26, 0.69, 9.67
50.713339, 2.324572, 11.36, -1.27, 0.49, 9.67
50.713417, 2.324470, 11.53, -1.88, 0.23, 9.99
50.713417, 2.324470, 11.53, -1.50, 0.56, 8.68
50.713497, 2.324363, 12.00, -0.47, 0.81, 10.07
50.713497, 2.324363, 12.00, -1.20, 0.68, 10.25
50.713577, 2.324254, 12.05, -1.16, 0.47, 9.83
50.713577, 2.324254, 12.05, -0.97, 0.81, 9.20
50.713658, 2.324143, 12.08, -1.37, 0.47, 9.73
50.713658, 2.324143, 12.08, -1.16, 0.59, 9.61
50.713740, 2.324030, 12.15, -1.32, 0.72, 9.82
50.713740, 2.324030, 12.15, -1.13, 0.97, 8.55
50.713822, 2.323917, 12.33, -1.61, 1.08, 9.93
50.713908, 2.323801, 12.70, -1.69, 1.25, 8.61
50.713908, 2.323801, 12.70, -1.77, 0.79, 9.61
50.713997, 2.323683, 12.99, -1.06, 1.03, 10.28
50.713997, 2.323683, 12.99, -1.16, 0.86, 10.24
50.714086, 2.323562, 13.23, -1.68, -0.08, 9.63
50.714086, 2.323562, 13.23, -1.59, 0.79, 10.22
50.714180, 2.323442, 13.38, -1.64, 0.10, 9.45
50.714180, 2.323442, 13.38, -1.67, 0.80, 10.29
50.714272, 2.323316, 13.53, -1.47, 0.46, 9.92
50.714272, 2.323316, 13.53, -1.21, 0.82, 9.39
50.714365, 2.323190, 13.90, -1.08, 0.88, 8.97
50.714365, 2.323190, 13.90, -0.03, 0.24, 10.76
50.714460, 2.323065, 13.67, -0.94, 0.55, 10.31
50.714460, 2.323065, 13.67, -0.62, 0.64, 10.21
50.714551, 2.322943, 13.09, -0.86, -0.43, 9.92
50.714551, 2.322943, 13.09, -1.38, 0.47, 8.95
50.714638, 2.322825, 12.65, -0.21, 0.56, 9.98
50.714638, 2.322825, 12.65, -0.36, 0.43, 11.23
50.714723, 2.322712, 12.38, -0.64, 1.12, 9.85
50.714723, 2.322712, 12.38, -1.15, 0.78, 9.56
50.714809, 2.322600, 12.38, -1.67, 1.36, 9.60
50.714809, 2.322600, 12.38, -1.99, 1.45, 11.64
50.714893, 2.322478, 13.00, -2.16, 0.99, 10.36
50.714893, 2.322478, 13.00, -2.27, 0.90, 8.84
50.714980, 2.322350, 13.65, -2.14, 0.60, 9.85
50.714980, 2.322350, 13.65, -1.78, 0.60, 9.28
50.715070, 2.322214, 14.14, -1.44, 1.82, 11.21
50.715070, 2.322214, 14.14, -1.87, 1.01, 10.58
50.715164, 2.322076, 14.53, -0.66, 0.69, 12.02
50.715164, 2.322076, 14.53, 0.39, 0.25, 8.39
50.715261, 2.321937, 14.47, -2.18, 1.37, 10.85
50.715261, 2.321937, 14.47, -1.41, 1.57, 10.47
50.715359, 2.321795, 14.90, -0.71, 0.79, 8.96
50.715359, 2.321795, 14.90, -0.22, 0.72, 9.32
50.715459, 2.321654, 14.72, 0.23, 0.38, 9.66
50.715459, 2.321654, 14.72, 0.24, 0.64, 9.96
50.715557, 2.321525, 13.53, 0.01, 1.26, 11.14
50.715557, 2.321525, 13.53, -0.29, 1.60, 10.38
50.715649, 2.321408, 12.30, 1.04, 0.33, 9.25
50.715649, 2.321408, 12.30, -0.63, 0.84, 11.07
50.715738, 2.321308, 11.32, 1.53, 0.10, 10.36
50.715738, 2.321308, 11.32, -0.04, -0.36, 8.40
50.715822, 2.321228, 9.55, -0.00, 0.26, 10.08
50.715896, 2.321164, 8.69, 0.56, -0.44, 9.60
50.715896, 2.321164, 8.69, 0.75, -0.78, 10.39
50.715958, 2.321114, 6.41, 1.02, -0.62, 10.64
50.715958, 2.321114, 6.41, 1.55, -0.68, 10.53
50.716003, 2.321083, 3.69, 1.87, -0.37, 10.78
50.716003, 2.321083, 3.69, -0.73, 0.01, 10.03
50.716028, 2.321070, 1.83, 0.03, 0.22, 9.60
50.716028, 2.321070, 1.83, -1.33, 0.34, 9.83
50.716041, 2.321065, 1.27, -2.24, 1.57, 9.91
50.716041, 2.321065, 1.27, -2.56, 1.91, 9.35
50.716058, 2.321058, 2.52, -3.07, 2.25, 9.27
50.716058, 2.321058, 2.52, -2.43, 2.28, 10.35
50.716095, 2.321040, 4.61, -1.96, 3.05, 9.26
50.716095, 2.321040, 4.61, -0.20, 2.31, 8.41
50.716148, 2.321025, 6.10, -0.84, 1.83, 10.00
50.716148, 2.321025, 6.10, -2.04, 1.64, 9.56
50.716210, 2.321037, 6.87, -3.06, 1.78, 10.47
50.716210, 2.321037, 6.87, -2.64, 0.69, 9.95
50.716278, 2.321069, 8.63, -2.65, -0.26, 10.01
50.716278, 2.321069, 8.63, -2.27, 0.16, 9.71
50.716357, 2.321102, 9.59, -3.31, -0.88, 9.99
50.716357, 2.321102, 9.59, -2.82, -0.58, 9.52
50.716447, 2.321122, 10.46, -2.59, -1.35, 9.40
50.716447, 2.321122, 10.46, -2.04, -1.80, 9.85
50.716544, 2.321109, 10.95, -2.34, -1.26, 10.52
50.716544, 2.321109, 10.95, -2.02, -1.45, 9.02
50.716640, 2.321051, 10.86, -2.14, -1.48, 11.86
50.716640, 2.321051, 10.86, -2.54, -1.33, 8.92
50.716731, 2.320965, 10.85, -2.38, -1.58, 11.15
50.716731, 2.320965, 10.85, -2.34, -2.00, 9.26
50.716805, 2.320853, 10.96, -3.27, -1.53, 10.41
50.716805, 2.320853, 10.96, -1.45, -1.89, 9.45
50.716862, 2.320718, 10.93, -2.36, -1.55, 10.64
50.716862, 2.320718, 10.93, -1.98, -2.34, 10.19
50.716899, 2.320564, 11.28, -2.76, -1.23, 9.49
50.716899, 2.320564, 11.28, -2.72, -1.76, 11.26
50.716917, 2.320397, 10.96, -2.22, -1.34, 10.73
50.716917, 2.320397, 10.96, -3.17, -0.64, 9.92
50.716910, 2.320228, 10.95, -2.59, -1.81, 9.18
50.716910, 2.320228, 10.95, -2.78, -1.83, 10.02
50.716879, 2.320072, 11.34, -2.21, -0.97, 9.80
50.716827, 2.319922, 11.63, -1.46, -1.29, 9.95
50.716827, 2.319922, 11.63, -2.04, -1.98, 10.07
50.716757, 2.319793, 11.04, -2.40, -1.51, 8.67
50.716757, 2.319793, 11.04, -2.53, -1.90, 10.64
50.716676, 2.319689, 11.12, -1.91, -1.63, 10.52
50.716676, 2.319689, 11.12, -2.01, -0.58, 10.29
50.716584, 2.319613, 10.64, -0.68, 1.50, 10.53
50.716584, 2.319613, 10.64, -0.76, 2.72, 10.26
50.716484, 2.319549, 10.87, 0.25, 3.16, 8.39
50.716484, 2.319549, 10.87, 0.42, 4.57, 11.73
50.716387, 2.319475, 11.27, -0.17, 3.92, 8.59
50.716387, 2.319475, 11.27, 0.09, 4.95, 10.36
50.716304, 2.319359, 11.58, -0.88, 4.21, 8.75
50.716304, 2.319359, 11.58, -1.64, 3.59, 8.41
50.716261, 2.319200, 12.72, -2.32, 1.99, 10.85
50.716261, 2.319200, 12.72, -2.67, 1.60, 8.94
50.716224, 2.318989, 14.60, -2.47, 1.37, 11.04
50.716224, 2.318989, 14.60, -2.94, 0.67, 9.31
50.716197, 2.318769, 16.01, -2.99, 0.66, 9.68
50.716197, 2.318769, 16.01, -1.44, 1.18, 10.34
50.716168, 2.318535, 16.47, -2.09, 0.57, 8.59
50.716168, 2.318535, 16.47, -1.53, 1.37, 9.97
50.716134, 2.318299, 16.99, -1.98, 0.45, 9.48
50.716134, 2.318299, 16.99, -2.09, 1.85, 11.15
50.716097, 2.318054, 17.95, -2.48, 0.79, 8.99
50.716097, 2.318054, 17.95, -2.11, 0.59, 8.44
50.716058, 2.317790, 18.81, -1.54, 1.25, 11.08
50.716058, 2.317790, 18.81, -3.13, 0.59, 9.32
50.716018, 2.317518, 19.65, -1.67, 0.45, 10.30
50.716018, 2.317518, 19.65, -1.54, 1.50, 9.82
50.715980, 2.317241, 20.40, -2.49, -0.13, 10.96
50.715980, 2.317241, 20.40, -2.63, 0.34, 9.00
50.715937, 2.316945, 21.20, -3.16, -0.08, 9.42
50.715937, 2.316945, 21.20, -1.80, -0.09, 8.86
50.715891, 2.316642, 22.00, -1.79, 0.68, 12.30
50.715891, 2.316642, 22.00, -2.42, 0.31, 9.62
50.715846, 2.316341, 22.61, -1.92, 1.12, 10.40
50.715846, 2.316341, 22.61, -1.88, -0.70, 10.71
50.715796, 2.316024, 23.44, -2.21, 0.66, 8.83
50.715796, 2.316024, 23.44, -1.47, 0.47, 7.86
50.715743, 2.315692, 24.14, -1.48, 0.09, 9.56
50.715743, 2.315692, 24.14, -0.41, 0.72, 10.58
50.715683, 2.315358, 24.78, -0.86, 0.45, 10.59
50.715683, 2.315358, 24.78, 0.46, 0.54, 8.95
50.715620, 2.315012, 24.20, -1.15, 0.57, 9.99
50.715564, 2.314684, 24.33, -0.60, 1.66, 9.26
50.715564, 2.314684, 24.33, -2.46, -0.12, 9.35
50.715511, 2.314350, 24.73, -2.75, 0.61, 9.24
50.715511, 2.314350, 24.73, -1.85, 0.51, 10.18
50.715458, 2.314007, 25.19, -1.44, 1.12, 10.52
50.715458, 2.314007, 25.19, -2.51, 0.74, 8.92
50.715402, 2.313651, 25.66, -1.30, 1.27, 10.76
50.715402, 2.313651, 25.66, -1.39, 1.80, 10.15
50.715348, 2.313295, 26.09, -1.49, 0.83, 10.10
50.715348, 2.313295, 26.09, -2.04, 0.98, 9.64
50.715294, 2.312934, 26.44, -2.36, 0.42, 8.40
50.715294, 2.312934, 26.44, -1.20, 1.00, 10.62
50.715240, 2.312567, 26.86, -2.21, 0.91, 11.14
50.715240, 2.312567, 26.86, -2.69, 0.30, 8.49
50.715184, 2.312192, 27.24, -2.49, -0.06, 10.26
50.715184, 2.312192, 27.24, -1.46, 1.29, 9.80
50.715129, 2.311808, 27.50, -2.27, 0.86, 8.68
50.715129, 2.311808, 27.50, -0.45, 0.93, 8.37
50.715073, 2.311425, 27.79, -2.02, 1.15, 9.41
50.715073, 2.311425, 27.79, 0.12, 0.50, 11.48
50.715016, 2.311041, 27.62, -0.62, 0.49, 9.81
50.715016, 2.311041, 27.62, -0.92, 1.53, 10.39
50.714967, 2.310660, 26.99, -0.09, 0.45, 9.89
50.714967, 2.310660, 26.99, -1.48, 1.45, 10.29
50.714923, 2.310289, 26.44, -1.34, 0.63, 10.11
50.714923, 2.310289, 26.44, -0.48, 0.46, 9.11
50.714874, 2.309935, 25.93, -0.17, 0.06, 10.75
50.714874, 2.309935, 25.93, -0.31, -0.08, 10.04
50.714829, 2.309590, 25.42, -0.70, -0.82, 10.63
50.714829, 2.309590, 25.42, -0.38, -0.21, 10.47
50.714781, 2.309244, 24.76, -0.45, 0.55, 10.53
50.714781, 2.309244, 24.76, -1.29, 1.01, 9.59
50.714731, 2.308907, 24.25, -1.73, -0.07, 9.45
50.714731, 2.308907, 24.25, -1.11, -0.34, 10.46
50.714685, 2.308572, 24.11, -1.91, -0.69, 10.28
50.714685, 2.308572, 24.11, -0.37, 0.22, 8.85
50.714637, 2.308235, 23.75, -1.05, 0.93, 9.88
50.714637, 2.308235, 23.75, -0.69, 0.52, 9.28
50.714589, 2.307901, 23.33, -1.83, 0.96, 10.56
50.714589, 2.307901, 23.33, -2.09, 0.85, 9.59
50.714540, 2.307569, 23.43, -1.30, 1.02, 9.02
50.714488, 2.307229, 23.74, -1.32, 1.31, 10.12
50.714488, 2.307229, 23.74, -2.07, 0.79, 10.26
50.714437, 2.306889, 24.29, -1.94, 0.44, 9.77
50.714437, 2.306889, 24.29, -0.32, 0.40, 9.58
50.714390, 2.306549, 24.16, -1.05, 0.37, 10.09
50.714390, 2.306549, 24.16, -2.05, -0.06, 9.64
50.714340, 2.306212, 24.15, -1.45, 1.33, 9.54
50.714340, 2.306212, 24.15, -1.46, 0.99, 9.27
50.714298, 2.305870, 24.13, -1.53, 0.90, 9.96
50.714298, 2.305870, 24.13, -0.59, 0.24, 9.62
50.714254, 2.305533, 24.45, -0.14, 1.39, 10.24
50.714254, 2.305533, 24.45, -0.71, 0.89, 9.53
50.714209, 2.305204, 24.02, -1.42, 1.20, 11.16
50.714209, 2.305204, 24.02, -0.50, 1.30, 9.73
50.714168, 2.304872, 23.77, -0.34, 0.60, 9.79
50.714168, 2.304872, 23.77, -0.95, 0.45, 9.22
50.714137, 2.304540, 23.39, -0.71, 1.20, 8.54
50.714137, 2.304540, 23.39, -1.02, 1.57, 10.18
50.714112, 2.304212, 23.57, -2.07, 2.30, 10.44
50.714112, 2.304212, 23.57, -1.24, 0.95, 8.69
50.714105, 2.303877, 24.13, -2.14, 1.11, 11.15
50.714105, 2.303877, 24.13, -2.40, 1.77, 9.41
50.714104, 2.303534, 24.60, -1.09, 1.43, 9.15
50.714104, 2.303534, 24.60, -1.54, 0.94, 9.78
50.714103, 2.303180, 25.20, -1.10, 2.16, 9.58
50.714103, 2.303180, 25.20, -0.97, 2.32, 10.80
50.714121, 2.302820, 25.77, -1.86, 2.16, 9.98
50.714121, 2.302820, 25.77, -1.47, 1.98, 9.54
50.714171, 2.302463, 26.33, -0.61, 1.77, 8.56
50.714171, 2.302463, 26.33, -1.08, 2.53, 9.96
50.714227, 2.302089, 26.87, -1.04, 1.92, 10.41
50.714227, 2.302089, 26.87, -1.19, 1.63, 8.77
50.714298, 2.301720, 27.39, -1.27, 1.87, 9.58
50.714298, 2.301720, 27.39, 0.12, 2.44, 8.90
50.714386, 2.301348, 27.95, -0.53, 2.67, 10.65
50.714386, 2.301348, 27.95, -0.42, 1.96, 8.94
50.714480, 2.300971, 27.88, -0.75, 2.25, 10.27
50.714480, 2.300971, 27.88, -0.79, 2.24, 10.48
50.714600, 2.300626, 27.91, -0.38, 2.65, 10.49
50.714600, 2.300626, 27.91, 0.26, 1.81, 11.67
50.714739, 2.300293, 28.28, -0.43, 1.45, 8.56
50.714739, 2.300293, 28.28, 0.11, 2.03, 10.52
50.714890, 2.299973, 28.25, -0.47, 1.64, 9.32
50.714890, 2.299973, 28.25, -0.64, 1.41, 8.12
50.715041, 2.299673, 27.79, 0.59, 2.07, 9.29
50.715207, 2.299384, 27.75, -0.18, 2.54, 10.95
50.715207, 2.299384, 27.75, -0.11, 1.55, 10.26
50.715388, 2.299112, 27.65, -0.96, 1.32, 9.37
50.715388, 2.299112, 27.65, -0.22, 1.66, 11.28
50.715580, 2.298864, 27.63, -0.07, 1.60, 9.96
50.715580, 2.298864, 27.63, -1.23, 1.47, 9.93
50.715786, 2.298627, 27.53, -1.14, 1.50, 10.13
50.715786, 2.298627, 27.53, -0.51, 1.77, 12.70
50.715997, 2.298412, 27.77, -1.12, 1.10, 10.08
50.715997, 2.298412, 27.77, -1.03, 1.64, 9.40
50.716213, 2.298209, 27.46, -0.69, -0.26, 8.11
50.716213, 2.298209, 27.46, -0.24, 0.81, 9.63
50.716427, 2.298015, 27.43, -1.51, 1.02, 11.10
50.716427, 2.298015, 27.43, -0.98, 0.60, 9.12
50.716642, 2.297822, 27.61, -0.04, 1.14, 10.63
50.716642, 2.297822, 27.61, -1.95, 0.33, 8.38
50.716863, 2.297634, 27.86, -2.06, 1.23, 10.08
50.716863, 2.297634, 27.86, 0.22, 0.88, 10.16
50.717085, 2.297445, 27.76, -0.32, 0.08, 9.08
50.717085, 2.297445, 27.76, -0.96, 0.95, 9.97
50.717307, 2.297260, 27.42, -1.25, -0.09, 9.58
50.717307, 2.297260, 27.42, -1.14, -0.47, 8.52
50.717527, 2.297080, 27.33, -2.01, 0.77, 9.37
50.717527, 2.297080, 27.33, -1.39, 0.63, 11.97
50.717747, 2.296900, 27.51, -1.72, -0.61, 9.39
50.717747, 2.296900, 27.51, -0.11, 0.52, 10.44
50.717967, 2.296716, 27.67, -1.83, 0.25, 11.19
50.717967, 2.296716, 27.67, -1.08, 0.61, 8.82
50.718185, 2.296529, 27.61, 0.54, 0.48, 10.64
50.718185, 2.296529, 27.61, -1.29, 0.54, 9.61
50.718401, 2.296344, 27.19, -0.56, -0.23, 8.56
50.718401, 2.296344, 27.19, -2.04, 0.84, 10.52
50.718617, 2.296163, 26.96, -1.28, 0.21, 9.44
50.718617, 2.296163, 26.96, -1.39, 0.67, 9.54
50.718829, 2.295986, 26.89, -1.47, -0.32, 10.41
50.718829, 2.295986, 26.89, -0.40, 1.05, 10.53
50.719045, 2.295808, 27.11, -1.54, 1.05, 10.35
50.719045, 2.295808, 27.11, -0.76, -0.38, 7.09
50.719262, 2.295623, 27.28, -1.77, -0.07, 7.26
50.719262, 2.295623, 27.28, -2.46, 0.15, 10.12
50.719479, 2.295437, 27.60, -1.34, 0.28, 8.96
50.719699, 2.295256, 27.34, -1.85, 0.28, 10.77
50.719699, 2.295256, 27.34, -0.57, -0.06, 11.75
50.719913, 2.295069, 26.96, -1.21, 0.67, 10.62
50.719913, 2.295069, 26.96, -0.86, 0.65, 10.86
50.720125, 2.294887, 26.64, -0.99, -0.70, 9.78
50.720125, 2.294887, 26.64, -1.08, -0.23, 7.82
50.720338, 2.294711, 26.13, -0.61, 0.48, 9.86
50.720338, 2.294711, 26.13, -0.71, -0.03, 9.14
50.720543, 2.294532, 25.75, -0.70, 0.01, 8.22
50.720543, 2.294532, 25.75, -0.42, -0.70, 6.72
50.720744, 2.294354, 25.19, -1.07, -0.61, 7.79
50.720744, 2.294354, 25.19, -0.66, -1.24, 6.64
50.720934, 2.294177, 24.31, -0.31, -0.50, 8.96
50.720934, 2.294177, 24.31, -0.66, 1.00, 10.68
50.721116, 2.294004, 23.47, 0.34, 0.19, 10.42
50.721116, 2.294004, 23.47, -0.49, -0.96, 10.45
50.721289, 2.293838, 22.36, -0.30, -0.90, 6.84
50.721289, 2.293838, 22.36, 0.87, -0.24, 8.41
50.721450, 2.293680, 20.36, 0.99, -0.57, 8.39
50.721450, 2.293680, 20.36, -0.32, -0.78, 9.72
50.721595, 2.293536, 18.48, 0.08, -0.28, 11.84
50.721595, 2.293536, 18.48, -0.07, -0.90, 7.73
50.721730, 2.293404, 17.31, -1.28, -0.60, 9.23
50.721730, 2.293404, 17.31, -1.02, 0.15, 9.00
50.721861, 2.293278, 17.10, -0.94, -0.58, 9.06
50.721861, 2.293278, 17.10, -0.99, -0.47, 8.67
50.721991, 2.293144, 17.07, -0.01, -0.11, 9.23
50.721991, 2.293144, 17.07, -1.13, -0.71, 9.83
50.722114, 2.293006, 16.27, -1.13, 0.53, 10.78
50.722114, 2.293006, 16.27, -0.02, -0.08, 9.55
50.722225, 2.292871, 15.53, -0.77, -0.32, 9.61
50.722225, 2.292871, 15.53, -1.17, 0.08, 10.37
50.722333, 2.292750, 14.68, -0.77, 0.28, 10.06
50.722333, 2.292750, 14.68, -0.49, -0.41, 11.78
50.722428, 2.292615, 13.65, -0.41, -0.25, 9.87
50.722428, 2.292615, 13.65, -0.59, -0.16, 8.96
50.722529, 2.292497, 12.40, -0.88, -0.22, 10.17
50.722529, 2.292497, 12.40, 0.32, -0.50, 9.04
50.722615, 2.292388, 11.13, -1.46, -0.46, 8.21
50.722615, 2.292388, 11.13, -0.72, 0.17, 9.70
50.722697, 2.292273, 9.81, -1.24, 0.91, 9.18
50.722697, 2.292273, 9.81, -0.70, -0.08, 10.64
50.722759, 2.292184, 9.12, -1.51, 0.01, 8.61
50.722759, 2.292184, 9.12, -0.85, -0.18, 9.41
50.722815, 2.292107, 8.54, -0.14, -1.00, 9.50
50.722815, 2.292107, 8.54, 0.15, 0.18, 10.96
50.722863, 2.292033, 7.34, 0.35, -0.58, 9.85
50.722863, 2.292033, 7.34, -0.17, 0.99, 9.53
50.722904, 2.291969, 5.54, 1.59, -0.80, 10.06
50.722935, 2.291921, 4.29, 1.41, -0.23, 9.71
50.722935, 2.291921, 4.29, 1.24, -0.49, 9.84
50.722935, 2.291921, 0.00, 1.06, -0.89, 10.41
50.722935, 2.291921, 0.00, 0.45, -0.02, 10.77
50.722935, 2.291921, 0.00, -0.92, 0.66, 10.81
50.722935, 2.291921, 0.00, -1.28, 0.48, 10.91
50.722935, 2.291921, 0.00, -1.01, 0.83, 9.67
50.722935, 2.291921, 0.00, -1.15, 0.56, 10.46
50.722935, 2.291921, 0.00, -1.20, 0.43, 11.00
50.722935, 2.291921, 0.00, -1.23, 0.64, 9.15
50.722935, 2.291921, 0.00, -1.26, 0.90, 9.89
50.722935, 2.291921, 0.00, -1.32, 0.54, 10.86
50.722935, 2.291921, 0.00, -1.33, 0.69, 10.04
50.722935, 2.291921, 0.00, -1.85, 0.79, 9.65
50.722935, 2.291921, 0.00, -2.36, 0.84, 9.15
50.722935, 2.291921, 0.00, 2.60, -0.80, 10.76
50.722935, 2.291921, 0.00, -1.14, 0.43, 9.89
50.722935, 2.291921, 0.00, -1.23, 0.50, 10.28
50.722935, 2.291921, 0.00, -1.20, 0.58, 9.84
50.722935, 2.291921, 0.00, -1.35, 0.70, 9.85
50.722935, 2.291921, 0.00, -1.37, 0.59, 9.93
50.722935, 2.291921, 0.00, -2.49, 0.69, 9.58
50.722935, 2.291921, 0.00, -2.44, 0.97, 10.14
50.722935, 2.291921, 0.00, -2.65, 1.06, 10.68
50.722935, 2.291921, 0.00, -3.81, 0.72, 9.74
50.722935, 2.291921, 0.00, -3.85, 0.39, 7.94
50.722994, 2.291833, 3.94, -2.98, -0.35, 9.45
50.722994, 2.291833, 3.94, -3.07, -1.11, 10.28
50.723012, 2.291774, 5.35, -2.81, -1.56, 9.51
50.723012, 2.291774, 5.35, -1.40, -0.08, 8.60
50.723015, 2.291696, 6.22, -2.64, -1.00, 9.47
50.723015, 2.291696, 6.22, -2.55, 1.85, 10.26
50.722991, 2.291612, 6.65, -2.01, 1.46, 9.50
50.722991, 2.291612, 6.65, -3.37, 1.74, 10.33
50.722964, 2.291516, 8.35, -2.23, 1.80, 9.92
50.722964, 2.291516, 8.35, -2.61, 1.72, 9.66
50.722930, 2.291396, 9.90, -2.33, 1.86, 8.96
50.722930, 2.291396, 9.90, -0.96, 0.72, 10.52
50.722896, 2.291252, 11.37, -1.40, 0.89, 9.53
50.722896, 2.291252, 11.37, -1.40, 1.50, 9.70
50.722868, 2.291097, 11.53, -1.47, 2.28, 11.20
50.722842, 2.290931, 12.80, -1.58, 1.58, 10.04
50.722842, 2.290931, 12.80, -2.06, 0.80, 8.78
50.722819, 2.290747, 13.94, -2.62, 0.73, 9.77
50.722819, 2.290747, 13.94, -2.62, -0.24, 8.65
50.722793, 2.290535, 15.49, -3.08, 1.31, 10.25
50.722793, 2.290535, 15.49, -2.27, 0.66, 9.30
50.722760, 2.290300, 17.04, -0.80, 0.27, 10.21
50.722760, 2.290300, 17.04, -2.10, 0.80, 10.12
50.722726, 2.290065, 17.24, -3.17, -0.13, 7.95
50.722726, 2.290065, 17.24, -1.90, 0.24, 11.24
50.722697, 2.289823, 18.07, -1.36, -0.22, 7.93
50.722697, 2.289823, 18.07, -1.37, 1.46, 8.50
50.722661, 2.289577, 18.39, -1.99, 0.52, 10.16
50.722661, 2.289577, 18.39, -2.21, 0.91, 10.50
50.722628, 2.289317, 19.00, -2.77, 0.57, 8.70
50.722628, 2.289317, 19.00, -1.60, 0.29, 4.55
50.722582, 2.289054, 19.67, -1.10, -0.33, 11.42
50.722582, 2.289054, 19.67, -1.62, -0.15, 9.47
50.722528, 2.288795, 19.32, -1.29, -0.18, 8.83
50.722528, 2.288795, 19.32, -1.30, -0.94, 9.84
50.722460, 2.288537, 18.89, -0.95, -0.02, 11.83
50.722460, 2.288537, 18.89, -0.90, -1.18, 11.01
50.722374, 2.288276, 18.37, -1.94, -0.59, 10.94
50.722374, 2.288276, 18.37, -1.49, -1.21, 11.43
50.722286, 2.288045, 18.00, -1.58, -0.56, 11.91
50.722286, 2.288045, 18.00, -1.42, 0.13, 8.02
50.722195, 2.287846, 17.74, -0.63, -0.08, 12.24
50.722195, 2.287846, 17.74, 0.05, 0.69, 10.21
50.722093, 2.287663, 17.42, -1.58, -0.30, 8.30
50.722093, 2.287663, 17.42, 0.34, 0.14, 5.94
50.721982, 2.287497, 17.51, 0.25, 1.11, 10.19
50.721982, 2.287497, 17.51, -0.29, 2.38, 12.66
50.721873, 2.287332, 17.28, -2.36, -0.12, 9.39
50.721873, 2.287332, 17.28, -0.85, 0.22, 10.31
50.721766, 2.287163, 17.22, -0.45, 0.15, 7.43
50.721766, 2.287163, 17.22, -2.01, 0.13, 9.21
50.721660, 2.286995, 17.08, -1.41, -0.16, 7.67
50.721660, 2.286995, 17.08, -1.38, 0.71, 10.91
50.721556, 2.286822, 16.73, -0.89, 1.50, 14.57
50.721556, 2.286822, 16.73, -1.71, 1.24, 8.58
50.721454, 2.286649, 16.60, -1.24, 0.21, 7.54
50.721354, 2.286473, 16.59, -1.66, 0.69, 10.46
50.721354, 2.286473, 16.59, -1.79, 0.07, 9.31
50.721256, 2.286302, 16.24, -0.79, 1.26, 11.10
50.721256, 2.286302, 16.24, -1.62, 0.16, 8.16
50.721150, 2.286143, 16.21, -2.09, 0.85, 11.79
50.721150, 2.286143, 16.21, -0.93, 1.63, 11.99
50.721044, 2.285981, 16.56, -1.94, -0.23, 9.95
50.721044, 2.285981, 16.56, -0.82, 0.33, 10.14
50.720935, 2.285813, 17.03, -1.71, 1.22, 10.72
50.720935, 2.285813, 17.03, -1.82, 0.47, 9.02
50.720826, 2.285633, 17.37, -1.30, 0.29, 10.38
50.720826, 2.285633, 17.37, 0.59, 0.35, 10.35
50.720715, 2.285463, 16.76, -0.80, 0.21, 8.82
50.720715, 2.285463, 16.76, -1.25, 0.96, 12.38
50.720609, 2.285294, 16.43, -0.80, 0.51, 9.31
50.720609, 2.285294, 16.43, -1.36, 1.40, 8.69
50.720506, 2.285132, 16.46, -1.75, 0.43, 11.03
50.720506, 2.285132, 16.46, -1.77, 0.34, 10.40
50.720403, 2.284970, 16.55, -0.92, 0.59, 8.58
50.720403, 2.284970, 16.55, -1.23, 0.67, 7.86
50.720303, 2.284810, 16.09, -1.67, -0.56, 9.81
50.720303, 2.284810, 16.09, -1.42, -0.48, 14.24
50.720207, 2.284650, 15.65, 0.65, -0.67, 8.38
50.720207, 2.284650, 15.65, -0.79, -0.78, 9.01
50.720113, 2.284494, 14.65, -0.93, -0.95, 8.92
50.720113, 2.284494, 14.65, -0.99, 0.94, 10.67
50.720022, 2.284354, 13.70, -0.80, 0.84, 10.65
50.720022, 2.284354, 13.70, -0.59, -0.03, 10.41
50.719936, 2.284226, 12.27, -0.16, 0.55, 10.30
50.719936, 2.284226, 12.27, -0.08, 0.61, 9.85
50.719861, 2.284108, 11.05, 1.85, -0.89, 11.11
50.719861, 2.284108, 11.05, 1.16, -0.68, 9.12
50.719799, 2.283995, 9.83, 0.58, -0.50, 9.48
50.719799, 2.283995, 9.83, 0.53, 0.11, 9.25
50.719751, 2.283897, 7.82, -0.07, -0.40, 10.41
50.719751, 2.283897, 7.82, 1.04, -0.52, 10.01
50.719699, 2.283822, 6.28, 0.74, 0.03, 10.86
50.719699, 2.283822, 6.28, 1.09, -0.01, 10.46
50.719664, 2.283774, 3.90, 1.07, -0.44, 9.42
50.719664, 2.283774, 3.90, 0.94, -0.32, 10.53
50.719664, 2.283774, 0.00, 0.13, -0.15, 10.33
50.719664, 2.283774, 0.00, 0.18, -0.10, 9.86
50.719664, 2.283774, 0.00, -0.48, 0.54, 11.08
50.719664, 2.283774, 0.00, -0.91, 0.26, 10.75
50.719664, 2.283774, 0.00, -0.71, 0.42, 10.56
50.719664, 2.283774, 0.00, -0.73, 0.50, 10.06
50.719664, 2.283774, 0.00, -1.41, 0.18, 11.14
50.719664, 2.283774, 0.00, -1.05, 0.84, 9.48
50.719664, 2.283774, 0.00, -0.93, 0.61, 10.89
50.719664, 2.283774, 0.00, -0.56, 0.35, 8.82
50.719664, 2.283774, 0.00, -1.11, 0.83, 8.56
50.719664, 2.283774, 0.00, -0.56, 0.49, 10.66
50.719664, 2.283774, 0.00, -0.88, 0.51, 9.59
50.719664, 2.283774, 0.00, -1.00, 0.86, 9.50
50.719664, 2.283774, 0.00, -0.67, 0.81, 8.96
50.719664, 2.283774, 0.00, -1.22, 0.56, 10.40
50.719664, 2.283774, 0.00, -0.73, 0.62, 10.21
50.719664, 2.283774, 0.00, -0.87, 0.88, 8.78
50.719664, 2.283774, 0.00, -1.13, 0.42, 10.54
50.719664, 2.283774, 0.00, -0.81, 0.52, 9.46
50.719664, 2.283774, 0.00, -0.96, 0.34, 10.75
50.719664, 2.283774, 0.00, -0.63, 0.74, 9.89
50.719664, 2.283774, 0.00, -0.88, 0.43, 10.63
50.719664, 2.283774, 0.00, -0.60, 0.49, 10.66
50.719664, 2.283774, 0.00, -0.72, 0.50, 10.49
50.719664, 2.283774, 0.00, -0.87, 0.47, 9.97
50.719664, 2.283774, 0.00, -0.85, 0.92, 9.08
50.719664, 2.283774, 0.00, -1.07, 0.57, 9.32
50.719664, 2.283774, 0.00, -1.00, 0.43, 10.87
50.719664, 2.283774, 0.00, -1.30, 0.42, 10.52
50.719664, 2.283774, 0.00, -0.82, 0.92, 9.07
50.719664, 2.283774, 0.00, -1.58, 0.40, 9.86
50.719664, 2.283774, 0.00, -0.33, 0.86, 8.98
50.719664, 2.283774, 0.00, -1.07, 0.32, 10.68
50.719664, 2.283774, 0.00, -0.89, 0.66, 9.20
50.719664, 2.283774, 0.00, -0.76, 0.32, 10.89
50.719664, 2.283774, 0.00, -0.69, 0.49, 10.28
50.719664, 2.283774, 0.00, -0.79, 0.62, 9.09
50.719664, 2.283774, 0.00, -1.67, 0.87, 9.80
50.719664, 2.283774, 0.00, -1.09, 1.53, 9.78
50.719664, 2.283774, 0.00, -2.83, 0.83, 9.78
50.719664, 2.283774, 0.00, -1.99, 0.08, 10.75
50.719664, 2.283774, 0.00, -3.42, 1.17, 10.80
50.719664, 2.283774, 0.00, -2.86, -0.90, 9.83
50.719664, 2.283774, 0.00, -2.64, -0.45, 10.14
50.719636, 2.283680, 3.90, -3.09, -1.12, 9.56
50.719600, 2.283636, 5.18, -2.54, -0.28, 10.60
50.719600, 2.283636, 5.18, -1.49, -1.07, 10.70
50.719542, 2.283628, 6.06, -2.23, -1.02, 9.96
50.719542, 2.283628, 6.06, -3.41, -0.46, 8.98
50.719483, 2.283650, 6.50, -3.55, -0.44, 9.00
50.719483, 2.283650, 6.50, -3.17, 0.53, 10.02
50.719399, 2.283711, 8.26, -3.30, 0.58, 9.27
50.719399, 2.283711, 8.26, -2.57, 1.30, 9.65
50.719318, 2.283795, 9.81, -1.02, 0.43, 8.73
50.719318, 2.283795, 9.81, -1.22, 1.50, 9.70
50.719238, 2.283880, 9.97, -2.21, 1.58, 9.64
50.719238, 2.283880, 9.97, -2.15, 2.03, 9.74
50.719157, 2.283953, 10.95, -1.75, 1.72, 9.78
50.719157, 2.283953, 10.95, -1.80, 1.88, 9.74
50.719064, 2.284036, 11.99, -1.76, 1.42, 9.23
50.719064, 2.284036, 11.99, -1.89, 1.86, 9.43
50.718967, 2.284113, 12.81, -1.34, 2.28, 9.70
50.718967, 2.284113, 12.81, -1.86, 1.88, 10.40
50.718863, 2.284180, 13.72, -1.24, 1.79, 9.40
50.718863, 2.284180, 13.72, -1.24, 1.25, 9.97
50.718747, 2.284241, 14.41, -1.25, 0.95, 9.63
50.718747, 2.284241, 14.41, -1.52, 0.62, 10.85
50.718619, 2.284289, 14.39, -1.24, 1.41, 10.41
50.718619, 2.284289, 14.39, -0.36, 1.25, 9.93
50.718491, 2.284325, 14.04, -1.81, 0.33, 9.63
50.718491, 2.284325, 14.04, -1.00, 0.15, 10.08
50.718363, 2.284351, 13.94, -0.91, -0.05, 9.95
50.718363, 2.284351, 13.94, -0.81, 0.34, 11.24
50.718232, 2.284366, 13.66, -1.35, 0.11, 9.87
50.718232, 2.284366, 13.66, -0.73, 0.91, 11.21
50.718107, 2.284385, 13.32, -0.24, 0.61, 11.32
50.718107, 2.284385, 13.32, 0.02, -0.89, 9.39
50.717991, 2.284405, 12.30, 0.45, -0.67, 10.02
50.717991, 2.284405, 12.30, 0.22, -0.24, 9.62
50.717888, 2.284427, 10.99, 1.53, -0.43, 10.52
50.717888, 2.284427, 10.99, 0.60, 0.46, 10.43
50.717798, 2.284445, 9.55, -0.02, -0.59, 10.47
50.717798, 2.284445, 9.55, -0.46, 0.49, 11.14
50.717719, 2.284457, 8.37, 0.07, -0.34, 10.20
50.717719, 2.284457, 8.37, 0.31, -0.58, 10.03
50.717649, 2.284467, 6.78, 0.03, 0.84, 10.39
50.717649, 2.284467, 6.78, 0.33, 0.32, 10.25
50.717597, 2.284476, 5.51, -0.83, 0.06, 10.46
50.717567, 2.284478, 3.89, 0.61, -0.17, 10.99
50.717567, 2.284478, 3.89, -1.04, 0.73, 10.68
50.717541, 2.284482, 3.08, -1.54, 0.48, 9.25
50.717541, 2.284482, 3.08, -0.98, 0.37, 8.79
50.717518, 2.284483, 2.63, -1.52, 1.01, 9.65
50.717518, 2.284483, 2.63, -2.00, 1.53, 10.40
50.717497, 2.284479, 3.03, -2.43, 1.57, 9.05
50.717497, 2.284479, 3.03, -2.67, 2.53, 9.72
50.717465, 2.284460, 4.03, -1.71, 1.13, 10.83
50.717465, 2.284460, 4.03, -3.09, 2.71, 10.18
50.717410, 2.284424, 5.14, -1.63, 1.94, 9.42
50.717410, 2.284424, 5.14, -2.18, 1.57, 9.28
50.717362, 2.284382, 6.60, -2.12, 3.14, 9.56
50.717362, 2.284382, 6.60, -2.54, 2.99, 11.39
50.717329, 2.284322, 7.95, -2.19, 1.99, 9.38
50.717329, 2.284322, 7.95, -1.10, 3.12, 9.90
50.717285, 2.284207, 9.27, -1.27, 2.89, 9.87
50.717285, 2.284207, 9.27, -2.27, 2.33, 7.66
50.717262, 2.284057, 10.31, -0.73, 1.40, 8.87
50.717262, 2.284057, 10.31, -0.79, 1.05, 10.11
50.717253, 2.283898, 10.35, -1.70, 0.21, 9.69
50.717253, 2.283898, 10.35, -1.65, 0.74, 9.45
50.717254, 2.283739, 10.21, -2.22, -0.59, 12.21
50.717254, 2.283739, 10.21, -1.32, 1.47, 11.12
50.717253, 2.283590, 10.17, -1.37, 0.23, 9.64
50.717253, 2.283590, 10.17, -1.35, 0.53, 10.96
50.717251, 2.283446, 10.11, -1.55, 0.71, 9.76
50.717251, 2.283446, 10.11, -1.18, 0.92, 9.70
50.717244, 2.283302, 9.77, -1.11, -0.39, 8.34
50.717244, 2.283302, 9.77, -2.24, 0.68, 8.99
50.717235, 2.283169, 9.10, -0.14, 0.81, 9.39
50.717235, 2.283169, 9.10, -1.04, -0.12, 8.75
50.717230, 2.283042, 8.31, -0.11, -0.74, 9.61
50.717230, 2.283042, 8.31, -0.34, -0.76, 10.75
50.717223, 2.282925, 7.34, -0.78, -0.12, 10.07
50.717223, 2.282925, 7.34, -0.27, 0.29, 9.46
50.717218, 2.282814, 6.00, -0.75, 0.12, 9.80
50.717218, 2.282814, 6.00, -1.84, 0.35, 9.84
50.717212, 2.282727, 5.35, -2.60, 1.40, 10.07
50.717212, 2.282727, 5.35, -1.49, 0.11, 10.06
50.717199, 2.282651, 5.76, -0.79, 0.22, 9.63
50.717199, 2.282651, 5.76, -2.62, 0.23, 9.67
50.717189, 2.282570, 5.54, -2.74, 0.57, 10.14
50.717189, 2.282570, 5.54, -2.07, 0.79, 10.30
50.717178, 2.282482, 6.56, -2.04, -0.45, 7.23
50.717161, 2.282387, 7.45, -1.14, -0.58, 9.60
50.717161, 2.282387, 7.45, -0.12, 0.12, 9.84
50.717146, 2.282281, 6.49, 0.49, -0.35, 9.17
50.717146, 2.282281, 6.49, -0.51, 0.88, 10.39
50.717131, 2.282197, 5.05, 0.33, -0.94, 9.92
50.717131, 2.282197, 5.05, -0.79, 0.45, 9.32
50.717112, 2.282142, 4.28, -2.48, 0.37, 9.69
50.717112, 2.282142, 4.28, -2.62, 0.90, 10.51
50.717096, 2.282079, 5.30, -3.24, 0.38, 8.59
50.717096, 2.282079, 5.30, -1.65, 0.90, 9.33
50.717076, 2.281998, 6.37, -2.49, 0.64, 10.02
50.717076, 2.281998, 6.37, -1.58, 0.35, 10.13
50.717051, 2.281907, 7.29, -2.55, 0.87, 9.32
50.717051, 2.281907, 7.29, -2.05, 0.40, 10.22
50.717022, 2.281806, 8.30, -2.11, 0.58, 10.32
50.717022, 2.281806, 8.30, -2.09, -0.60, 8.98
50.716988, 2.281695, 8.96, -0.91, 0.92, 11.30
50.716988, 2.281695, 8.96, -2.49, 0.45, 8.94
50.716953, 2.281582, 9.40, -1.46, -0.22, 9.44
50.716953, 2.281582, 9.40, -1.04, -0.11, 10.30
50.716920, 2.281469, 8.83, -0.21, 0.30, 9.28
50.716920, 2.281469, 8.83, -0.71, -1.21, 9.01
50.716886, 2.281359, 8.38, -0.93, 0.16, 11.22
50.716886, 2.281359, 8.38, -1.50, 0.97, 10.58
50.716854, 2.281250, 8.03, -0.99, 0.55, 11.28
50.716854, 2.281250, 8.03, -0.96, -0.01, 10.63
50.716828, 2.281144, 7.61, -1.65, -0.75, 11.16
50.716828, 2.281144, 7.61, -1.22, 0.30, 10.27
50.716804, 2.281053, 7.40, -1.30, -0.44, 9.01
50.716804, 2.281053, 7.40, -1.03, 0.09, 9.92
50.716784, 2.280946, 7.34, -1.48, 0.36, 9.36
50.716784, 2.280946, 7.34, -0.53, 0.83, 10.08
50.716770, 2.280836, 7.60, -3.18, 1.12, 10.20
50.716770, 2.280836, 7.60, -1.37, 0.57, 8.59
50.716751, 2.280729, 7.61, -1.95, 0.65, 10.38
50.716751, 2.280729, 7.61, -1.43, 1.06, 10.98
50.716720, 2.280634, 7.29, -2.66, 1.24, 9.03
50.716720, 2.280634, 7.29, -1.74, -0.28, 7.85
50.716699, 2.280529, 7.79, -0.90, 0.36, 9.36
50.716699, 2.280529, 7.79, -1.43, -0.09, 10.64
50.716677, 2.280421, 7.70, -1.44, 0.79, 8.46
50.716658, 2.280316, 7.71, -0.98, 0.79, 9.99
50.716658, 2.280316, 7.71, -0.89, 0.55, 10.51
50.716640, 2.280201, 7.82, -1.13, 0.27, 8.54
50.716640, 2.280201, 7.82, -1.77, 0.36, 9.45
50.716618, 2.280091, 7.97, -1.45, 0.02, 10.75
50.716618, 2.280091, 7.97, -1.95, -0.51, 9.08
50.716597, 2.279983, 8.18, -2.19, -0.37, 9.47
50.716597, 2.279983, 8.18, -1.51, 0.42, 10.41
50.716574, 2.279879, 8.03, -1.74, 0.23, 8.83
50.716574, 2.279879, 8.03, -1.55, 0.52, 10.23
50.716549, 2.279771, 8.01, -1.48, -0.23, 9.22
50.716549, 2.279771, 8.01, -2.55, 0.21, 8.80
50.716527, 2.279655, 8.22, -1.50, 0.38, 12.58
50.716527, 2.279655, 8.22, -1.87, 0.70, 10.30
50.716508, 2.279535, 8.34, -1.27, 0.51, 10.54
50.716508, 2.279535, 8.34, -2.70, 0.32, 8.87
50.716489, 2.279418, 8.47, -0.55, 0.37, 10.55
50.716489, 2.279418, 8.47, -2.23, 0.13, 10.43
50.716470, 2.279300, 8.57, -2.25, 0.54, 10.15
50.716470, 2.279300, 8.57, -1.51, 0.69, 10.44
50.716445, 2.279188, 8.55, -1.66, -0.31, 9.33
50.716445, 2.279188, 8.55, -1.05, -0.01, 9.09
50.716417, 2.279071, 8.67, -1.60, 0.66, 9.61
50.716417, 2.279071, 8.67, -0.96, 0.13, 9.69
50.716391, 2.278964, 9.01, -0.89, 0.03, 10.23
50.716391, 2.278964, 9.01, -1.16, 0.03, 9.61
50.716362, 2.278852, 8.57, -1.80, 0.22, 9.85
50.716362, 2.278852, 8.57, -0.82, 1.00, 10.53
50.716330, 2.278741, 8.43, -0.67, 1.02, 8.18
50.716330, 2.278741, 8.43, -1.41, 0.59, 9.95
50.716297, 2.278635, 8.31, -1.31, 0.15, 7.04
50.716297, 2.278635, 8.31, 0.32, 0.54, 12.82
50.716265, 2.278528, 8.53, -2.06, -0.44, 9.94
50.716265, 2.278528, 8.53, -1.39, -0.26, 9.66
50.716236, 2.278412, 8.75, -0.79, 0.59, 9.89
50.716236, 2.278412, 8.75, -1.25, -0.06, 12.21
50.716205, 2.278298, 8.51, -0.95, -0.20, 9.16
50.716205, 2.278298, 8.51, -0.77, 0.37, 10.51
50.716183, 2.278179, 8.23, -2.17, 0.81, 9.23
50.716183, 2.278179, 8.23, -1.03, 0.29, 10.23
50.716156, 2.278068, 8.43, -1.56, 0.70, 9.86
50.716156, 2.278068, 8.43, -0.98, 0.78, 12.69
50.716127, 2.277959, 8.67, -1.26, 0.21, 10.77
50.716097, 2.277844, 8.86, -1.37, 0.26, 10.67
50.716097, 2.277844, 8.86, -0.71, 0.10, 9.43
50.716069, 2.277727, 8.50, -0.94, 1.19, 10.64
50.716069, 2.277727, 8.50, -1.41, 0.44, 9.93
50.716040, 2.277618, 8.32, -1.13, 1.02, 8.90
50.716040, 2.277618, 8.32, -1.27, 0.97, 9.31
50.716009, 2.277510, 8.59, -2.32, 0.60, 9.37
50.716009, 2.277510, 8.59, -2.15, 1.15, 9.56
50.715978, 2.277397, 8.82, -1.23, 1.27, 10.29
50.715978, 2.277397, 8.82, -0.87, 0.04, 10.76
50.715950, 2.277283, 8.80, -0.98, 0.99, 9.43
50.715950, 2.277283, 8.80, -0.50, 0.43, 9.76
50.715926, 2.277161, 8.29, -0.90, 0.31, 10.17
50.715926, 2.277161, 8.29, -0.38, 0.61, 10.15
50.715905, 2.277047, 7.84, -2.39, 0.82, 10.33
50.715905, 2.277047, 7.84, -2.49, 0.18, 8.40
50.715884, 2.276933, 8.68, -2.15, 0.90, 9.36
50.715884, 2.276933, 8.68, -0.92, -0.39, 9.52
50.715864, 2.276814, 8.96, -0.78, 0.77, 9.20
50.715864, 2.276814, 8.96, -1.50, 0.85, 10.80
50.715846, 2.276691, 8.79, -0.94, 1.03, 10.18
50.715846, 2.276691, 8.79, -0.88, 0.59, 9.64
50.715830, 2.276568, 8.92, -0.44, -0.11, 9.25
50.715830, 2.276568, 8.92, -0.75, 0.93, 11.49
50.715816, 2.276447, 8.55, -1.31, 0.61, 9.62
50.715816, 2.276447, 8.55, -0.62, -0.17, 9.57
50.715807, 2.276331, 8.35, -0.90, 0.50, 10.09
50.715807, 2.276331, 8.35, -1.27, 0.83, 10.10
50.715797, 2.276221, 7.92, 0.06, 0.23, 9.33
50.715797, 2.276221, 7.92, -0.56, 1.17, 9.28
50.715788, 2.276117, 7.52, -1.47, 0.95, 10.34
50.715788, 2.276117, 7.52, -1.92, 0.68, 9.17
50.715780, 2.276017, 7.66, -2.23, 0.18, 7.62
50.715780, 2.276017, 7.66, -1.57, 0.68, 10.33
50.715773, 2.275910, 8.22, -1.29, 0.58, 10.59
50.715773, 2.275910, 8.22, -1.12, 0.27, 9.50
50.715767, 2.275796, 8.64, -2.18, 0.90, 11.25
50.715767, 2.275796, 8.64, -3.85, -0.26, 9.72
50.715762, 2.275669, 9.42, -4.04, 0.42, 9.25
50.715762, 2.275669, 9.42, -1.79, -0.76, 10.22
50.715751, 2.275536, 10.16, -3.17, -0.13, 9.35
50.715751, 2.275536, 10.16, -3.54, 1.06, 8.89
50.715725, 2.275382, 10.68, -3.79, 1.21, 11.37
50.715695, 2.275223, 11.02, -3.35, 0.49, 8.91
50.715695, 2.275223, 11.02, -3.43, 0.87, 10.15
50.715657, 2.275053, 12.53, -2.37, 1.35, 9.46
50.715657, 2.275053, 12.53, -2.83, 0.95, 11.82
50.715612, 2.274872, 13.61, -0.52, 1.13, 7.54
50.715612, 2.274872, 13.61, -1.24, 0.11, 10.51
50.715565, 2.274691, 13.52, -0.57, 0.01, 9.88
50.715565, 2.274691, 13.52, 0.04, 1.71, 5.88
50.715518, 2.274518, 13.21, -0.93, 0.99, 11.72
50.715518, 2.274518, 13.21, -0.67, 1.15, 9.47
50.715474, 2.274339, 12.98, -1.27, 1.05, 8.89
50.715474, 2.274339, 12.98, -1.88, 0.30, 11.15
50.715432, 2.274159, 13.10, -1.34, 0.16, 10.77
50.715432, 2.274159, 13.10, -1.15, 0.95, 10.09
50.715388, 2.273984, 13.23, -0.86, 0.33, 9.62
50.715388, 2.273984, 13.23, -0.38, -0.14, 9.96
50.715346, 2.273811, 12.90, -0.97, -0.79, 10.23
50.715346, 2.273811, 12.90, -1.68, -0.63, 8.36
50.715305, 2.273652, 12.37, -0.78, 0.06, 9.92
50.715305, 2.273652, 12.37, -0.90, 2.19, 12.76
50.715269, 2.273498, 11.98, -1.58, -0.01, 10.86
50.715269, 2.273498, 11.98, -2.98, 0.57, 11.12
50.715233, 2.273344, 11.87, -1.87, -0.20, 9.21
50.715233, 2.273344, 11.87, -1.56, 0.18, 9.32
50.715197, 2.273188, 11.95, -1.42, 0.16, 10.98
50.715197, 2.273188, 11.95, -1.45, 0.51, 10.18
50.715160, 2.273029, 12.05, -0.76, -0.83, 11.35
50.715160, 2.273029, 12.05, -0.46, 0.16, 8.95
50.715122, 2.272871, 11.20, -0.56, 0.31, 9.40
50.715122, 2.272871, 11.20, 0.08, 1.07, 10.75
50.715088, 2.272724, 10.84, -1.51, 1.21, 10.37
50.715088, 2.272724, 10.84, -1.11, 2.13, 11.28
50.715058, 2.272580, 11.04, -2.62, -0.15, 10.56
50.715058, 2.272580, 11.04, -1.43, 0.50, 8.28
50.715029, 2.272438, 11.35, -1.92, 0.57, 10.31
50.715029, 2.272438, 11.35, -1.72, 0.00, 9.84
50.714996, 2.272285, 12.22, -1.60, 0.08, 8.58
50.714996, 2.272285, 12.22, -1.83, 0.01, 10.07
50.714963, 2.272129, 12.67, -1.28, 0.43, 8.15
50.714963, 2.272129, 12.67, -0.92, 0.81, 10.52
50.714926, 2.271965, 13.18, -2.41, 0.11, 12.53
50.714888, 2.271791, 13.37, -1.00, 1.19, 12.40
50.714888, 2.271791, 13.37, -1.10, -0.10, 8.38
50.714841, 2.271610, 13.35, -1.68, -0.15, 10.65
50.714841, 2.271610, 13.35, -1.02, 0.83, 11.31
50.714796, 2.271432, 12.88, -0.76, 0.24, 10.46
50.714796, 2.271432, 12.88, -0.76, 0.52, 11.00
50.714752, 2.271255, 12.34, -0.76, 0.82, 10.66
50.714752, 2.271255, 12.34, -1.10, 1.04, 9.80
50.714710, 2.271090, 12.04, -2.23, -0.32, 10.59
50.714710, 2.271090, 12.04, -0.57, 1.11, 10.09
50.714671, 2.270932, 11.60, -0.77, 1.01, 10.56
50.714671, 2.270932, 11.60, -1.81, 0.30, 7.94
50.714638, 2.270771, 11.36, -1.93, 0.40, 11.52
50.714638, 2.270771, 11.36, -1.71, 0.45, 11.00
50.714612, 2.270604, 11.70, -2.27, -0.31, 9.46
50.714612, 2.270604, 11.70, -1.89, 0.35, 9.36
50.714587, 2.270437, 11.49, -1.74, 0.06, 11.45
50.714587, 2.270437, 11.49, -1.07, 0.17, 10.43
50.714564, 2.270275, 11.22, -0.57, -0.04, 11.93
50.714564, 2.270275, 11.22, -3.41, -1.01, 10.42
50.714544, 2.270116, 11.00, -1.35, 0.22, 8.85
50.714544, 2.270116, 11.00, -2.41, 0.81, 10.08
50.714525, 2.269961, 11.07, -2.74, -0.10, 9.13
50.714525, 2.269961, 11.07, -1.73, -0.22, 6.34
50.714504, 2.269808, 11.20, -2.09, 0.39, 9.24
50.714504, 2.269808, 11.20, -1.66, 0.72, 10.25
50.714483, 2.269653, 11.53, -2.05, 0.13, 11.43
50.714483, 2.269653, 11.53, -1.87, -0.34, 10.72
50.714463, 2.269499, 11.43, -1.13, 0.57, 9.01
50.714463, 2.269499, 11.43, -2.29, -0.52, 12.64
50.714445, 2.269335, 11.53, -3.28, -0.37, 8.56
50.714445, 2.269335, 11.53, -2.32, -0.09, 9.75
50.714426, 2.269168, 11.74, -1.73, -0.73, 8.83
50.714426, 2.269168, 11.74, -0.71, 0.43, 10.76
50.714404, 2.269002, 11.98, -1.98, -0.60, 10.15
50.714404, 2.269002, 11.98, -1.70, 0.42, 9.24
50.714379, 2.268839, 12.08, -1.23, 1.13, 8.72
50.714379, 2.268839, 12.08, -0.97, 0.09, 9.22
50.714358, 2.268671, 12.04, -1.87, -0.03, 10.50
50.714358, 2.268671, 12.04, -1.29, 0.00, 9.60
50.714338, 2.268502, 11.65, -2.84, -0.45, 5.67
50.714338, 2.268502, 11.65, -1.79, 0.84, 13.70
50.714316, 2.268337, 11.61, -1.94, 0.79, 9.25
50.714316, 2.268337, 11.61, -0.73, 0.79, 13.55
50.714294, 2.268178, 11.60, -0.26, 1.51, 8.27
50.714273, 2.268015, 11.70, -0.99, 0.98, 8.58
50.714273, 2.268015, 11.70, -0.71, 0.89, 11.09
50.714256, 2.267854, 11.47, -1.38, 0.92, 8.33
50.714256, 2.267854, 11.47, -2.38, -1.11, 10.34
50.714245, 2.267700, 11.56, -2.26, -0.19, 8.56
50.714245, 2.267700, 11.56, -2.37, 0.20, 9.69
50.714233, 2.267545, 11.65, -1.66, -0.06, 8.79
50.714233, 2.267545, 11.65, -1.46, 0.05, 10.64
50.714224, 2.267386, 11.92, -2.52, -0.32, 6.98
50.714224, 2.267386, 11.92, -1.65, -0.78, 8.37
50.714216, 2.267221, 12.25, 0.03, 0.55, 11.90
50.714216, 2.267221, 12.25, -0.91, 0.28, 10.19
50.714205, 2.267049, 11.97, -1.36, 0.33, 8.28
50.714205, 2.267049, 11.97, -1.46, -0.28, 8.39
50.714192, 2.266878, 11.92, -1.86, 0.71, 10.31
50.714192, 2.266878, 11.92, -2.16, 0.08, 12.89
50.714176, 2.266710, 12.07, -0.95, -0.15, 7.47
50.714176, 2.266710, 12.07, -1.71, 0.27, 10.75
50.714156, 2.266539, 11.96, -1.20, -0.66, 9.43
50.714156, 2.266539, 11.96, -1.51, -0.81, 10.50
50.714135, 2.266374, 11.47, 0.19, -0.28, 11.34
50.714135, 2.266374, 11.47, -1.48, 0.03, 10.64
50.714114, 2.266217, 11.02, -2.20, 0.18, 9.51
50.714114, 2.266217, 11.02, -1.52, -0.03, 10.75
50.714088, 2.266066, 10.52, -0.20, 0.47, 9.10
50.714088, 2.266066, 10.52, -2.07, -0.38, 9.73
50.714062, 2.265925, 10.45, -1.47, 0.04, 10.56
50.714062, 2.265925, 10.45, -1.47, 0.14, 9.54
50.714033, 2.265786, 10.55, -1.63, -0.06, 9.03
50.714033, 2.265786, 10.55, -0.47, -0.68, 11.20
50.714006, 2.265656, 10.10, 0.95, -1.05, 9.67
50.714006, 2.265656, 10.10, 1.26, -1.51, 9.37
50.713980, 2.265543, 8.00, 2.12, 0.02, 10.94
50.713980, 2.265543, 8.00, 1.11, -0.89, 10.59
50.713958, 2.265461, 5.14, -1.57, 0.58, 10.31
50.713958, 2.265461, 5.14, -1.76, -0.56, 9.91
50.713942, 2.265408, 3.30, -2.31, 0.73, 10.53
50.713942, 2.265408, 3.30, -2.55, 0.48, 9.93
50.713925, 2.265367, 3.60, -2.92, -0.57, 9.72
50.713925, 2.265367, 3.60, -3.81, -0.65, 9.51
50.713905, 2.265318, 4.22, -4.42, -1.48, 10.49
50.713905, 2.265318, 4.22, -2.63, -0.51, 9.05
50.713875, 2.265271, 5.52, -3.68, -2.90, 9.84
50.713820, 2.265248, 6.66, -2.08, -1.83, 8.51
50.713820, 2.265248, 6.66, -3.54, -1.48, 9.62
50.713746, 2.265273, 7.90, -4.33, -0.32, 9.68
50.713746, 2.265273, 7.90, -3.08, -0.06, 8.80
50.713672, 2.265324, 8.85, -1.79, 0.44, 9.01
50.713672, 2.265324, 8.85, -2.41, 1.50, 8.86
50.713582, 2.265390, 10.37, -1.62, 0.28, 10.09
50.713582, 2.265390, 10.37, 0.30, 0.37, 8.68
50.713491, 2.265466, 10.45, -2.10, 0.79, 9.66
50.713491, 2.265466, 10.45, -2.12, 0.68, 10.44
50.713401, 2.265541, 10.99, -2.96, 1.73, 8.63
50.713401, 2.265541, 10.99, -0.50, 0.44, 5.61
50.713308, 2.265622, 11.85, -2.28, 0.27, 9.06
50.713308, 2.265622, 11.85, -1.91, 0.09, 8.55
50.713209, 2.265708, 12.72, -1.41, -0.37, 8.71
50.713209, 2.265708, 12.72, -1.85, -0.16, 10.28
50.713107, 2.265796, 12.82, -0.17, -0.36, 10.07
50.713107, 2.265796, 12.82, 0.06, 0.18, 10.72
50.713008, 2.265882, 12.32, -0.62, 0.02, 9.96
50.713008, 2.265882, 12.32, -0.66, 0.79, 8.14
50.712912, 2.265963, 11.89, -1.20, 0.32, 9.48
50.712912, 2.265963, 11.89, -2.62, 2.40, 9.22
50.712818, 2.266043, 11.95, -1.06, 1.14, 11.38
50.712818, 2.266043, 11.95, -0.37, 0.83, 6.72
50.712726, 2.266122, 11.43, -1.58, 0.42, 10.50
50.712726, 2.266122, 11.43, -1.36, 0.69, 10.12
50.712635, 2.266200, 11.20, -1.55, 0.31, 10.35
50.712635, 2.266200, 11.20, -0.59, 0.42, 10.02
50.712545, 2.266270, 10.85, -1.83, 1.01, 10.23
50.712545, 2.266270, 10.85, -2.05, 1.82, 10.01
50.712459, 2.266334, 10.35, -1.05, 1.11, 9.12
50.712459, 2.266334, 10.35, -1.13, 0.40, 11.39
50.712373, 2.266391, 10.39, -0.21, 0.78, 9.67
50.712373, 2.266391, 10.39, -1.12, 1.00, 11.52
50.712285, 2.266437, 10.23, -1.47, 1.82, 11.93
50.712285, 2.266437, 10.23, -2.94, 0.31, 8.40
50.712195, 2.266474, 10.20, -1.43, -0.41, 11.24
50.712195, 2.266474, 10.20, -1.51, 1.07, 10.49
50.712100, 2.266508, 10.44, -1.52, -0.38, 8.83
50.712100, 2.266508, 10.44, -1.70, 0.28, 9.65
50.712005, 2.266543, 10.33, -1.85, -0.18, 8.74
50.712005, 2.266543, 10.33, -0.70, 1.18, 12.94
50.711913, 2.266578, 11.01, -0.77, -1.02, 7.81
50.711822, 2.266627, 10.69, -0.64, 0.27, 9.41
50.711822, 2.266627, 10.69, -1.56, -0.04, 11.96
50.711747, 2.266686, 10.07, -0.62, 0.28, 10.06
50.711747, 2.266686, 10.07, -0.95, 0.73, 7.73
50.711669, 2.266753, 9.43, -0.08, 1.95, 10.41
50.711669, 2.266753, 9.43, 0.58, 3.67, 10.87
50.711594, 2.266818, 9.55, -1.38, 3.12, 6.57
50.711594, 2.266818, 9.55, -1.89, 2.70, 6.96
50.711520, 2.266861, 8.70, -0.37, 4.10, 11.19
50.711520, 2.266861, 8.70, 0.41, 5.23, 11.11
50.711435, 2.266881, 9.83, -0.72, 4.99, 10.45
50.711435, 2.266881, 9.83, -0.51, 4.27, 8.73
50.711353, 2.266836, 9.14, 0.68, 4.64, 11.31
50.711353, 2.266836, 9.14, -1.92, 1.79, 9.80
50.711300, 2.266718, 9.97, -2.23, 3.39, 8.29
50.711300, 2.266718, 9.97, -2.04, 2.02, 9.09
50.711251, 2.266578, 10.43, -0.46, 2.41, 10.15
50.711251, 2.266578, 10.43, -1.47, 1.30, 11.57
50.711224, 2.266427, 11.01, -1.87, 0.91, 7.12
50.711224, 2.266427, 11.01, -1.86, 0.85, 9.43
50.711208, 2.266256, 12.46, -3.51, 1.28, 7.05
50.711208, 2.266256, 12.46, -1.52, 0.37, 8.23
50.711197, 2.266066, 13.46, -1.89, -0.13, 11.31
50.711197, 2.266066, 13.46, 0.30, 1.12, 11.77
50.711182, 2.265875, 13.39, -1.42, -0.26, 10.90
50.711182, 2.265875, 13.39, -2.66, 0.73, 10.21
50.711168, 2.265678, 13.69, -1.95, 0.12, 10.30
50.711168, 2.265678, 13.69, -0.62, 1.04, 9.20
50.711158, 2.265481, 14.04, -0.05, -1.33, 11.54
50.711158, 2.265481, 14.04, -2.22, 1.24, 8.86
50.711141, 2.265274, 14.40, -2.32, 0.81, 9.28
50.711141, 2.265274, 14.40, -2.53, 0.76, 11.49
50.711124, 2.265055, 15.10, -3.71, -0.62, 8.83
50.711124, 2.265055, 15.10, -2.51, 1.43, 9.25
50.711105, 2.264830, 15.96, -3.10, -1.24, 8.69
50.711105, 2.264830, 15.96, -2.55, -1.36, 9.67
50.711083, 2.264592, 17.12, -3.25, -0.92, 8.79
50.711083, 2.264592, 17.12, -1.35, 0.16, 9.73
50.711050, 2.264350, 17.99, -0.75, -0.70, 10.34
50.711050, 2.264350, 17.99, -0.78, -0.53, 10.70
50.711007, 2.264111, 17.60, -2.47, 0.34, 8.94
50.710954, 2.263884, 17.74, -0.67, 2.13, 10.90
50.710954, 2.263884, 17.74, -1.02, 0.42, 9.44
50.710899, 2.263651, 18.20, -2.38, 0.16, 9.48
50.710899, 2.263651, 18.20, -2.98, 1.23, 9.94
50.710843, 2.263410, 18.60, -2.57, 0.20, 8.38
50.710843, 2.263410, 18.60, -2.81, 0.50, 11.53
50.710785, 2.263163, 19.02, -1.21, 0.99, 11.15
50.710785, 2.263163, 19.02, -1.02, 0.23, 11.15
50.710728, 2.262906, 19.30, -1.84, 0.74, 11.85
50.710728, 2.262906, 19.30, -2.53, -0.42, 9.79
50.710672, 2.262646, 19.74, -1.16, 0.37, 10.17
50.710672, 2.262646, 19.74, -2.18, 0.11, 11.27
50.710615, 2.262373, 20.34, -3.14, -2.05, 9.65
50.710615, 2.262373, 20.34, -2.31, -0.03, 9.87
50.710555, 2.262097, 20.69, -2.36, -0.97, 10.74
50.710555, 2.262097, 20.69, -1.92, -0.20, 10.14
50.710486, 2.261820, 20.89, -0.44, 1.15, 9.79
50.710486, 2.261820, 20.89, -1.67, 1.07, 7.04
50.710415, 2.261545, 21.10, -1.78, 0.31, 9.25
50.710415, 2.261545, 21.10, -0.88, -0.91, 8.25
50.710344, 2.261272, 20.91, -0.90, -0.20, 9.35
50.710344, 2.261272, 20.91, -2.18, 0.48, 9.11
50.710273, 2.260998, 20.82, -1.87, -0.12, 11.93
50.710273, 2.260998, 20.82, -2.01, -0.08, 7.95
50.710206, 2.260731, 21.13, -2.06, 0.07, 8.44
50.710206, 2.260731, 21.13, 0.34, 0.86, 9.27
50.710139, 2.260460, 20.91, -0.31, 1.36, 10.30
50.710139, 2.260460, 20.91, -0.18, 0.57, 9.90
50.710075, 2.260197, 20.65, -1.89, 1.76, 10.80
50.710075, 2.260197, 20.65, -0.67, 2.11, 11.34
50.710017, 2.259926, 20.50, -1.46, 1.90, 7.21
50.710017, 2.259926, 20.50, -2.04, 0.20, 9.74
50.709961, 2.259647, 20.54, -3.09, -0.24, 9.19
50.709961, 2.259647, 20.54, -1.42, 0.12, 5.86
50.709915, 2.259357, 20.80, -0.84, -0.35, 12.82
50.709915, 2.259357, 20.80, -0.78, -0.32, 8.05
50.709854, 2.259079, 20.84, -1.63, -0.29, 7.45
50.709854, 2.259079, 20.84, -0.81, -0.20, 11.15
50.709788, 2.258803, 20.65, 0.65, -0.29, 8.82
50.709735, 2.258532, 20.04, -1.75, -1.07, 9.27
50.709735, 2.258532, 20.04, -2.15, -0.68, 11.50
50.709682, 2.258289, 19.89, -1.29, -0.44, 10.48
50.709682, 2.258289, 19.89, -0.74, -1.37, 11.84
50.709625, 2.258039, 19.79, -2.68, -2.37, 10.01
50.709625, 2.258039, 19.79, -1.97, -2.91, 10.15
50.709561, 2.257780, 19.69, -2.87, -2.20, 9.42
50.709561, 2.257780, 19.69, -1.22, -0.50, 10.25
50.709480, 2.257532, 19.67, -0.74, 1.53, 10.23
50.709480, 2.257532, 19.67, -0.84, 1.92, 9.28
50.709390, 2.257283, 19.71, -1.07, -0.88, 6.66
50.709390, 2.257283, 19.71, -3.03, 1.12, 14.69
50.709306, 2.257037, 19.73, 0.04, 1.53, 8.84
50.709306, 2.257037, 19.73, -0.24, 1.21, 7.62
50.709231, 2.256779, 19.92, -0.49, 0.39, 9.38
50.709231, 2.256779, 19.92, -0.43, -0.29, 7.60
50.709167, 2.256512, 20.18, -0.71, -0.56, 10.33
50.709167, 2.256512, 20.18, -1.44, 0.85, 11.21
50.709108, 2.256246, 19.89, -0.91, 0.11, 9.39
50.709108, 2.256246, 19.89, -2.15, -0.01, 10.50
50.709044, 2.255970, 19.65, -0.12, 0.64, 10.47
50.709044, 2.255970, 19.65, -1.12, 0.82, 10.26
50.708977, 2.255699, 19.86, -1.33, 0.83, 12.41
50.708977, 2.255699, 19.86, -2.15, -0.17, 11.23
50.708915, 2.255434, 20.19, -0.99, 0.03, 9.65
50.708915, 2.255434, 20.19, 0.12, 1.12, 8.89
50.708854, 2.255167, 20.28, -1.16, 0.28, 10.70
50.708854, 2.255167, 20.28, -1.71, 1.37, 12.18
50.708792, 2.254902, 19.89, -1.17, 0.93, 9.78
50.708792, 2.254902, 19.89, -1.17, 0.73, 7.53
50.708739, 2.254631, 19.87, -0.60, 1.34, 11.19
50.708739, 2.254631, 19.87, -1.13, 1.09, 8.21
50.708690, 2.254363, 19.83, -1.30, 1.91, 7.99
50.708690, 2.254363, 19.83, -2.18, 0.45, 9.96
50.708652, 2.254082, 19.91, -1.44, 1.02, 12.05
50.708652, 2.254082, 19.91, -1.44, 0.82, 11.09
50.708623, 2.253795, 20.16, -1.58, -0.97, 11.57
50.708623, 2.253795, 20.16, -1.77, -2.05, 9.48
50.708596, 2.253501, 20.25, -0.92, -1.65, 6.94
50.708596, 2.253501, 20.25, -2.67, -3.09, 9.24
50.708562, 2.253222, 20.18, -1.35, -2.04, 8.13
50.708562, 2.253222, 20.18, -1.35, 0.38, 9.16
50.708517, 2.252961, 20.40, -1.70, -1.22, 8.44
50.708517, 2.252961, 20.40, -0.95, -1.09, 9.84
50.708471, 2.252687, 20.06, -1.18, 0.06, 9.70
50.708471, 2.252687, 20.06, -1.25, -0.65, 10.58
50.708415, 2.252416, 19.96, -1.99, 0.01, 9.89
50.708347, 2.252156, 20.14, -1.95, -0.78, 10.65
50.708347, 2.252156, 20.14, -2.05, -0.23, 11.13
50.708277, 2.251888, 20.58, -3.42, -0.85, 9.56
50.708277, 2.251888, 20.58, -1.97, -0.38, 6.44
50.708206, 2.251605, 20.91, -1.67, -1.26, 10.70
50.708206, 2.251605, 20.91, -1.96, -1.34, 8.85
50.708135, 2.251332, 21.02, -1.22, -1.04, 9.00
50.708135, 2.251332, 21.02, -0.64, 0.36, 12.95
50.708061, 2.251069, 20.22, -0.21, -0.52, 7.49
50.708061, 2.251069, 20.22, -2.35, -1.18, 8.48
50.707982, 2.250820, 19.40, -0.80, -0.80, 11.98
50.707982, 2.250820, 19.40, -1.36, -1.02, 7.98
50.707895, 2.250588, 18.89, -1.50, -1.09, 9.73
50.707895, 2.250588, 18.89, -1.31, -1.67, 7.42
50.707791, 2.250368, 18.56, -1.60, -0.43, 9.99
50.707791, 2.250368, 18.56, -2.38, -1.42, 5.93
50.707681, 2.250164, 18.73, -2.19, 0.83, 9.59
50.707681, 2.250164, 18.73, -1.98, 0.78, 10.73
50.707568, 2.249969, 18.83, -1.07, 1.64, 10.58
50.707568, 2.249969, 18.83, -1.13, 1.58, 9.38
50.707449, 2.249771, 18.73, -0.43, 2.35, 9.44
50.707449, 2.249771, 18.73, 0.87, 2.74, 11.08
50.707345, 2.249558, 18.31, -2.17, 1.80, 8.71
50.707345, 2.249558, 18.31, -1.20, 1.90, 10.48
50.707269, 2.249329, 18.40, -1.04, 1.65, 10.05
50.707269, 2.249329, 18.40, -1.27, 0.69, 10.89
50.707214, 2.249083, 18.48, -2.11, -0.40, 9.19
50.707214, 2.249083, 18.48, -2.45, 0.18, 10.89
50.707157, 2.248842, 18.66, -1.31, -0.11, 10.27
50.707157, 2.248842, 18.66, -0.49, -0.53, 10.29
50.707091, 2.248610, 18.24, -0.86, -0.18, 7.13
50.707091, 2.248610, 18.24, -1.00, 0.07, 13.49
50.707025, 2.248382, 17.68, -0.80, 0.83, 10.61
50.707025, 2.248382, 17.68, -0.47, 1.58, 12.66
50.706957, 2.248179, 17.04, 0.37, 1.02, 10.69
50.706957, 2.248179, 17.04, -0.74, 2.34, 8.69
50.706908, 2.247960, 16.13, 0.54, 1.19, 11.06
50.706908, 2.247960, 16.13, -0.87, -0.38, 9.17
50.706880, 2.247714, 15.85, -0.43, -0.33, 10.20
50.706862, 2.247470, 15.52, -1.43, -0.14, 10.01
50.706862, 2.247470, 15.52, -0.68, -0.14, 9.28
50.706843, 2.247244, 15.53, -0.63, 0.37, 10.08
50.706843, 2.247244, 15.53, -1.30, 0.23, 11.03
50.706820, 2.247021, 15.86, -1.14, 0.33, 9.23
50.706820, 2.247021, 15.86, -0.47, 0.19, 8.94
50.706797, 2.246802, 15.90, 0.32, 1.06, 10.60
50.706797, 2.246802, 15.90, -1.01, -0.68, 10.32
50.706774, 2.246581, 15.74, -1.09, -0.16, 11.86
50.706774, 2.246581, 15.74, -2.32, -0.98, 7.93
50.706756, 2.246360, 15.74, -2.21, 0.65, 9.42
50.706756, 2.246360, 15.74, -2.17, 1.26, 10.94
50.706734, 2.246139, 16.18, -2.24, 0.48, 8.62
50.706734, 2.246139, 16.18, -1.42, 0.19, 11.20
50.706720, 2.245903, 16.84, -1.32, 0.94, 10.79
50.706720, 2.245903, 16.84, -0.45, 1.57, 9.78
50.706707, 2.245655, 16.27, -0.60, 0.86, 10.64
50.706707, 2.245655, 16.27, -0.40, 0.43, 10.22
50.706698, 2.245436, 15.56, -2.11, 0.11, 9.10
50.706698, 2.245436, 15.56, -0.80, 0.52, 7.83
50.706699, 2.245227, 15.23, -1.17, 1.02, 12.79
50.706699, 2.245227, 15.23, -1.09, 0.29, 9.63
50.706702, 2.245020, 14.74, -1.08, -0.47, 12.29
50.706702, 2.245020, 14.74, -1.96, -0.52, 11.32
50.706707, 2.244814, 14.24, -1.39, -0.22, 9.96
50.706707, 2.244814, 14.24, -1.07, -0.58, 10.89
50.706685, 2.244602, 13.62, -1.10, -0.46, 8.73
50.706685, 2.244602, 13.62, -2.22, -0.89, 8.35
50.706677, 2.244409, 13.06, -0.44, 0.33, 12.76
50.706677, 2.244409, 13.06, -1.30, -0.16, 9.11
50.706673, 2.244228, 12.44, -1.89, -1.30, 8.57
50.706673, 2.244228, 12.44, -0.89, 0.18, 9.27
50.706660, 2.244062, 11.92, -2.34, -0.46, 8.46
50.706660, 2.244062, 11.92, -2.25, 0.09, 10.19
50.706646, 2.243894, 11.62, -1.40, -0.81, 9.45
50.706646, 2.243894, 11.62, -1.82, -1.03, 6.41
50.706621, 2.243727, 11.19, -2.15, 0.89, 9.37
50.706621, 2.243727, 11.19, -2.48, 1.29, 9.49
50.706605, 2.243569, 11.52, -1.10, 0.69, 8.85
50.706605, 2.243569, 11.52, -1.26, 1.06, 11.50
50.706582, 2.243409, 11.95, -1.47, 0.07, 9.10
50.706582, 2.243409, 11.95, -1.01, -0.20, 8.72
50.706560, 2.243243, 12.03, -2.65, -0.74, 9.90
50.706540, 2.243080, 11.67, -1.28, 0.34, 9.51
50.706540, 2.243080, 11.67, -1.59, -0.69, 9.80
50.706521, 2.242920, 11.90, -1.63, 1.06, 8.71
50.706521, 2.242920, 11.90, -1.63, -0.03, 8.06
50.706505, 2.242753, 12.21, 0.11, -0.20, 7.90
50.706505, 2.242753, 12.21, -0.41, 1.02, 10.36
50.706486, 2.242600, 11.89, -1.19, -0.30, 7.12
50.706486, 2.242600, 11.89, 0.17, 1.16, 11.24
50.706459, 2.242441, 11.58, -0.80, 0.61, 8.89
50.706459, 2.242441, 11.58, -0.98, -0.07, 8.92
50.706441, 2.242286, 11.74, -2.62, -0.17, 9.47
50.706441, 2.242286, 11.74, -1.83, 0.56, 8.93
50.706413, 2.242102, 11.61, -0.74, 0.51, 9.51
50.706413, 2.242102, 11.61, -0.69, 0.33, 9.21
50.706400, 2.241928, 11.26, -0.02, 0.64, 8.26
50.706400, 2.241928, 11.26, -0.58, 0.54, 10.20
50.706397, 2.241768, 11.21, -0.53, 1.16, 9.74
50.706397, 2.241768, 11.21, -0.90, 0.49, 9.54
50.706397, 2.241614, 11.24, -1.25, 0.89, 10.89
50.706397, 2.241614, 11.24, -0.94, 0.89, 11.88
50.706401, 2.241464, 11.00, -2.09, 0.14, 8.55
50.706401, 2.241464, 11.00, -1.20, -0.47, 10.43
50.706396, 2.241298, 11.23, -1.62, 0.80, 9.70
50.706396, 2.241298, 11.23, -0.45, -0.13, 8.36
50.706388, 2.241135, 11.19, -0.32, -0.33, 10.06
50.706388, 2.241135, 11.19, -1.24, -0.11, 10.29
50.706382, 2.240983, 10.70, -0.63, 0.10, 10.73
50.706382, 2.240983, 10.70, -0.88, 0.48, 11.22
50.706379, 2.240837, 10.24, -0.84, 0.46, 11.05
50.706379, 2.240837, 10.24, 1.15, -0.20, 8.65
50.706377, 2.240695, 9.52, 0.87, 0.59, 9.90
50.706377, 2.240695, 9.52, 0.89, -0.37, 7.28
50.706389, 2.240580, 8.15, -0.11, 0.30, 9.36
50.706389, 2.240580, 8.15, -0.83, -0.12, 10.30
50.706400, 2.240482, 7.06, -0.89, -0.40, 9.44
50.706400, 2.240482, 7.06, -1.65, 0.68, 8.47
50.706412, 2.240396, 6.73, -0.66, -0.89, 8.22
50.706412, 2.240396, 6.73, -0.57, -1.40, 10.16
50.706419, 2.240313, 5.96, -1.98, -2.28, 10.88
50.706419, 2.240313, 5.96, -2.12, -3.46, 8.12
50.706409, 2.240228, 5.70, -2.27, -2.56, 10.65
50.706409, 2.240228, 5.70, -3.19, -3.23, 9.51
50.706379, 2.240168, 5.90, -3.31, -3.12, 9.67
50.706379, 2.240168, 5.90, -3.05, -1.64, 9.02
50.706317, 2.240153, 6.55, -3.50, -1.70, 9.60
50.706255, 2.240218, 6.93, -3.00, -1.30, 9.96
50.706255, 2.240218, 6.93, -1.43, -1.53, 9.00
50.706204, 2.240300, 6.99, -1.63, -1.76, 9.56
50.706204, 2.240300, 6.99, -1.18, -1.02, 9.79
50.706160, 2.240378, 6.50, -1.88, -0.41, 9.98
50.706160, 2.240378, 6.50, -1.83, -0.35, 9.33
50.706143, 2.240450, 6.35, -1.02, 1.31, 10.57
50.706143, 2.240450, 6.35, -0.78, 0.74, 9.45
50.706108, 2.240512, 6.11, -0.80, -0.17, 9.43
50.706108, 2.240512, 6.11, -0.40, 1.95, 10.43
50.706077, 2.240574, 5.50, -0.41, 1.79, 8.72
50.706077, 2.240574, 5.50, 0.02, 2.58, 9.42
50.706040, 2.240632, 5.41, -0.15, 3.88, 11.09
50.706040, 2.240632, 5.41, -0.75, 2.79, 5.08
50.705992, 2.240643, 5.10, -0.89, 4.47, 12.74
50.705992, 2.240643, 5.10, -3.31, 3.52, 11.61
50.705934, 2.240599, 5.27, -2.92, 1.24, 8.92
50.705934, 2.240599, 5.27, -2.99, 0.32, 7.90
50.705894, 2.240523, 5.75, -3.28, 1.93, 6.44
50.705894, 2.240523, 5.75, -3.35, 1.72, 10.69
50.705874, 2.240436, 6.41, -3.58, 0.64, 8.30
50.705874, 2.240436, 6.41, -3.49, 0.41, 10.81
50.705857, 2.240347, 7.15, -0.79, -0.27, 10.12
50.705857, 2.240347, 7.15, -3.66, -0.15, 7.81
50.705835, 2.240253, 6.87, -2.82, 0.50, 9.88
50.705835, 2.240253, 6.87, -1.66, 0.56, 9.03
50.705808, 2.240160, 6.87, -2.38, 1.93, 13.57
50.705808, 2.240160, 6.87, -1.53, 1.81, 11.48
50.705778, 2.240077, 6.44, -1.95, -0.91, 5.36
50.705778, 2.240077, 6.44, -3.24, -2.13, 9.42
50.705746, 2.240007, 6.15, -2.56, -0.75, 9.70
50.705746, 2.240007, 6.15, -3.59, -0.75, 8.61
50.705708, 2.239932, 7.14, -1.94, -1.26, 10.16
50.705708, 2.239932, 7.14, -1.81, -0.98, 13.46
50.705656, 2.239863, 7.73, -1.11, -1.29, 8.46
50.705656, 2.239863, 7.73, -1.97, -1.28, 9.13
50.705597, 2.239825, 7.51, -0.39, 0.48, 9.40
50.705597, 2.239825, 7.51, -1.51, 0.79, 8.33
50.705528, 2.239802, 6.95, -2.65, -0.52, 9.38
50.705528, 2.239802, 6.95, -0.98, 0.15, 11.04
50.705465, 2.239796, 6.99, -1.72, -0.22, 7.38
50.705465, 2.239796, 6.99, -1.00, 0.79, 10.16
50.705401, 2.239786, 7.10, -1.04, 1.33, 9.61
50.705343, 2.239770, 6.76, -0.07, -0.62, 9.00
50.705343, 2.239770, 6.76, -1.95, -0.29, 9.74
50.705285, 2.239746, 6.77, -2.37, 1.26, 10.35
50.705285, 2.239746, 6.77, -2.24, -0.14, 9.50
50.705229, 2.239730, 6.25, -1.16, -0.14, 8.12
50.705229, 2.239730, 6.25, -1.73, 0.56, 9.93
50.705175, 2.239718, 5.73, -0.93, -0.49, 10.48
50.705175, 2.239718, 5.73, -0.96, 0.14, 10.63
50.705126, 2.239708, 5.27, -0.94, -0.89, 9.97
50.705126, 2.239708, 5.27, -0.68, -0.27, 10.68
50.705090, 2.239725, 5.51, -2.87, -1.00, 7.18
50.705090, 2.239725, 5.51, -2.03, -2.04, 9.63
50.705028, 2.239758, 5.97, -2.14, 0.20, 10.63
50.705028, 2.239758, 5.97, -1.46, -1.12, 11.33
50.704985, 2.239804, 5.59, -1.50, -0.93, 9.73
50.704985, 2.239804, 5.59, -0.89, -0.27, 10.52
50.704954, 2.239867, 5.63, -0.18, -2.44, 8.05
50.704954, 2.239867, 5.63, -0.55, -0.25, 9.44
50.704942, 2.239952, 5.92, -1.25, 0.55, 10.02
50.704942, 2.239952, 5.92, -0.77, -0.42, 9.89
50.704945, 2.240039, 6.23, -1.19, -0.55, 8.45
50.704945, 2.240039, 6.23, -0.40, -1.82, 10.69
50.704958, 2.240136, 6.43, -1.16, 0.42, 10.80
50.704958, 2.240136, 6.43, -0.94, -0.69, 10.96
50.704979, 2.240221, 5.88, -0.04, 0.17, 10.00
50.704979, 2.240221, 5.88, -0.68, -0.41, 9.82
50.705010, 2.240291, 5.39, -0.69, 1.18, 8.84
50.705010, 2.240291, 5.39, -0.80, -0.14, 8.90
50.705046, 2.240348, 5.05, -1.16, 0.48, 9.93
50.705046, 2.240348, 5.05, -1.35, 0.69, 9.49
50.705078, 2.240409, 5.05, 0.94, 0.92, 10.60
50.705078, 2.240409, 5.05, 1.86, 0.35, 10.05
50.705103, 2.240461, 3.55, -0.77, 1.20, 10.68
50.705103, 2.240461, 3.55, -0.29, 1.37, 10.73
50.705118, 2.240499, 2.63, -0.54, 0.43, 10.72
50.705118, 2.240499, 2.63, -0.68, 0.86, 10.26
50.705118, 2.240499, 0.00, -1.00, 0.49, 9.17
50.705118, 2.240499, 0.00, -0.93, 1.00, 11.09
50.705118, 2.240499, 0.00, -0.78, 1.31, 9.44
50.705118, 2.240499, 0.00, -0.77, 0.27, 8.49
50.705118, 2.240499, 0.00, -0.15, 0.37, 10.29
50.705113, 2.240614, 0.00, -0.38, 0.26, 11.55
50.705113, 2.240614, 0.00, -0.43, 0.40, 9.33
50.705113, 2.240614, 0.00, -1.32, 0.66, 9.08
50.705113, 2.240614, 0.00, -1.17, 0.68, 10.94
50.705113, 2.240614, 0.00, -1.20, 0.56, 10.96
50.705113, 2.240614, 0.00, -1.24, 0.88, 9.03
50.705113, 2.240614, 0.00, -1.27, 0.50, 10.42
50.705113, 2.240614, 0.00, -1.28, 0.85, 8.48
50.705113, 2.240614, 0.00, -1.37, 0.54, 9.94
50.705113, 2.240614, 0.00, -1.52, 0.78, 9.84
50.705113, 2.240614, 0.00, -1.25, 0.73, 9.87
50.705113, 2.240614, 0.00, -1.36, 0.68, 9.89
50.705113, 2.240614, 0.00, -1.22, 0.72, 9.84
50.705113, 2.240614, 0.00, -1.31, 0.70, 9.84
50.705113, 2.240614, 0.00, -1.23, 0.84, 10.04
50.705113, 2.240614, 0.00, -1.30, 0.68, 9.89
50.705113, 2.240614, 0.00, -1.24, 0.84, 9.87
50.705113, 2.240614, 0.00, -1.82, 0.72, 10.43
50.705113, 2.240614, 0.00, 12.80, 2.13, 17.06
50.705113, 2.240614, 0.00, 7.36, 8.21, 7.77
50.705113, 2.240614, 0.00, 1.81, 3.93, 1.80
50.705113, 2.240614, 0.00, -1.55, 5.01, 10.31
50.705113, 2.240614, 0.00, -1.53, 4.21, 8.47
50.705113, 2.240614, 0.00, -3.44, 1.10, 13.57
50.705113, 2.240614, 0.00, -1.45, 1.05, 9.25
50.705113, 2.240614, 0.00, -0.63, -0.33, 7.63
50.705113, 2.240614, 0.00, -2.00, 1.16, 9.48
50.705113, 2.240614, 0.00, -1.96, 1.25, 9.65
50.705113, 2.240614, 0.00, -1.93, 1.15, 9.67
50.705113, 2.240614, 0.00, -2.03, 1.17, 10.06
50.705113, 2.240614, 0.00, -1.58, 0.86, 11.95
50.705113, 2.240614, 0.00, -2.15, 1.39, 9.92
50.705073, 2.240681, 0.03, -2.14, 0.95, 9.46
50.705073, 2.240681, 0.03, -2.08, 0.87, 9.87
50.705071, 2.240680, 0.06, -2.03, 1.17, 9.63
50.705071, 2.240680, 0.06, -1.86, 1.32, 9.75
50.705064, 2.240652, 0.00, -2.07, 1.04, 8.87
50.705064, 2.240652, 0.00, -2.41, 0.76, 10.48
50.705070, 2.240653, 0.00, -1.80, 1.06, 9.84
50.705070, 2.240653, 0.00, -1.67, 1.38, 9.74
50.705076, 2.240665, 0.00, -1.95, 1.05, 9.89
50.705076, 2.240665, 0.00, -1.59, 0.66, 9.02
50.705077, 2.240667, 0.00, -1.57, 0.86, 9.44
50.705077, 2.240667, 0.00, -1.64, 1.69, 7.19
50.705077, 2.240663, 0.00, -1.73, 1.41, 10.61
50.705077, 2.240663, 0.00, -1.81, 1.73, 9.53
50.705080, 2.240653, 0.00, -2.10, 1.55, 9.54
50.705080, 2.240653, 0.00, -2.14, 1.65, 10.01
50.705082, 2.240639, 0.00, -2.04, 0.99, 9.20
50.705082, 2.240639, 0.00, -2.14, 1.40, 10.00
50.705084, 2.240630, 0.00, -1.60, 1.41, 9.84
50.705084, 2.240630, 0.00, -1.98, 0.65, 9.40
50.705087, 2.240622, 0.00, -1.70, 1.16, 10.11
50.705087, 2.240622, 0.00, -1.97, 1.13, 9.63
50.705090, 2.240615, 0.00, -2.13, 0.87, 8.51
50.705093, 2.240610, 0.00, -1.72, 1.29, 9.91
50.705093, 2.240610, 0.00, -1.46, 0.90, 10.24
50.705097, 2.240601, 0.00, -1.54, 0.87, 9.70
50.705097, 2.240601, 0.00, -1.81, 1.07, 10.03
50.705098, 2.240593, 0.00, -1.44, 1.70, 10.40
50.705098, 2.240593, 0.00, -1.86, 1.18, 9.72
50.705100, 2.240584, 0.00, -1.87, 1.36, 9.48
50.705100, 2.240584, 0.00, -2.09, 1.25, 9.30
50.705103, 2.240577, 0.00, -1.86, 1.32, 9.64
50.705103, 2.240577, 0.00, -1.95, 0.95, 10.08
50.705103, 2.240577, 0.00, -2.33, 1.26, 10.06
50.705103, 2.240577, 0.00, -2.10, 1.57, 9.26
50.705104, 2.240582, 0.00, -2.71, 1.81, 9.49
50.705104, 2.240582, 0.00, -2.90, 1.17, 9.02
50.705110, 2.240597, 0.00, -3.34, 1.06, 9.26
50.705110, 2.240597, 0.00, -2.77, 0.89, 9.50
50.705120, 2.240622, 0.00, -2.70, 0.52, 8.79
50.705120, 2.240622, 0.00, -2.54, 1.36, 9.64
50.705137, 2.240660, 0.00, -2.46, 0.42, 9.58
50.705137, 2.240660, 0.00, -2.27, 1.38, 10.15
50.705165, 2.240703, 0.00, -1.84, 1.67, 10.30
50.705165, 2.240703, 0.00, -1.61, 1.10, 9.23
50.705196, 2.240755, 0.00, -1.42, 1.59, 9.99
50.705196, 2.240755, 0.00, -1.14, 1.17, 9.49
50.705226, 2.240807, 0.00, -1.80, 1.40, 8.56
50.705226, 2.240807, 0.00, -2.15, 1.38, 7.81
50.705255, 2.240862, 4.96, -1.75, 0.45, 9.25
50.705255, 2.240862, 4.96, -2.53, -0.48, 9.88
50.705284, 2.240926, 5.32, -0.98, 0.04, 10.34
50.705284, 2.240926, 5.32, -0.52, 1.43, 9.13
50.705316, 2.240987, 5.26, -1.84, -0.32, 8.84
50.705316, 2.240987, 5.26, -0.94, -0.38, 11.67
50.705345, 2.241051, 5.04, -2.57, 1.68, 11.05
50.705345, 2.241051, 5.04, -0.61, 0.56, 8.48
50.705373, 2.241107, 4.79, -2.30, 1.47, 11.00
50.705373, 2.241107, 4.79, -1.17, 1.04, 9.28
50.705401, 2.241163, 4.67, -1.79, 1.98, 8.49
50.705401, 2.241163, 4.67, -1.11, 0.86, 9.07
50.705426, 2.241217, 4.47, -1.58, 1.51, 11.82
50.705426, 2.241217, 4.47, -1.98, 0.96, 9.90
50.705448, 2.241266, 4.24, -2.62, 0.41, 11.86
50.705448, 2.241266, 4.24, -2.66, -1.09, 11.31
50.705472, 2.241314, 3.96, -1.65, 0.21, 9.53
50.705500, 2.241348, 3.75, -2.74, -1.24, 9.87
50.705500, 2.241348, 3.75, -2.49, -1.35, 9.81
50.705530, 2.241354, 3.02, -1.58, -0.06, 9.72
50.705530, 2.241354, 3.02, -3.10, -1.09, 9.49
50.705555, 2.241337, 3.08, -3.22, -0.91, 10.62
50.705555, 2.241337, 3.08, -2.45, -2.47, 9.79
50.705575, 2.241290, 3.67, -2.82, -2.38, 9.73
50.705575, 2.241290, 3.67, -2.64, -1.90, 11.05
50.705570, 2.241223, 4.36, -2.62, -0.80, 8.82
50.705570, 2.241223, 4.36, -2.77, 0.28, 9.41
50.705545, 2.241166, 4.35, -3.45, 0.40, 9.50
50.705545, 2.241166, 4.35, -1.58, 1.16, 8.13
50.705517, 2.241110, 4.97, -2.95, 0.06, 7.60
50.705517, 2.241110, 4.97, -3.13, 0.20, 9.11
50.705486, 2.241047, 5.70, -3.40, 0.98, 10.40
50.705486, 2.241047, 5.70, -3.33, 1.53, 10.64
50.705453, 2.240976, 6.28, -2.85, 0.04, 8.96
50.705453, 2.240976, 6.28, -2.36, 0.77, 7.86
50.705415, 2.240895, 6.85, -2.11, 0.45, 9.77
50.705415, 2.240895, 6.85, -1.24, 0.29, 11.26
50.705378, 2.240814, 6.64, -1.54, 0.55, 11.39
50.705378, 2.240814, 6.64, -2.19, 1.27, 8.88
50.705343, 2.240735, 6.75, -1.26, 1.02, 11.11
50.705343, 2.240735, 6.75, -2.56, -0.72, 10.19
50.705309, 2.240657, 6.36, -2.41, -0.50, 10.22
50.705309, 2.240657, 6.36, -3.04, 0.38, 10.43
50.705274, 2.240581, 6.36, -3.22, -0.47, 9.25
50.705274, 2.240581, 6.36, -1.79, 1.16, 10.40
50.705241, 2.240504, 6.55, -0.99, -0.28, 9.32
50.705241, 2.240504, 6.55, -2.02, -0.52, 8.83
50.705207, 2.240430, 6.05, -2.68, -0.01, 9.71
50.705207, 2.240430, 6.05, -1.40, 1.36, 11.17
50.705176, 2.240358, 5.95, -1.56, 1.74, 10.16
50.705176, 2.240358, 5.95, -1.26, 1.38, 10.27
50.705143, 2.240283, 6.00, -1.99, -0.86, 6.14
50.705143, 2.240283, 6.00, -3.58, -0.50, 11.06
50.705113, 2.240213, 5.77, -2.73, -0.94, 11.50
50.705113, 2.240213, 5.77, -2.97, -1.06, 9.29
50.705084, 2.240149, 5.08, -2.59, -1.97, 9.04
50.705054, 2.240096, 4.78, -3.10, -0.55, 11.06
50.705054, 2.240096, 4.78, -2.49, 1.56, 10.33
50.705016, 2.240066, 4.80, -1.70, 3.04, 9.98
50.705016, 2.240066, 4.80, -2.40, 3.52, 9.79
50.704977, 2.240047, 4.15, -3.79, 0.38, 9.81
50.704977, 2.240047, 4.15, -3.22, 1.78, 9.53
50.704951, 2.240007, 4.14, -2.82, 3.50, 9.73
50.704951, 2.240007, 4.14, -2.57, 0.88, 6.68
50.704936, 2.239933, 4.85, -2.67, 1.09, 8.26
50.704936, 2.239933, 4.85, -2.51, 1.26, 7.36
50.704951, 2.239853, 5.00, -1.53, 0.17, 6.77
50.704951, 2.239853, 5.00, -2.12, 2.33, 9.17
50.704988, 2.239786, 5.26, -0.99, 1.28, 9.86
50.704988, 2.239786, 5.26, -1.46, 0.22, 9.00
50.705041, 2.239742, 5.60, -2.85, -0.35, 9.49
50.705041, 2.239742, 5.60, -3.62, 0.11, 10.88
50.705105, 2.239722, 6.61, -2.88, -0.07, 9.73
50.705105, 2.239722, 6.61, -2.72, -0.62, 8.18
50.705176, 2.239719, 7.49, -4.02, -0.64, 10.88
50.705176, 2.239719, 7.49, -2.26, -0.12, 8.83
50.705253, 2.239748, 8.24, -1.52, 1.44, 10.88
50.705253, 2.239748, 8.24, -1.54, 0.68, 11.37
50.705333, 2.239781, 8.64, -1.79, -0.29, 9.69
50.705333, 2.239781, 8.64, -1.33, 0.53, 10.05
50.705412, 2.239812, 8.48, -1.75, -1.72, 9.98
50.705412, 2.239812, 8.48, -0.78, -1.10, 9.31
50.705486, 2.239839, 8.37, -2.20, 1.18, 11.52
50.705486, 2.239839, 8.37, -1.84, -0.33, 9.87
50.705561, 2.239856, 8.08, -0.36, 0.69, 9.17
50.705561, 2.239856, 8.08, -0.65, 0.97, 10.46
50.705630, 2.239876, 7.73, -0.62, 1.76, 9.79
50.705630, 2.239876, 7.73, -2.26, 1.81, 11.37
50.705693, 2.239905, 6.83, -1.44, 1.63, 9.93
50.705693, 2.239905, 6.83, -1.09, 3.52, 10.11
50.705749, 2.239949, 6.61, -0.69, 0.49, 8.02
50.705749, 2.239949, 6.61, -2.09, 1.22, 10.42
50.705792, 2.240025, 6.84, -0.34, 1.65, 8.66
50.705792, 2.240025, 6.84, -0.41, 0.60, 11.40
50.705828, 2.240125, 7.14, -1.66, -1.76, 9.47
50.705828, 2.240125, 7.14, -1.29, -0.74, 7.96
50.705854, 2.240234, 7.31, -0.53, 0.56, 11.37
50.705854, 2.240234, 7.31, -0.20, -1.72, 10.14
50.705879, 2.240338, 7.02, 0.14, -0.32, 9.79
50.705903, 2.240430, 6.25, -0.30, -1.03, 9.73
50.705903, 2.240430, 6.25, 0.77, 0.95, 11.80
50.705925, 2.240511, 5.52, -0.48, -1.43, 9.14
50.705925, 2.240511, 5.52, 0.23, -0.14, 8.78
50.705946, 2.240582, 5.27, 1.06, -0.95, 9.93
50.705946, 2.240582, 5.27, -0.11, -0.84, 10.32
50.705966, 2.240651, 4.72, -1.42, -0.81, 13.28
50.705966, 2.240651, 4.72, -0.63, -3.26, 9.32
50.705988, 2.240704, 4.40, -0.56, -2.39, 12.18
50.705988, 2.240704, 4.40, -0.90, -3.72, 11.75
50.706020, 2.240729, 4.44, -1.24, -3.20, 9.47
50.706020, 2.240729, 4.44, -1.44, -3.07, 10.89
50.706070, 2.240693, 5.82, -2.01, -1.83, 10.88
50.706070, 2.240693, 5.82, -1.60, -2.30, 10.79
50.706122, 2.240632, 6.09, -1.16, -0.75, 10.81
50.706122, 2.240632, 6.09, -1.35, -1.51, 9.12
