Location-lat,Location-long,Speed,Accelerometer-X,Accelerometer-Y,Accelerometer-Z
49.990472,3.187475,33.88,-1.05,-0.18,10.71
49.990472,3.187475,33.88,-0.83,-0.14,9.73
49.990756,3.187308,34.08,-0.87,0.07,9.09
49.990756,3.187308,34.08,-0.48,-0.39,10.33
49.991042,3.187144,34.07,-0.39,-0.65,8.65
49.991042,3.187144,34.07,-1.71,-0.28,9.96
49.991327,3.18697,34.26,-1.21,0.84,11.37
49.991327,3.18697,34.26,-0.48,-0.16,9.11
49.991616,3.186798,34.46,-1.61,-1.04,9.64
49.991616,3.186798,34.46,-1.92,-0.81,9.63
49.991907,3.186625,34.64,-1.7,-0.83,9.02
49.991907,3.186625,34.64,-1.84,-0.85,9.78
49.992195,3.186443,34.13,-1.31,-0.44,11.04
49.992195,3.186443,34.13,-1.93,-1.73,10.41
49.992479,3.186252,34.07,-1.12,-0.92,10.45
49.992479,3.186252,34.07,-0.7,-0.35,7.84
49.992763,3.186063,34.07,-2.29,-2.24,10.27
49.992763,3.186063,34.07,-1.14,-0.4,8.52
49.993043,3.185873,34.13,-1.73,-0.26,9.84
49.993043,3.185873,34.13,-2.43,-1.1,8.41
49.993322,3.185676,34.18,-0.72,0.27,11.57
49.993322,3.185676,34.18,-0.61,-1.45,8.87
49.9936,3.185479,34.16,-1.71,-0.75,9.39
49.9936,3.185479,34.16,-0.28,0.73,9.58
49.993878,3.18528,33.69,-0.87,0.02,9.81
49.993878,3.18528,33.69,-1.78,-1.09,9.58
49.994153,3.185083,33.5,-0.51,-0.92,10.92
49.994153,3.185083,33.5,-2.7,-0.85,10.09
49.994423,3.184878,33.52,-2.06,-1.09,9.0
49.994696,3.184674,33.58,-2.57,-1.25,10.52
49.994696,3.184674,33.58,-1.03,-0.04,9.5
49.994971,3.18447,33.55,-3.06,-0.4,10.24
49.994971,3.18447,33.55,-1.44,-0.47,10.52
49.995242,3.184264,33.6,-2.62,-0.89,10.62
49.995242,3.184264,33.6,-0.79,0.29,9.65
49.995515,3.184063,33.52,-1.61,-0.43,9.69
49.995515,3.184063,33.52,-0.88,-0.03,10.39
49.995792,3.183865,33.63,-1.02,-0.68,10.02
49.995792,3.183865,33.63,-1.08,-0.09,9.64
49.996064,3.183663,33.62,-1.76,-0.73,11.91
49.996064,3.183663,33.62,-0.24,0.7,10.75
49.996335,3.183461,33.44,-1.45,-0.39,10.42
49.996335,3.183461,33.44,-0.55,0.18,9.24
49.996604,3.183253,33.38,-1.64,-0.34,10.92
49.996604,3.183253,33.38,0.0,0.71,11.2
49.996868,3.183037,33.27,-1.9,-1.11,9.54
49.996868,3.183037,33.27,-0.53,-0.84,9.79
49.997136,3.182822,33.13,-0.97,-0.69,9.92
49.997136,3.182822,33.13,-1.62,-0.77,9.58
49.997399,3.182607,33.02,-1.2,0.06,10.05
49.997399,3.182607,33.02,-2.49,-0.9,10.34
49.997659,3.182388,33.07,-1.73,-1.06,10.93
49.997659,3.182388,33.07,-1.6,-0.66,9.66
49.997919,3.182173,33.07,-2.12,-0.5,9.68
49.997919,3.182173,33.07,-2.01,-0.28,9.84
49.998178,3.181954,32.95,-0.99,-0.1,10.28
49.998178,3.181954,32.95,-2.42,-0.56,10.49
49.998436,3.181735,32.94,-1.49,-0.87,8.58
49.998436,3.181735,32.94,-1.36,-0.46,9.86
49.998695,3.181516,32.95,-1.52,-0.83,10.48
49.998695,3.181516,32.95,-1.21,0.19,10.11
49.998951,3.181294,32.84,-1.47,-0.61,9.2
49.998951,3.181294,32.84,-2.09,-0.92,10.78
49.999209,3.181075,32.83,-0.92,1.11,10.15
49.999209,3.181075,32.83,-1.09,0.7,10.03
49.999466,3.180853,32.87,-1.95,-0.2,8.73
49.999466,3.180853,32.87,-0.31,0.76,9.94
49.999726,3.180635,32.97,-1.5,-0.23,9.52
49.999726,3.180635,32.97,-2.69,-1.3,11.15
49.999988,3.180416,33.05,-1.68,-0.59,8.7
50.000249,3.180198,33.18,-1.73,-0.36,10.03
50.000249,3.180198,33.18,-2.01,0.04,9.2
50.000509,3.179977,33.22,-2.28,-0.16,10.3
50.000509,3.179977,33.22,-1.91,-0.08,10.15
50.00077,3.179754,33.31,-1.36,0.14,8.78
50.00077,3.179754,33.31,-2.73,-0.56,10.55
50.001033,3.17953,33.37,-0.69,0.91,10.73
50.001033,3.17953,33.37,-1.42,0.38,9.26
50.001298,3.179315,33.37,-0.39,-0.05,8.73
50.001298,3.179315,33.37,-0.9,0.55,10.41
50.001564,3.179099,33.34,-1.47,0.35,10.26
50.001564,3.179099,33.34,-2.11,0.16,9.53
50.001829,3.178883,33.36,-0.79,0.53,10.0
50.001829,3.178883,33.36,-1.06,1.1,10.45
50.002095,3.178669,33.44,-2.2,0.65,9.84
50.002095,3.178669,33.44,-1.19,-0.11,9.85
50.002361,3.178457,33.48,-2.19,-1.24,9.01
50.002361,3.178457,33.48,-2.15,-0.52,8.91
50.002627,3.178244,33.57,-0.42,-0.59,10.04
50.002627,3.178244,33.57,-1.88,0.23,10.43
50.002894,3.178033,33.7,-2.05,0.63,9.29
50.002894,3.178033,33.7,-3.18,-1.7,10.05
50.003166,3.177825,33.76,-1.3,0.56,10.2
50.003166,3.177825,33.76,-2.16,-1.34,10.59
50.003439,3.177619,33.79,-0.94,0.24,9.61
50.003439,3.177619,33.79,-1.23,0.11,10.44
50.003715,3.177414,33.94,-2.36,-0.51,10.68
50.003715,3.177414,33.94,0.64,1.72,9.39
50.003995,3.17721,34.16,-0.58,0.68,10.86
50.003995,3.17721,34.16,-1.04,0.51,9.49
50.004273,3.177009,33.98,-0.74,0.38,10.43
50.004273,3.177009,33.98,-1.46,0.77,10.21
50.004551,3.176816,33.52,-0.24,0.86,10.56
50.004551,3.176816,33.52,-2.35,-1.25,10.36
50.004826,3.176631,33.45,-1.02,0.89,9.81
50.004826,3.176631,33.45,-2.59,-0.44,10.39
50.005102,3.176448,33.54,-0.92,0.84,11.19
50.005102,3.176448,33.54,-2.39,-0.2,9.89
50.005381,3.176268,33.54,-2.22,0.07,9.7
50.005381,3.176268,33.54,-1.46,0.91,11.1
50.005659,3.176085,33.72,-2.37,-0.57,8.84
50.005659,3.176085,33.72,0.07,1.33,11.3
50.005943,3.175908,33.9,-3.1,-1.39,10.12
50.00623,3.175736,33.81,-0.41,-0.36,11.06
50.00623,3.175736,33.81,-2.06,-0.34,11.26
50.006509,3.175558,33.54,0.26,0.64,7.88
50.006509,3.175558,33.54,-1.16,0.19,11.17
50.006785,3.175383,33.25,-0.72,-0.51,9.96
50.006785,3.175383,33.25,-1.61,-0.69,9.81
50.007062,3.175216,33.07,-0.84,-0.42,9.59
50.007062,3.175216,33.07,-1.3,0.43,10.69
50.007342,3.175055,33.03,-2.0,-0.37,10.85
50.007342,3.175055,33.03,-0.9,1.02,10.15
50.007625,3.174897,33.28,0.09,1.12,10.11
50.007625,3.174897,33.28,-0.57,0.82,9.97
50.007913,3.174746,33.5,-2.87,-0.35,10.79
50.007913,3.174746,33.5,-0.99,0.32,11.06
50.0082,3.174593,33.72,-2.13,-1.31,10.35
50.0082,3.174593,33.72,-0.09,1.5,11.98
50.008484,3.174436,33.98,-1.03,0.06,9.56
50.008484,3.174436,33.98,-1.33,-0.21,9.5
50.008773,3.174288,34.06,0.93,1.07,9.95
50.008773,3.174288,34.06,-0.6,0.1,9.46
50.009063,3.174142,33.79,-0.57,0.89,11.07
50.009063,3.174142,33.79,-1.71,-0.02,11.3
50.009354,3.174,33.63,-1.96,-0.98,9.63
50.009354,3.174,33.63,-2.37,-0.4,9.4
50.009643,3.173857,33.56,-1.89,-1.4,9.25
50.009643,3.173857,33.56,-1.56,-1.27,8.78
50.009934,3.173711,33.68,-2.49,-0.58,9.95
50.009934,3.173711,33.68,-0.74,-0.33,6.0
50.01022,3.173564,33.81,-2.52,-0.1,8.99
50.01022,3.173564,33.81,-2.6,-0.41,11.09
50.010511,3.173421,33.83,-1.96,0.64,11.06
50.010511,3.173421,33.83,-2.37,0.95,11.34
50.010803,3.17328,33.88,-1.13,0.52,9.73
50.010803,3.17328,33.88,-1.07,0.52,9.67
50.011096,3.173144,33.88,-1.44,0.07,10.03
50.011096,3.173144,33.88,-0.24,-0.78,8.2
50.01139,3.173022,33.79,-2.05,-0.2,10.83
50.01139,3.173022,33.79,-0.9,1.18,11.36
50.011685,3.172903,33.75,-1.24,-0.04,9.71
50.011979,3.172786,33.44,-1.02,0.61,10.99
50.011979,3.172786,33.44,-1.68,0.09,10.47
50.012269,3.17267,33.22,-1.49,0.49,10.35
50.012269,3.17267,33.22,-0.33,1.06,9.49
50.012554,3.172553,32.97,-1.77,-0.57,9.3
50.012554,3.172553,32.97,-0.97,1.39,10.4
50.012836,3.172443,32.7,-0.34,1.52,10.81
50.012836,3.172443,32.7,-2.6,-0.24,10.94
50.013119,3.172349,32.46,-2.02,-0.01,10.03
50.013119,3.172349,32.46,-1.48,-0.13,11.24
50.0134,3.172261,32.26,-1.39,0.4,9.88
50.0134,3.172261,32.26,-1.7,-0.37,10.96
50.013685,3.172177,32.08,-1.23,0.31,10.17
50.013685,3.172177,32.08,-1.27,0.22,9.87
50.013966,3.172093,31.97,-1.4,-1.07,9.96
50.013966,3.172093,31.97,-2.56,0.51,9.85
50.014245,3.172006,32.02,-1.97,0.47,10.46
50.014245,3.172006,32.02,-2.25,-0.16,8.98
50.014528,3.171923,31.98,-1.7,-0.22,9.75
50.014528,3.171923,31.98,-2.39,-0.65,10.81
50.014808,3.171839,32.0,-2.38,-0.74,8.62
50.014808,3.171839,32.0,-1.06,-0.22,9.48
50.015091,3.171761,32.09,-2.25,-1.14,9.2
50.015091,3.171761,32.09,-1.3,0.57,10.23
50.015375,3.171687,32.2,-1.35,0.02,10.14
50.015375,3.171687,32.2,-1.48,0.36,9.21
50.015659,3.171612,32.34,-1.73,-0.49,8.59
50.015659,3.171612,32.34,-1.21,-0.01,8.69
50.015945,3.171544,32.41,-2.13,0.57,9.15
50.015945,3.171544,32.41,-1.49,0.43,10.5
50.016234,3.171477,32.57,-1.41,0.57,9.93
50.016234,3.171477,32.57,-0.22,0.45,8.82
50.016525,3.17141,32.71,-2.29,0.41,8.69
50.016525,3.17141,32.71,-2.01,0.2,11.22
50.016815,3.171342,32.9,-3.24,0.77,8.08
50.016815,3.171342,32.9,-1.63,0.0,8.91
50.017106,3.171276,33.13,-1.42,0.43,9.59
50.017106,3.171276,33.13,-2.15,0.35,10.07
50.017401,3.171216,33.35,-1.01,0.95,10.36
50.017401,3.171216,33.35,-2.25,-0.23,9.17
50.017698,3.171164,33.57,-0.13,1.01,8.76
50.017698,3.171164,33.57,-2.83,-0.15,7.52
50.017997,3.171112,33.78,-1.49,1.15,11.35
50.017997,3.171112,33.78,-1.05,1.1,7.83
50.018298,3.171061,34.0,-2.55,0.62,11.85
50.018606,3.171013,34.27,-2.23,-0.21,10.13
50.018606,3.171013,34.27,-0.05,-0.15,9.42
50.018915,3.17097,34.04,-1.46,-0.58,9.98
50.018915,3.17097,34.04,0.28,0.02,8.83
50.01922,3.170932,33.27,-1.76,-0.21,10.89
50.01922,3.170932,33.27,-1.22,0.28,9.39
50.019521,3.170893,33.26,-2.26,0.73,10.23
50.019521,3.170893,33.26,-0.57,0.16,6.44
50.019821,3.170857,33.23,-2.06,-0.26,9.05
50.019821,3.170857,33.23,-0.57,0.73,9.52
50.020118,3.170824,33.35,-0.63,0.67,10.39
50.020118,3.170824,33.35,-1.92,-0.91,8.64
50.02042,3.170796,33.51,-1.56,-0.07,7.82
50.02042,3.170796,33.51,-0.88,-0.12,10.3
50.020723,3.170773,33.6,-1.51,0.63,9.19
50.020723,3.170773,33.6,-0.25,0.66,8.43
50.021034,3.170753,33.8,-1.89,0.69,9.76
50.021034,3.170753,33.8,-1.44,0.1,10.71
50.021342,3.170735,34.0,-1.06,0.58,9.3
50.021342,3.170735,34.0,-1.96,-0.79,10.09
50.021647,3.170721,33.62,-1.17,1.07,10.32
50.021647,3.170721,33.62,-1.42,-1.22,9.92
50.02195,3.170712,33.59,-1.52,-0.38,9.24
50.02195,3.170712,33.59,-1.69,-0.32,10.37
50.022252,3.170707,33.63,-0.61,-0.49,9.07
50.022252,3.170707,33.63,-1.68,0.41,11.4
50.022553,3.170701,33.68,-1.02,0.31,9.5
50.022553,3.170701,33.68,-1.16,-0.4,9.78
50.022854,3.170696,33.67,-0.91,-0.05,9.21
50.022854,3.170696,33.67,0.06,0.53,9.74
50.023157,3.170693,33.71,-1.76,0.66,10.06
50.023157,3.170693,33.71,-0.01,1.09,11.68
50.023461,3.170698,33.86,-1.53,0.22,10.49
50.023461,3.170698,33.86,-1.89,-0.85,9.99
50.023769,3.170705,33.93,-0.85,-0.49,9.5
50.023769,3.170705,33.93,-1.11,0.27,9.77
50.024073,3.170717,33.92,-2.64,-0.97,9.93
50.024073,3.170717,33.92,-0.75,0.79,9.65
50.024377,3.170728,33.93,-2.38,-0.32,11.07
50.024683,3.170746,34.02,-2.8,-0.43,8.89
50.024683,3.170746,34.02,-1.66,0.01,9.2
50.02499,3.170768,33.89,-1.92,0.83,10.66
50.02499,3.170768,33.89,-1.12,0.51,9.43
50.025294,3.17079,33.83,-2.18,-0.68,10.52
50.025294,3.17079,33.83,-2.33,-0.22,8.27
50.025593,3.17082,33.79,-1.16,-0.1,10.4
50.025593,3.17082,33.79,-2.04,0.22,9.64
50.025894,3.170854,33.7,-0.15,1.91,11.62
50.025894,3.170854,33.7,-1.55,1.11,9.64
50.026199,3.170893,33.75,-1.06,0.64,9.57
50.026199,3.170893,33.75,-1.68,0.6,10.25
50.026502,3.170928,33.59,-3.01,-0.6,9.42
50.026502,3.170928,33.59,-2.16,0.12,9.48
50.026805,3.170966,33.62,-1.67,-0.96,10.2
50.026805,3.170966,33.62,-1.17,-0.24,10.09
50.027107,3.171008,33.37,-1.34,0.38,9.53
50.027107,3.171008,33.37,-1.19,0.32,8.94
50.027407,3.171054,33.34,-1.75,-0.37,9.64
50.027407,3.171054,33.34,-0.69,0.48,9.57
50.027703,3.1711,33.21,-0.29,0.69,9.88
50.027703,3.1711,33.21,-1.93,0.2,11.08
50.027995,3.171145,33.1,-0.82,0.46,10.33
50.027995,3.171145,33.1,-1.66,-0.29,10.51
50.02829,3.171195,32.94,-1.82,0.62,9.2
50.02829,3.171195,32.94,-0.66,1.22,10.61
50.028583,3.171248,32.83,-1.9,-0.37,10.24
50.028583,3.171248,32.83,-2.2,-0.19,9.42
50.028877,3.171306,32.7,-1.82,-0.36,10.17
50.028877,3.171306,32.7,-1.58,-0.02,9.73
50.029168,3.171366,32.61,-1.92,0.47,9.83
50.029168,3.171366,32.61,-2.04,0.4,9.94
50.029458,3.171432,32.51,-1.7,0.1,9.58
50.029458,3.171432,32.51,-1.08,0.86,8.11
50.029746,3.171501,32.52,-2.26,-0.63,9.81
50.029746,3.171501,32.52,-2.31,-0.35,9.38
50.030033,3.171569,32.53,-1.42,0.0,10.26
50.030033,3.171569,32.53,-0.77,0.34,8.65
50.030322,3.171645,32.53,-0.8,0.8,9.88
50.030322,3.171645,32.53,-1.94,-0.19,9.6
50.03061,3.171721,32.53,-2.48,-0.67,9.4
50.03061,3.171721,32.53,-1.06,-0.17,8.03
50.030897,3.171801,32.64,-1.89,-0.38,9.06
50.031187,3.171887,32.8,-2.28,-0.16,10.34
50.031187,3.171887,32.8,-2.6,0.26,9.93
50.031477,3.171975,32.87,-1.7,-0.83,10.02
50.031477,3.171975,32.87,-2.3,-0.3,9.48
50.031769,3.172063,32.96,-1.57,-0.09,9.49
50.031769,3.172063,32.96,-1.29,0.09,10.06
50.032058,3.172148,33.15,-2.41,-0.16,9.95
50.032058,3.172148,33.15,-0.91,0.9,9.95
50.032347,3.172234,33.36,-2.68,-0.1,10.55
50.032347,3.172234,33.36,-1.48,-0.3,8.3
50.032636,3.172336,33.5,-2.61,0.09,9.77
50.032636,3.172336,33.5,-0.82,0.01,9.18
50.03293,3.172439,33.71,-2.93,0.12,9.17
50.03293,3.172439,33.71,-1.5,0.32,9.01
50.033227,3.172534,33.91,-2.36,0.09,9.11
50.033227,3.172534,33.91,-2.62,-0.11,11.58
50.033524,3.172636,33.98,-1.3,1.34,9.81
50.033524,3.172636,33.98,-3.17,-0.61,10.65
50.033822,3.172739,34.1,-2.28,-0.65,9.28
50.033822,3.172739,34.1,-1.98,-0.16,9.87
50.034121,3.172844,34.18,-2.78,-0.16,8.75
50.034121,3.172844,34.18,-2.7,-0.2,10.82
50.034421,3.17295,34.34,-3.14,-0.92,10.28
50.034421,3.17295,34.34,-2.2,-0.79,8.3
50.034722,3.173056,34.44,-0.49,-0.68,10.16
50.034722,3.173056,34.44,-1.64,-0.73,7.46
50.035021,3.173159,34.35,-1.94,0.23,11.18
50.035021,3.173159,34.35,-0.63,0.96,9.77
50.035321,3.173262,34.19,-0.58,-0.4,8.71
50.035321,3.173262,34.19,-1.54,0.39,11.04
50.03562,3.173364,34.11,-2.26,-0.96,8.66
50.03562,3.173364,34.11,-0.52,0.24,10.12
50.035918,3.173468,34.02,-2.53,0.47,11.57
50.035918,3.173468,34.02,-2.21,-0.62,9.97
50.036215,3.173575,33.94,-0.71,-0.81,9.67
50.036215,3.173575,33.94,-1.81,-0.47,10.07
50.036512,3.173678,33.83,-1.38,-0.85,9.99
50.036512,3.173678,33.83,-1.4,0.61,8.59
50.036808,3.173776,33.8,-1.72,0.06,10.16
50.037106,3.173876,33.74,-0.51,1.07,9.48
50.037106,3.173876,33.74,-2.34,-1.15,10.59
50.037403,3.173976,33.72,-1.5,0.19,11.37
50.037403,3.173976,33.72,-2.6,-0.38,8.63
50.037701,3.174076,33.73,-0.71,1.14,10.86
50.037701,3.174076,33.73,-2.76,0.03,10.13
50.037999,3.174178,33.57,-0.63,-0.13,9.37
50.037999,3.174178,33.57,-2.12,-0.63,9.49
50.038295,3.174279,33.51,-1.91,-0.13,10.12
50.038295,3.174279,33.51,-1.93,-0.56,10.2
50.038589,3.17438,33.59,-1.48,0.87,10.39
50.038589,3.17438,33.59,-1.28,0.04,9.45
50.038884,3.174486,33.62,-1.47,0.75,10.81
50.038884,3.174486,33.62,-1.66,0.29,10.26
50.03918,3.174592,33.71,-2.34,-0.37,11.1
50.03918,3.174592,33.71,-1.41,0.68,10.39
50.039474,3.174691,33.67,-1.63,0.05,9.77
50.039474,3.174691,33.67,-0.79,1.23,10.48
50.039768,3.174788,33.77,-1.01,0.85,10.66
50.039768,3.174788,33.77,-1.52,-0.65,9.87
50.040064,3.174887,33.79,-0.53,-1.95,8.72
50.040064,3.174887,33.79,-2.59,-0.68,9.34
50.04036,3.174985,33.97,-2.28,0.19,9.12
50.04036,3.174985,33.97,-1.69,0.1,9.52
50.040659,3.175083,33.88,-1.92,-1.08,8.65
50.040659,3.175083,33.88,-1.75,-0.62,9.37
50.040955,3.175186,33.84,-1.61,0.23,10.01
50.040955,3.175186,33.84,-1.33,0.51,6.79
50.041249,3.175289,33.73,0.08,1.05,10.94
50.041249,3.175289,33.73,-1.08,0.22,7.87
50.041543,3.17539,33.68,-0.89,-1.03,10.57
50.041543,3.17539,33.68,-0.19,0.96,9.96
50.041836,3.175492,33.07,-1.51,-0.18,9.22
50.041836,3.175492,33.07,-1.14,0.49,11.07
50.042124,3.175588,32.5,-0.67,0.35,11.59
50.042124,3.175588,32.5,0.32,0.58,9.96
50.042408,3.175683,32.14,-0.92,0.04,11.57
50.042408,3.175683,32.14,-1.5,0.63,11.52
50.04269,3.17578,31.78,-1.24,0.37,10.66
50.04269,3.17578,31.78,-1.94,0.3,10.02
50.042971,3.175873,31.91,-0.26,0.35,9.58
50.04325,3.175972,31.93,-0.84,0.17,9.0
50.04325,3.175972,31.93,-1.7,-0.75,10.38
50.043533,3.176072,31.91,1.06,-0.11,10.68
50.043533,3.176072,31.91,0.18,-0.27,9.74
50.043814,3.176166,31.32,-0.06,0.22,10.37
50.043814,3.176166,31.32,-1.43,-0.05,8.87
50.044089,3.176249,30.81,-1.19,-0.43,10.39
50.044089,3.176249,30.81,-1.36,-0.21,10.45
50.044361,3.176335,30.98,-1.29,0.6,11.05
50.044361,3.176335,30.98,-1.95,-0.25,9.3
50.044633,3.176427,31.46,-1.7,-1.42,9.45
50.044633,3.176427,31.46,-1.69,-0.66,10.04
50.044912,3.176517,31.78,-1.89,-1.05,9.52
50.044912,3.176517,31.78,-1.43,-0.05,9.71
50.045194,3.176603,32.02,-1.69,-1.01,8.91
50.045194,3.176603,32.02,-0.79,-0.42,9.97
50.045479,3.176683,31.96,-1.29,-0.09,8.96
50.045479,3.176683,31.96,-1.7,-0.56,8.87
50.045766,3.176764,32.2,-1.35,-0.55,8.98
50.045766,3.176764,32.2,-0.8,0.08,11.3
50.046051,3.176843,32.49,-2.41,-1.24,10.26
50.046051,3.176843,32.49,-1.68,-0.42,9.8
50.046338,3.176921,32.7,-1.66,-0.35,8.3
50.046338,3.176921,32.7,-1.08,-0.8,9.41
50.046631,3.177003,32.99,-1.67,-0.32,9.88
50.046631,3.177003,32.99,-0.72,0.34,9.9
50.04693,3.177081,32.99,-0.55,-0.56,9.73
50.04693,3.177081,32.99,-1.4,-0.29,9.59
50.047223,3.177156,32.61,-1.95,-0.73,9.5
50.047223,3.177156,32.61,-1.2,0.32,11.29
50.047515,3.17723,32.68,-1.39,-0.38,8.85
50.047515,3.17723,32.68,-2.08,-0.55,9.84
50.047808,3.177303,32.98,-0.51,-0.41,9.04
50.047808,3.177303,32.98,-1.86,-0.07,9.94
50.048107,3.177375,33.24,-1.22,-0.2,9.02
50.048107,3.177375,33.24,-0.35,0.81,10.03
50.048407,3.177444,33.41,-0.9,-0.72,10.83
50.048407,3.177444,33.41,-2.8,-0.73,10.38
50.048708,3.177511,33.55,-1.32,-0.74,8.93
50.048708,3.177511,33.55,-1.79,-0.67,10.06
50.04901,3.177576,33.71,-0.33,0.61,10.07
50.04901,3.177576,33.71,-1.87,-1.26,9.3
50.049315,3.17764,33.94,-1.7,-0.26,9.39
50.04962,3.177704,34.02,-0.77,0.4,11.9
50.04962,3.177704,34.02,-2.09,-0.55,8.61
50.049926,3.17776,34.19,-1.79,-0.68,11.28
50.049926,3.17776,34.19,-0.63,-0.62,9.41
50.050231,3.177814,34.39,-1.24,0.47,10.83
50.050231,3.177814,34.39,-2.09,-0.23,11.74
50.050538,3.177869,34.52,-1.78,-0.07,9.15
50.050538,3.177869,34.52,-0.94,0.07,10.28
50.050848,3.177921,34.62,-0.26,-0.34,9.68
50.050848,3.177921,34.62,-1.0,1.01,11.17
50.051161,3.177973,34.66,-0.42,-0.18,10.7
50.051161,3.177973,34.66,-0.82,-0.81,8.73
50.051471,3.178023,34.2,-0.98,-1.11,8.49
50.051471,3.178023,34.2,-1.13,-0.42,10.54
50.051779,3.178071,33.99,-1.98,-0.44,10.93
50.051779,3.178071,33.99,-1.29,-0.5,9.77
50.052082,3.178114,33.77,-2.02,-0.48,10.81
50.052082,3.178114,33.77,-1.82,-0.12,9.04
50.052379,3.178154,33.55,-1.12,-1.16,8.91
50.052379,3.178154,33.55,-1.29,0.56,10.72
50.052674,3.178195,33.37,-0.84,1.1,11.43
50.052674,3.178195,33.37,-1.87,-0.47,10.9
50.052967,3.178237,33.3,-2.5,-0.66,9.31
50.052967,3.178237,33.3,-0.74,-0.5,10.45
50.053264,3.178277,33.16,-2.48,-1.13,9.85
50.053264,3.178277,33.16,-0.34,0.78,10.57
50.053558,3.17831,33.02,-1.46,-0.82,9.62
50.053558,3.17831,33.02,-2.95,-0.88,10.17
50.053853,3.178345,32.9,-0.78,0.45,8.85
50.053853,3.178345,32.9,-1.03,1.89,7.5
50.054149,3.17838,32.77,-2.07,-1.12,10.66
50.054149,3.17838,32.77,-1.65,-0.06,8.49
50.054443,3.178407,32.66,-1.0,0.0,8.95
50.054443,3.178407,32.66,-2.51,-0.53,10.38
50.054734,3.178429,32.49,-2.56,-0.84,9.62
50.054734,3.178429,32.49,-2.78,-1.3,9.83
50.055021,3.178451,32.37,-2.08,0.28,9.76
50.055021,3.178451,32.37,-1.62,-0.01,10.24
50.055311,3.178477,32.38,-1.02,-0.68,9.49
50.055311,3.178477,32.38,-2.25,-0.45,9.03
50.055601,3.178499,32.3,-2.72,-0.99,8.77
50.055601,3.178499,32.3,-2.49,-0.4,9.67
50.05589,3.178514,32.31,-1.99,-0.91,9.81
50.056179,3.17853,32.32,-1.46,0.57,9.51
50.056179,3.17853,32.32,-1.67,0.36,9.87
50.056468,3.178548,32.39,-1.65,0.58,10.23
50.056468,3.178548,32.39,-2.37,0.19,10.01
50.056758,3.178556,32.33,-1.78,-0.32,9.52
50.056758,3.178556,32.33,-2.32,-1.48,10.1
50.057051,3.178565,32.34,-1.73,0.53,9.68
50.057051,3.178565,32.34,-1.78,-0.51,9.43
50.057343,3.178568,32.48,-1.41,-1.04,8.94
50.057343,3.178568,32.48,-2.18,-0.34,10.07
50.057636,3.178563,32.61,-1.99,-0.04,9.7
50.057636,3.178563,32.61,-1.86,1.3,8.79
50.05793,3.178558,32.54,-1.13,1.38,9.49
50.05793,3.178558,32.54,-1.9,-0.45,9.25
50.058225,3.178559,32.53,-2.12,-1.06,8.7
50.058225,3.178559,32.53,-2.0,-1.18,8.47
50.058518,3.178557,32.76,-0.94,0.43,10.3
50.058518,3.178557,32.76,-2.46,-0.28,10.95
50.058813,3.178555,32.84,-1.72,0.24,9.96
50.058813,3.178555,32.84,-1.7,0.29,9.9
50.05911,3.178556,32.91,-1.43,0.45,9.9
50.05911,3.178556,32.91,-1.09,-0.69,9.2
50.059407,3.178557,32.87,-2.04,-0.14,9.3
50.059407,3.178557,32.87,-1.65,-0.5,10.18
50.059707,3.178561,33.12,-1.76,-0.41,10.67
50.059707,3.178561,33.12,-1.28,0.0,9.46
50.060003,3.178556,33.12,-2.06,0.12,9.74
50.060003,3.178556,33.12,-1.08,-0.03,10.25
50.060297,3.178549,33.04,-2.59,-0.18,10.45
50.060297,3.178549,33.04,-2.22,-1.04,9.96
50.060593,3.178541,33.29,-1.75,0.26,8.97
50.060593,3.178541,33.29,-1.09,0.5,10.05
50.060894,3.178536,33.48,-1.08,0.15,11.19
50.060894,3.178536,33.48,-2.06,-0.12,9.65
50.061196,3.178529,33.55,-2.41,-0.69,9.92
50.061196,3.178529,33.55,-2.02,-0.47,10.07
50.061498,3.178519,33.56,-1.93,-1.39,9.53
50.061498,3.178519,33.56,-0.74,0.22,10.09
50.061798,3.178503,33.73,-1.61,-1.48,8.93
50.061798,3.178503,33.73,-0.71,-1.62,9.83
50.062097,3.178482,33.58,-2.22,-1.67,8.04
50.062392,3.178459,33.06,-1.13,-0.13,10.52
50.062392,3.178459,33.06,-0.83,0.45,9.64
50.062688,3.178436,32.95,-1.64,-0.74,10.17
50.062688,3.178436,32.95,-0.85,0.06,10.66
50.062982,3.178408,32.85,-1.64,0.59,10.32
50.062982,3.178408,32.85,-2.02,-0.12,9.46
50.063273,3.178376,32.79,-1.33,-0.58,9.5
50.063273,3.178376,32.79,-0.9,0.15,10.8
50.063565,3.178344,32.69,-1.34,-1.06,11.33
50.063565,3.178344,32.69,-1.31,-0.5,10.6
50.063857,3.178312,32.52,-1.46,0.06,9.39
50.063857,3.178312,32.52,-1.07,0.08,10.48
50.064147,3.17828,32.53,-1.7,-0.61,10.76
50.064147,3.17828,32.53,-1.61,-0.48,9.28
50.064438,3.178243,32.56,-2.12,-0.77,8.75
50.064438,3.178243,32.56,-1.72,-0.7,8.87
50.064731,3.178206,32.59,-1.29,-0.23,9.48
50.064731,3.178206,32.59,-1.13,0.82,9.95
50.065023,3.178167,32.61,-1.47,-0.69,10.35
50.065023,3.178167,32.61,-1.77,-0.15,10.57
50.065313,3.178124,32.62,-1.35,-0.86,9.34
50.065313,3.178124,32.62,-1.83,-0.38,10.02
50.065606,3.178082,32.72,-2.01,-1.06,8.68
50.065606,3.178082,32.72,-2.18,0.11,10.68
50.065897,3.178035,32.68,-0.97,0.44,10.43
50.065897,3.178035,32.68,-2.27,-0.34,9.81
50.066188,3.177989,32.73,-2.49,-0.92,10.94
50.066188,3.177989,32.73,-1.64,-0.16,8.92
50.066481,3.177943,32.79,-0.88,-0.23,10.42
50.066481,3.177943,32.79,-2.1,-0.18,9.41
50.066774,3.177894,32.84,-1.48,0.5,9.85
50.066774,3.177894,32.84,-1.17,0.57,11.89
50.067072,3.177844,32.9,-2.0,-0.33,10.33
50.067072,3.177844,32.9,-1.68,-0.22,9.51
50.067366,3.177792,33.0,-1.42,0.1,8.53
50.067366,3.177792,33.0,-2.04,-0.6,11.13
50.067663,3.177736,33.1,-1.42,0.76,9.98
50.067663,3.177736,33.1,-1.94,-0.74,9.43
50.06796,3.177678,33.2,-2.33,-0.39,9.34
50.06796,3.177678,33.2,-1.22,0.07,8.96
50.068257,3.177617,33.24,-2.4,-0.7,8.41
50.068257,3.177617,33.24,-1.45,-0.45,7.58
50.068554,3.177554,33.45,-2.49,-1.37,9.11
50.068851,3.177489,33.46,-0.83,-0.15,9.01
50.068851,3.177489,33.46,-1.86,-0.33,10.37
50.069149,3.177422,33.33,-1.6,-0.75,10.31
50.069149,3.177422,33.33,-2.38,-1.05,9.03
50.069446,3.177352,33.67,-1.73,-0.33,10.26
50.069446,3.177352,33.67,-1.85,-0.94,8.57
50.069744,3.177281,33.92,-2.42,-0.88,10.99
50.069744,3.177281,33.92,-1.79,-0.1,9.35
50.070044,3.177207,33.8,-1.55,-0.55,11.14
50.070044,3.177207,33.8,-1.7,-0.71,9.37
50.070346,3.177135,33.88,-1.14,-0.73,10.32
50.070346,3.177135,33.88,-0.93,0.4,10.24
50.070648,3.177062,33.81,-1.54,-0.22,9.23
50.070648,3.177062,33.81,-2.12,-0.82,9.9
50.070953,3.17699,33.7,-1.73,0.07,9.1
50.070953,3.17699,33.7,-2.1,-0.61,9.77
50.071253,3.176909,33.63,-1.56,-0.11,10.34
50.071253,3.176909,33.63,-1.24,-0.31,9.21
50.071551,3.176825,33.71,-1.3,0.96,10.39
50.071551,3.176825,33.71,-0.97,0.13,10.03
50.071851,3.176742,33.71,-1.94,0.36,10.07
50.071851,3.176742,33.71,0.01,-0.08,8.37
50.07215,3.176658,33.71,-2.08,-1.3,9.38
50.07215,3.176658,33.71,-0.56,1.01,9.92
50.072448,3.176571,33.64,-0.95,-0.9,10.29
50.072448,3.176571,33.64,-0.52,0.44,11.11
50.072744,3.176482,33.15,-1.29,-0.69,7.84
50.072744,3.176482,33.15,-1.49,-1.05,8.37
50.073036,3.176395,32.86,-0.65,0.35,10.7
50.073036,3.176395,32.86,-1.48,-0.45,10.87
50.073326,3.176305,32.73,-1.43,0.21,11.31
50.073326,3.176305,32.73,-1.66,-0.34,9.04
50.073614,3.176215,32.84,-0.99,-0.15,10.5
50.073614,3.176215,32.84,-1.99,-0.35,9.75
50.073899,3.176125,32.96,-2.29,-0.41,8.51
50.073899,3.176125,32.96,-1.34,-0.27,9.73
50.074186,3.176033,33.11,-1.83,0.58,10.42
50.074186,3.176033,33.11,-1.25,0.18,9.78
50.074478,3.175943,33.28,-2.2,0.12,9.83
50.074771,3.175852,33.39,-1.45,0.89,10.13
50.074771,3.175852,33.39,-2.35,-1.08,9.69
50.075068,3.175766,33.63,-1.84,0.29,10.07
50.075068,3.175766,33.63,-1.63,-0.53,9.86
50.075366,3.175679,33.65,-1.51,-0.32,9.42
50.075366,3.175679,33.65,-1.32,-0.43,8.79
50.075663,3.175589,33.77,-1.4,0.83,11.51
50.075663,3.175589,33.77,-1.16,-0.31,9.75
50.075964,3.1755,33.82,-0.82,0.65,9.92
50.075964,3.1755,33.82,-1.82,-0.89,10.76
50.076262,3.175412,33.26,-0.92,0.8,5.75
50.076262,3.175412,33.26,-0.78,-0.45,8.97
50.076555,3.175321,33.28,-1.01,1.06,10.4
50.076555,3.175321,33.28,-1.64,0.41,11.66
50.07685,3.175233,33.26,-1.7,0.17,8.89
50.07685,3.175233,33.26,-1.73,-1.08,9.18
50.077146,3.175147,33.2,-1.03,-0.64,7.29
50.077146,3.175147,33.2,-2.04,-0.05,10.75
50.077442,3.175062,33.21,-1.27,0.48,9.15
50.077442,3.175062,33.21,-0.81,0.87,11.65
50.077739,3.174976,33.22,-1.04,-1.02,9.68
50.077739,3.174976,33.22,-1.43,-0.22,9.2
50.078033,3.174887,33.19,-1.09,-0.05,9.48
50.078033,3.174887,33.19,-1.77,-0.03,10.12
50.078327,3.1748,33.15,-2.08,-0.21,10.64
50.078327,3.1748,33.15,-1.72,-0.52,9.88
50.078617,3.174709,33.17,-0.91,0.17,9.35
50.078617,3.174709,33.17,-1.74,-1.2,9.71
50.078909,3.17462,33.05,-1.58,-0.59,8.1
50.078909,3.17462,33.05,-1.29,1.09,11.79
50.079199,3.174529,33.21,-0.85,0.84,10.01
50.079199,3.174529,33.21,-0.68,-0.52,8.12
50.079491,3.174437,33.33,-1.68,-0.8,10.12
50.079491,3.174437,33.33,-0.85,0.69,10.67
50.079785,3.174347,33.58,-0.64,-0.23,8.75
50.079785,3.174347,33.58,-1.01,1.19,11.31
50.080079,3.174257,33.89,-0.8,-1.53,9.27
50.080079,3.174257,33.89,-1.72,0.14,9.12
50.080376,3.174165,33.9,-0.4,0.44,10.99
50.080376,3.174165,33.9,-1.31,-0.44,8.6
50.080676,3.174076,33.93,-1.04,0.28,9.75
50.080676,3.174076,33.93,-1.02,-0.91,8.6
50.080977,3.17399,33.81,-1.82,-0.23,10.42
50.081278,3.1739,33.54,-1.09,-0.01,9.93
50.081278,3.1739,33.54,-1.73,-0.68,12.13
50.081584,3.17382,33.47,-0.42,0.56,11.53
50.081584,3.17382,33.47,-1.83,-0.06,9.15
50.081883,3.173736,33.34,-1.13,-0.81,8.53
50.081883,3.173736,33.34,-1.71,-1.02,9.72
50.082174,3.173644,33.2,-1.55,-0.54,9.67
50.082174,3.173644,33.2,-0.35,0.59,10.61
50.082466,3.173553,33.04,-2.11,-1.17,9.2
50.082466,3.173553,33.04,-1.78,0.62,9.07
50.08276,3.173466,33.11,-1.07,-0.26,8.95
50.08276,3.173466,33.11,-1.65,-0.09,10.22
50.083048,3.173377,32.95,-1.59,-0.71,9.06
50.083048,3.173377,32.95,-1.09,0.08,9.34
50.083336,3.173289,32.82,-1.15,0.06,9.89
50.083336,3.173289,32.82,-1.36,0.91,10.76
50.083624,3.1732,32.87,-0.68,0.18,11.08
50.083624,3.1732,32.87,-1.67,-0.09,11.78
50.083916,3.173117,32.86,-1.81,0.56,11.29
50.083916,3.173117,32.86,-0.89,0.68,11.23
50.084205,3.173031,32.85,-1.84,0.09,10.86
50.084205,3.173031,32.85,-2.0,-0.2,10.19
50.084491,3.172945,32.9,-1.79,-0.75,8.58
50.084491,3.172945,32.9,-2.15,-0.77,10.89
50.08478,3.172853,32.84,-2.35,-0.55,10.56
50.08478,3.172853,32.84,-1.41,0.77,11.23
50.085067,3.172766,32.88,-1.96,-0.81,10.31
50.085067,3.172766,32.88,-2.62,-0.84,9.58
50.08536,3.172677,32.97,-1.06,-0.84,8.44
50.08536,3.172677,32.97,-0.94,-0.34,10.34
50.085653,3.17259,32.85,-1.52,0.36,9.2
50.085653,3.17259,32.85,-1.29,-0.36,8.84
50.085945,3.172498,32.78,-1.65,-0.8,10.2
50.085945,3.172498,32.78,-2.43,-0.61,9.17
50.086238,3.172412,32.81,-1.31,-0.61,10.46
50.086238,3.172412,32.81,-1.06,1.04,11.01
50.086528,3.172324,32.84,-2.25,-0.95,9.96
50.086528,3.172324,32.84,-1.39,-0.3,9.26
50.086815,3.172237,32.87,-0.69,0.33,10.35
50.086815,3.172237,32.87,-2.43,-0.74,10.18
50.087105,3.172155,32.94,-2.64,-1.03,9.21
50.087105,3.172155,32.94,-1.41,-0.07,10.77
50.0874,3.172072,33.06,-2.94,-0.4,9.37
50.0874,3.172072,33.06,-1.29,-0.29,9.68
50.087692,3.171984,33.3,-2.9,0.26,10.32
50.087986,3.171895,33.53,-0.64,0.84,10.06
50.087986,3.171895,33.53,-1.32,0.78,8.39
50.08828,3.171803,33.73,-1.35,0.23,10.91
50.08828,3.171803,33.73,-2.52,-0.44,9.42
50.088575,3.171711,33.92,-0.12,-0.33,7.24
50.088575,3.171711,33.92,-1.21,-0.36,9.37
50.088874,3.171618,34.09,-2.65,0.4,10.44
50.088874,3.171618,34.09,-1.15,0.38,9.5
50.089176,3.171525,34.24,-0.1,-0.39,10.78
50.089176,3.171525,34.24,-1.63,0.27,10.1
50.089477,3.171435,33.89,-0.95,0.91,10.51
50.089477,3.171435,33.89,-0.87,-0.05,10.22
50.089776,3.171344,33.94,-2.32,-0.04,10.21
50.089776,3.171344,33.94,-3.1,-0.68,9.84
50.090077,3.171255,34.11,-0.45,-0.15,8.81
50.090077,3.171255,34.11,-2.05,0.4,10.96
50.090378,3.171167,34.09,-3.13,-0.98,10.36
50.090378,3.171167,34.09,-0.25,-0.07,9.49
50.09068,3.171075,34.11,-2.24,-0.27,10.66
50.09068,3.171075,34.11,-2.38,-0.51,9.5
50.090979,3.170981,34.04,-1.35,-0.33,11.24
50.090979,3.170981,34.04,-1.67,0.05,10.18
50.091275,3.170885,33.62,-0.23,-1.13,9.51
50.091275,3.170885,33.62,-1.81,0.21,10.88
50.09157,3.170789,33.04,-0.25,0.58,9.17
50.09157,3.170789,33.04,-1.55,-0.95,9.55
50.091861,3.170693,32.8,-1.34,-0.58,9.91
50.091861,3.170693,32.8,-0.68,0.57,8.74
50.092151,3.170593,32.83,-1.44,0.45,10.11
50.092151,3.170593,32.83,-0.68,-0.21,9.79
50.092443,3.170497,32.86,-0.27,-0.62,10.07
50.092443,3.170497,32.86,-1.09,-1.19,9.9
50.092729,3.170404,32.16,-1.72,-0.34,8.92
50.092729,3.170404,32.16,-2.57,-0.91,10.53
50.093013,3.17031,32.31,-1.34,0.32,9.47
50.093013,3.17031,32.31,-2.18,-0.79,8.47
50.093299,3.170211,32.56,-1.82,-0.33,10.26
50.093299,3.170211,32.56,-1.34,0.11,8.97
50.093588,3.170114,32.55,-2.48,-0.34,9.77
50.093874,3.170007,32.73,-0.94,-0.03,9.88
50.093874,3.170007,32.73,-0.89,-0.38,7.98
50.09416,3.169899,32.76,-0.32,0.14,9.56
50.09416,3.169899,32.76,-1.07,-0.61,9.1
50.094443,3.169794,32.21,-1.32,-0.99,9.73
50.094443,3.169794,32.21,-2.07,-0.35,10.32
50.094723,3.169688,31.91,-2.11,0.16,9.64
50.094723,3.169688,31.91,-2.28,-0.61,10.07
50.095004,3.16958,32.29,-2.07,-0.57,9.84
50.095004,3.16958,32.29,-1.15,0.83,10.08
50.095286,3.169464,32.67,-1.16,1.0,11.35
50.095286,3.169464,32.67,-2.26,-0.07,9.38
50.095573,3.169341,33.12,-1.55,-0.16,10.11
50.095573,3.169341,33.12,-1.9,-0.3,11.47
50.095862,3.169218,33.56,-0.77,-0.07,9.83
50.095862,3.169218,33.56,-2.09,0.2,10.25
50.096157,3.169097,33.86,-0.69,1.02,10.67
50.096157,3.169097,33.86,-0.34,0.14,8.54
50.09645,3.168973,34.08,-1.44,-0.34,8.63
50.09645,3.168973,34.08,-0.9,0.04,11.42
50.096743,3.168851,33.76,-1.51,-0.92,9.99
50.096743,3.168851,33.76,-0.45,0.69,9.68
50.097037,3.168733,33.64,-1.84,-0.2,10.87
50.097037,3.168733,33.64,-0.35,0.48,10.05
50.097327,3.168613,33.55,-1.66,0.21,10.59
50.097327,3.168613,33.55,-1.52,-0.23,9.35
50.097621,3.168498,33.65,-1.47,0.15,9.18
50.097621,3.168498,33.65,-2.14,-1.17,9.45
50.097918,3.168385,33.77,-0.74,0.5,11.16
50.097918,3.168385,33.77,-1.53,-1.58,9.47
50.098215,3.168271,33.76,-0.21,-0.44,8.78
50.098215,3.168271,33.76,-1.52,-0.63,11.03
50.098507,3.168151,33.31,-1.72,-1.21,8.96
50.098507,3.168151,33.31,-0.78,-1.45,9.27
50.098797,3.168032,33.09,-1.67,-0.63,9.62
50.098797,3.168032,33.09,-0.98,-1.0,9.05
50.099086,3.16791,33.0,-1.78,-1.1,9.77
50.099086,3.16791,33.0,-1.16,-0.8,8.64
50.099374,3.167787,33.13,-1.86,0.57,10.09
50.099374,3.167787,33.13,-1.81,-0.52,10.86
50.099664,3.167664,33.4,-1.3,0.37,10.21
50.099664,3.167664,33.4,-1.93,0.06,10.73
50.099952,3.167533,33.47,-1.09,0.13,8.25
50.100242,3.167401,33.57,-1.05,0.25,9.89
50.100242,3.167401,33.57,-0.68,0.14,11.58
50.100533,3.167267,33.55,-1.3,0.43,9.41
50.100533,3.167267,33.55,-2.12,-0.32,9.31
50.100821,3.167129,33.64,-0.82,-0.87,9.56
50.100821,3.167129,33.64,-2.18,-0.78,9.87
50.101113,3.166988,33.62,-1.26,-0.02,8.46
50.101113,3.166988,33.62,-1.89,0.16,9.53
50.101406,3.16685,33.68,-1.5,-0.93,9.62
50.101406,3.16685,33.68,-1.83,-0.53,10.33
50.101697,3.166708,33.74,-1.86,-0.84,9.41
50.101697,3.166708,33.74,-1.3,0.2,11.11
50.101987,3.166569,33.77,-0.88,-0.13,10.31
50.101987,3.166569,33.77,-0.75,0.47,10.18
50.102277,3.166427,33.83,-1.64,-0.8,9.59
50.102277,3.166427,33.83,-1.34,0.15,9.91
50.102568,3.166285,33.93,-1.41,-0.59,9.57
50.102568,3.166285,33.93,-1.43,0.33,9.54
50.10286,3.166141,34.09,-0.71,0.45,10.95
50.10286,3.166141,34.09,-0.57,-1.4,10.41
50.103153,3.165992,34.26,-2.68,-0.66,11.93
50.103153,3.165992,34.26,-1.84,-0.31,9.12
50.103448,3.165842,34.48,-0.64,0.09,8.63
50.103448,3.165842,34.48,-1.94,-0.61,10.64
50.103745,3.165693,34.72,-0.34,-0.64,8.24
50.103745,3.165693,34.72,-0.67,-0.65,10.04
50.104044,3.165539,34.8,-0.34,-0.66,8.86
50.104044,3.165539,34.8,-0.88,-0.39,9.87
50.104339,3.165385,34.3,-0.41,0.85,10.5
50.104339,3.165385,34.3,-1.49,-0.1,10.85
50.10463,3.16523,34.06,-1.52,-0.64,8.97
50.10463,3.16523,34.06,-1.64,-0.08,9.36
50.104918,3.165074,34.1,-0.67,-0.28,10.59
50.104918,3.165074,34.1,-1.12,-0.48,10.07
50.105207,3.164918,33.91,-0.48,0.47,11.13
50.105207,3.164918,33.91,-0.23,0.85,12.35
50.105493,3.164758,33.65,-3.34,-0.53,10.85
50.105493,3.164758,33.65,-2.25,-0.65,9.91
50.10578,3.164599,33.87,-0.39,1.03,10.07
50.10607,3.164439,34.14,-1.84,-0.45,9.67
50.10607,3.164439,34.14,-1.2,0.34,9.84
50.106361,3.164277,34.37,-1.64,0.06,10.33
50.106361,3.164277,34.37,-0.72,-0.65,8.82
50.106652,3.164114,34.54,-0.83,0.67,9.93
50.106652,3.164114,34.54,-0.91,-0.3,8.04
50.106947,3.163948,34.71,-0.93,-0.22,9.12
50.106947,3.163948,34.71,-0.91,0.23,9.82
50.107242,3.163776,35.07,-1.18,0.65,10.65
50.107242,3.163776,35.07,-0.79,0.55,10.07
50.107542,3.163603,35.42,-1.01,-1.43,8.75
50.107542,3.163603,35.42,-0.59,-0.61,10.74
50.107846,3.163431,35.58,-2.22,0.58,9.67
50.107846,3.163431,35.58,-2.66,-1.13,10.9
50.108148,3.163253,35.8,-1.28,-0.13,10.77
50.108148,3.163253,35.8,-0.91,0.24,11.61
50.108451,3.163074,35.65,-0.54,-0.79,9.65
50.108451,3.163074,35.65,-1.14,-1.39,9.13
50.108749,3.162897,35.13,-0.47,-0.15,11.15
50.108749,3.162897,35.13,-0.28,0.7,10.71
50.109046,3.162723,34.91,-0.79,0.17,9.73
50.109046,3.162723,34.91,-0.25,-1.18,9.95
50.109338,3.162547,34.79,-0.14,-0.77,10.12
50.109338,3.162547,34.79,-0.57,-1.0,9.64
50.109629,3.162369,34.34,-1.6,-0.2,9.66
50.109629,3.162369,34.34,-1.02,1.05,9.49
50.109916,3.162191,34.27,-0.62,0.42,10.43
50.109916,3.162191,34.27,-1.0,-1.5,8.39
50.110201,3.162011,34.03,-0.24,0.14,10.93
50.110201,3.162011,34.03,-0.64,-0.53,9.46
50.11048,3.161833,33.28,-0.27,-1.2,5.65
50.11048,3.161833,33.28,0.34,1.11,11.7
50.110753,3.161657,32.84,-1.36,-0.61,9.65
50.110753,3.161657,32.84,0.77,0.96,8.05
50.111021,3.161477,32.59,-0.45,-0.43,9.98
50.111021,3.161477,32.59,-1.8,0.42,9.26
50.111289,3.161299,32.41,-1.52,0.1,9.09
50.111289,3.161299,32.41,-1.0,0.53,10.53
50.111558,3.161122,32.82,-1.72,1.19,10.4
50.111558,3.161122,32.82,-1.68,1.38,10.18
50.11183,3.160948,33.04,-1.49,0.45,10.51
50.112101,3.160782,33.26,-1.53,0.32,11.03
50.112101,3.160782,33.26,-0.89,-0.49,8.34
50.112377,3.160614,33.17,-2.05,-1.37,10.16
50.112377,3.160614,33.17,-1.7,-0.07,10.35
50.112651,3.160441,33.25,-0.45,1.22,11.11
50.112651,3.160441,33.25,-0.85,-0.13,8.71
50.112922,3.160253,33.28,-1.41,-0.69,9.19
50.112922,3.160253,33.28,-2.19,-0.62,10.07
50.113197,3.160069,33.33,-1.02,0.22,9.64
50.113197,3.160069,33.33,-2.17,-0.31,9.61
50.113474,3.159889,33.4,-1.37,0.12,9.83
50.113474,3.159889,33.4,-2.08,-0.3,11.28
50.113754,3.159711,33.54,-2.05,-0.02,9.01
50.113754,3.159711,33.54,-2.05,-0.48,9.7
50.114044,3.159545,33.58,-1.44,0.11,10.54
50.114044,3.159545,33.58,-0.91,-0.23,9.9
50.114327,3.159373,33.29,-0.92,-0.49,9.22
50.114327,3.159373,33.29,-1.82,0.1,10.78
50.114607,3.159203,32.9,-1.6,0.3,10.6
50.114607,3.159203,32.9,-1.17,-0.45,9.12
50.11488,3.159026,32.87,-2.1,0.69,9.74
50.11488,3.159026,32.87,-2.14,-0.83,9.6
50.115147,3.158845,32.86,-1.17,-0.88,8.17
50.115147,3.158845,32.86,-2.12,-0.49,10.86
50.115419,3.158676,33.06,-1.14,-0.23,9.34
50.115419,3.158676,33.06,-2.04,-0.47,9.92
50.115695,3.158507,33.17,-2.16,0.07,9.78
50.115695,3.158507,33.17,-0.87,-0.32,9.74
50.115971,3.15834,33.14,-2.6,-0.6,11.3
50.115971,3.15834,33.14,-1.97,-0.68,8.82
50.116246,3.158172,33.14,-0.61,0.2,9.7
50.116246,3.158172,33.14,-2.71,-1.19,9.21
50.116523,3.158,33.05,-2.07,0.55,11.09
50.116523,3.158,33.05,-1.16,-0.25,10.57
50.116799,3.157828,33.1,-2.22,0.57,10.13
50.116799,3.157828,33.1,-0.76,0.14,9.27
50.117074,3.157656,33.11,-2.6,-0.42,11.1
50.117074,3.157656,33.11,-1.09,-0.21,8.62
50.117349,3.157481,33.06,-1.36,0.49,12.13
50.117349,3.157481,33.06,-1.69,-0.4,8.75
50.117622,3.1573,33.19,-1.78,0.23,9.64
50.117622,3.1573,33.19,-1.92,0.17,11.03
50.117899,3.157129,33.21,-1.01,-0.26,9.99
50.118174,3.156961,33.12,-2.47,-0.22,10.97
50.118174,3.156961,33.12,-2.24,-0.97,9.53
50.118447,3.156789,33.26,-1.81,-0.46,11.68
50.118447,3.156789,33.26,-1.69,-0.25,9.35
50.118719,3.156608,33.29,-1.43,0.41,9.88
50.118719,3.156608,33.29,-3.01,-1.19,10.33
50.118991,3.156431,33.35,-1.34,0.3,10.53
50.118991,3.156431,33.35,-2.25,-0.26,10.58
50.119266,3.156253,33.25,-0.27,0.35,9.07
50.119266,3.156253,33.25,-2.35,-0.08,10.6
50.119542,3.156084,33.29,-3.02,-1.01,8.57
50.119542,3.156084,33.29,-1.29,0.36,10.04
50.119821,3.155915,33.17,-1.75,-0.69,8.92
50.119821,3.155915,33.17,-0.97,-0.23,9.62
50.120097,3.155747,33.1,-2.3,0.56,10.03
50.120097,3.155747,33.1,-1.34,-0.04,9.69
50.120372,3.155582,33.1,-1.29,0.02,9.52
50.120372,3.155582,33.1,-2.23,-1.06,9.62
50.120647,3.155417,33.18,-1.39,0.47,11.16
50.120647,3.155417,33.18,-1.92,-0.58,10.32
50.120925,3.155255,33.2,-1.68,0.24,9.07
50.120925,3.155255,33.2,-2.18,-0.38,11.37
50.121202,3.155083,33.3,-2.35,-1.65,9.09
50.121202,3.155083,33.3,-0.98,-0.43,10.11
50.121482,3.154909,33.43,-2.03,0.53,11.6
50.121482,3.154909,33.43,-2.3,-0.45,10.38
50.121758,3.154728,33.49,-2.31,0.03,9.8
50.121758,3.154728,33.49,-2.0,-0.16,9.6
50.122036,3.154547,33.56,-1.25,0.26,9.0
50.122036,3.154547,33.56,-2.49,-0.97,9.41
50.122318,3.154373,33.64,-0.63,0.08,9.18
50.122318,3.154373,33.64,-2.19,-0.23,11.14
50.122601,3.154196,33.6,-0.2,0.56,9.85
50.122601,3.154196,33.6,-0.58,-0.04,9.97
50.122877,3.154019,32.78,-0.91,0.03,9.61
50.122877,3.154019,32.78,-1.02,-0.11,9.87
50.123147,3.153841,32.61,-0.98,-0.31,9.5
50.123147,3.153841,32.61,-1.47,-0.24,9.99
50.12341,3.153651,32.6,-1.7,-0.77,10.12
50.12341,3.153651,32.6,-2.18,-1.29,9.08
50.123672,3.153456,32.68,-1.31,0.58,10.09
50.123937,3.153264,32.84,-1.45,0.62,10.7
50.123937,3.153264,32.84,-2.6,-0.78,8.95
50.124205,3.153069,33.0,-1.45,0.93,11.47
50.124205,3.153069,33.0,-1.58,-0.32,9.97
50.124475,3.152875,33.2,-1.19,0.01,11.51
50.124475,3.152875,33.2,-2.22,-0.8,10.14
50.124747,3.152677,33.45,-2.62,-0.7,9.23
50.124747,3.152677,33.45,-0.94,0.73,9.08
50.12502,3.152473,33.7,-0.63,0.24,9.45
50.12502,3.152473,33.7,-1.03,-0.08,9.31
50.125297,3.152265,33.82,-0.52,-0.55,10.96
50.125297,3.152265,33.82,-1.5,-0.41,9.21
50.125568,3.152057,33.28,-2.06,0.04,9.24
50.125568,3.152057,33.28,-1.51,-1.3,9.86
50.125835,3.151849,33.23,-1.61,-0.57,8.95
50.125835,3.151849,33.23,-0.81,0.68,10.64
50.126103,3.151637,33.36,-1.79,0.3,9.49
50.126103,3.151637,33.36,-2.38,-1.5,9.53
50.126374,3.151423,33.7,-0.68,-0.35,9.94
50.126374,3.151423,33.7,-1.84,-0.63,9.99
50.126644,3.151203,34.0,-0.87,0.38,9.52
50.126644,3.151203,34.0,-0.88,-0.54,10.6
50.126914,3.150977,34.01,-0.11,-0.15,9.99
50.126914,3.150977,34.01,-1.11,-0.79,8.56
50.127181,3.150752,33.68,-2.68,-0.38,10.69
50.127181,3.150752,33.68,-1.71,-0.95,9.01
50.127447,3.150528,33.82,-2.15,0.23,10.55
50.127447,3.150528,33.82,-2.43,0.09,8.97
50.127716,3.1503,34.1,-1.24,-1.4,8.81
50.127716,3.1503,34.1,-1.4,0.04,9.75
50.127984,3.150066,34.3,-2.75,-0.09,10.83
50.127984,3.150066,34.3,-1.71,-0.63,9.63
50.128254,3.149829,34.31,-1.07,-0.74,9.73
50.128254,3.149829,34.31,-2.0,-0.83,9.62
50.128521,3.149591,33.85,-2.85,-1.02,10.69
50.128521,3.149591,33.85,-0.98,-0.9,9.43
50.128784,3.149354,33.7,-1.82,-0.96,8.47
50.128784,3.149354,33.7,-1.14,0.78,9.89
50.129045,3.149111,33.83,-1.79,0.64,9.75
50.129045,3.149111,33.83,-1.64,0.06,9.3
50.129307,3.148867,34.04,-0.56,-0.77,8.21
50.129571,3.148623,34.12,-1.69,0.72,10.81
50.129571,3.148623,34.12,-1.31,0.0,9.86
50.129834,3.148374,34.18,-1.23,0.43,10.3
50.129834,3.148374,34.18,-0.68,-0.57,10.75
50.130094,3.148119,34.17,-2.2,-0.34,10.27
50.130094,3.148119,34.17,-0.73,0.77,10.5
50.13035,3.147863,34.1,-1.13,-1.07,10.34
50.13035,3.147863,34.1,-2.26,-1.04,9.45
50.130605,3.147603,34.08,-1.83,0.6,11.37
50.130605,3.147603,34.08,-1.1,-0.39,10.16
50.130857,3.147338,34.17,-2.74,-0.89,10.98
50.130857,3.147338,34.17,-1.12,-0.04,9.02
50.131112,3.147072,34.17,-0.68,-0.27,9.68
50.131112,3.147072,34.17,-1.49,-1.49,8.46
50.13137,3.146804,34.25,-2.61,-0.75,8.85
50.13137,3.146804,34.25,-1.23,0.2,11.56
50.131625,3.146533,34.24,-2.03,0.06,10.69
50.131625,3.146533,34.24,-2.26,-0.19,10.75
50.131879,3.146259,34.2,-0.96,-0.19,10.8
50.131879,3.146259,34.2,-1.14,-0.91,8.59
50.132131,3.145983,34.19,-0.85,-0.88,8.78
50.132131,3.145983,34.19,-1.43,-0.43,10.16
50.132378,3.145709,33.58,-2.12,-0.2,10.7
50.132378,3.145709,33.58,-1.4,-0.7,8.33
50.13262,3.145438,33.37,-2.03,-0.85,9.26
50.13262,3.145438,33.37,-0.94,-0.36,9.41
50.132859,3.145166,33.27,-2.18,-1.46,9.97
50.132859,3.145166,33.27,-1.2,0.12,9.39
50.133096,3.144889,33.3,-2.09,-0.65,9.89
50.133096,3.144889,33.3,-0.82,-0.35,9.13
50.133337,3.144608,33.44,-2.08,-0.97,10.12
50.133337,3.144608,33.44,-0.89,-0.67,8.11
50.133577,3.144317,33.57,-2.58,-1.08,9.05
50.133577,3.144317,33.57,-1.69,-0.39,8.83
50.133816,3.144026,33.73,-2.62,-1.42,9.64
50.133816,3.144026,33.73,-2.52,-0.26,9.51
50.134053,3.14373,33.98,-1.56,-0.53,9.02
50.134053,3.14373,33.98,-2.24,-1.15,9.5
50.134289,3.143425,34.09,-1.36,-0.49,10.69
50.134289,3.143425,34.09,-0.88,0.56,10.51
50.134527,3.143123,34.1,-1.79,-0.63,10.5
50.134527,3.143123,34.1,-1.59,-0.78,9.17
50.134761,3.142818,34.17,-1.4,-0.66,8.41
50.134761,3.142818,34.17,-2.18,-1.38,9.91
50.134995,3.142513,34.07,-2.35,-0.58,9.98
50.13523,3.142209,34.0,-0.9,0.4,9.81
50.13523,3.142209,34.0,-1.65,-0.86,9.8
50.135464,3.141906,33.92,-1.03,0.61,10.01
50.135464,3.141906,33.92,-2.22,-1.13,10.35
50.135698,3.141606,33.8,-2.09,-0.75,8.54
50.135698,3.141606,33.8,-1.24,0.34,9.68
50.13593,3.141301,33.86,-2.04,-0.43,9.54
50.13593,3.141301,33.86,-0.75,-0.06,9.88
50.136158,3.140996,33.85,-0.97,-1.0,10.4
50.136158,3.140996,33.85,-0.19,-1.42,8.72
50.136383,3.140686,33.07,-1.45,-0.97,9.65
50.136383,3.140686,33.07,-1.23,-0.13,9.2
50.136604,3.140376,32.87,-1.42,0.84,11.87
50.136604,3.140376,32.87,-1.79,-0.68,9.22
50.136822,3.140067,32.77,-0.75,0.34,10.65
50.136822,3.140067,32.77,-0.56,-0.2,10.97
50.13704,3.139761,32.74,-0.58,0.31,10.58
50.13704,3.139761,32.74,-2.07,-1.44,10.81
50.137257,3.139451,32.76,-1.24,-0.41,8.51
50.137257,3.139451,32.76,-0.97,-0.61,7.24
50.137474,3.139138,32.99,-2.1,-0.79,9.92
50.137474,3.139138,32.99,-0.91,-0.69,8.48
50.137694,3.138814,33.09,-0.65,1.36,10.19
50.137694,3.138814,33.09,-1.96,0.18,9.71
50.137913,3.138494,33.29,-0.37,0.54,9.88
50.137913,3.138494,33.29,-2.83,-1.42,10.74
50.138132,3.138174,33.42,-1.22,-0.09,10.77
50.138132,3.138174,33.42,-1.64,-0.12,9.74
50.138351,3.137853,33.52,-1.6,0.23,9.79
50.138351,3.137853,33.52,-2.09,-0.9,9.88
50.138568,3.137521,33.59,-1.02,0.64,10.47
50.138568,3.137521,33.59,-0.91,-0.53,10.32
50.138784,3.137188,33.66,-0.73,0.66,10.56
50.138784,3.137188,33.66,-1.13,-0.61,7.59
50.138997,3.136859,33.72,-2.74,-1.48,9.77
50.138997,3.136859,33.72,-1.38,-0.57,10.01
50.139209,3.136529,33.66,-2.53,-0.54,10.3
50.139209,3.136529,33.66,-1.44,0.24,11.18
50.13942,3.136196,33.51,-1.89,-0.8,9.78
50.13942,3.136196,33.51,-0.8,0.18,11.47
50.139631,3.135856,33.62,-1.54,-1.05,10.12
50.139631,3.135856,33.62,-1.16,-1.5,8.12
50.139836,3.135509,33.49,-2.45,-0.89,10.98
50.140038,3.135157,33.32,-0.85,-0.6,9.34
50.140038,3.135157,33.32,-1.19,-0.52,8.84
50.14024,3.134804,33.29,-1.13,-0.02,9.09
50.14024,3.134804,33.29,-0.67,-0.08,9.96
50.140437,3.134454,33.21,-2.01,-1.05,10.92
50.140437,3.134454,33.21,-0.48,-0.82,10.33
50.140635,3.134108,32.85,-0.11,1.29,10.25
50.140635,3.134108,32.85,-1.68,-0.23,9.26
50.140824,3.133759,32.6,-1.12,0.32,9.05
50.140824,3.133759,32.6,-1.37,-0.61,8.74
50.141019,3.133423,32.17,-0.24,0.23,10.27
50.141019,3.133423,32.17,-0.19,-0.12,10.31
50.141209,3.133088,31.49,-1.12,-0.53,9.25
50.141209,3.133088,31.49,-1.39,-0.53,8.49
50.141394,3.132759,30.98,-0.65,-0.88,9.16
50.141394,3.132759,30.98,-0.75,-0.19,10.38
50.141573,3.132439,29.67,-0.12,-0.95,8.92
50.141573,3.132439,29.67,-0.45,1.02,11.2
50.141743,3.132129,28.69,-0.01,-0.23,9.67
50.141743,3.132129,28.69,-0.51,0.15,11.38
50.141908,3.131829,27.74,0.15,-0.65,9.51
50.141908,3.131829,27.74,-1.33,-1.15,9.31
50.142069,3.131539,27.04,-0.33,-1.03,9.14
50.142069,3.131539,27.04,-1.64,-1.24,10.24
50.142228,3.131253,26.39,-0.61,0.26,10.86
50.142228,3.131253,26.39,-0.51,-0.53,10.39
50.142376,3.130969,25.72,-0.54,0.04,10.18
50.142376,3.130969,25.72,-0.33,0.2,10.6
50.142522,3.130695,25.25,-0.56,-0.73,9.57
50.142522,3.130695,25.25,-0.8,-1.15,9.29
50.142665,3.130424,24.94,-1.22,-0.27,9.57
50.142665,3.130424,24.94,-1.76,0.18,9.47
50.142812,3.13016,25.01,-2.06,0.5,9.48
50.142812,3.13016,25.01,-1.78,0.3,10.58
50.142957,3.129888,25.46,-1.99,-1.63,10.12
50.142957,3.129888,25.46,-1.93,0.07,10.49
50.143103,3.129607,25.89,-2.11,-0.4,9.85
50.143103,3.129607,25.89,-2.69,-0.4,10.13
50.143252,3.129322,26.58,-1.7,1.24,10.0
50.143252,3.129322,26.58,-2.36,-0.53,9.3
50.143403,3.12903,27.01,-1.84,-0.87,10.99
50.143553,3.128724,27.76,-1.75,1.0,11.14
50.143553,3.128724,27.76,-1.92,-0.81,9.96
50.143708,3.128412,28.24,-1.93,-0.72,9.2
50.143708,3.128412,28.24,-1.78,1.02,10.3
50.143866,3.128097,28.8,-1.96,-0.6,8.22
50.143866,3.128097,28.8,-2.31,-0.67,9.09
50.14403,3.127781,29.27,-1.72,-0.72,9.17
50.14403,3.127781,29.27,-1.58,-0.89,7.78
50.144195,3.127458,29.72,-1.36,-0.11,11.58
50.144195,3.127458,29.72,-2.0,-0.15,9.67
50.144366,3.127139,29.69,-1.32,1.24,9.99
50.144366,3.127139,29.69,-2.04,-0.54,9.54
50.144538,3.126817,30.28,-1.71,0.9,10.59
50.144538,3.126817,30.28,-1.7,1.24,8.75
50.144713,3.126484,30.93,-2.16,0.44,10.03
50.144713,3.126484,30.93,-1.89,0.74,10.92
50.144895,3.126152,31.22,-1.73,0.05,9.32
50.144895,3.126152,31.22,-1.46,0.67,9.05
50.145075,3.125819,31.57,-1.37,-0.31,9.28
50.145075,3.125819,31.57,-1.54,0.76,9.99
50.14526,3.125479,31.89,-1.44,0.48,10.42
50.14526,3.125479,31.89,-1.78,-0.03,11.56
50.145446,3.125137,32.21,-1.59,-0.69,10.13
50.145446,3.125137,32.21,-2.89,0.42,11.5
50.145634,3.124785,32.54,-1.66,0.07,9.71
50.145634,3.124785,32.54,-1.35,0.27,8.7
50.145821,3.12443,32.85,-1.91,-0.66,9.35
50.145821,3.12443,32.85,-1.07,0.57,9.99
50.146011,3.124076,33.14,-2.15,-0.68,8.24
50.146011,3.124076,33.14,-1.86,-0.26,9.99
50.146203,3.123719,33.42,-1.33,0.27,9.5
50.146203,3.123719,33.42,-0.59,-0.1,10.01
50.146398,3.123358,33.7,0.23,1.22,10.16
50.146398,3.123358,33.7,-2.07,-0.3,10.74
50.146594,3.123,33.29,-0.14,0.19,9.1
50.146594,3.123,33.29,-1.97,0.16,9.27
50.146789,3.122651,32.82,-0.55,-0.46,8.37
50.146789,3.122651,32.82,-0.73,1.59,10.32
50.146983,3.122307,32.63,-0.77,1.23,10.73
50.146983,3.122307,32.63,-1.54,-0.15,9.31
50.147178,3.121964,32.6,-1.57,0.65,9.98
50.147178,3.121964,32.6,-1.15,-0.09,10.13
50.147374,3.121625,32.6,-0.75,0.0,8.7
50.147571,3.121289,32.61,-2.1,0.0,11.01
50.147571,3.121289,32.61,-2.75,-1.39,11.27
50.147764,3.120947,32.65,-1.53,0.55,11.4
50.147764,3.120947,32.65,-1.49,1.0,11.64
50.147956,3.120605,32.71,-1.1,-0.08,8.86
50.147956,3.120605,32.71,-2.46,0.24,9.8
50.148153,3.120264,32.79,-1.19,-0.3,9.14
50.148153,3.120264,32.79,-0.93,0.34,10.65
50.14835,3.119922,32.78,-2.17,-0.41,9.38
50.14835,3.119922,32.78,-1.87,-0.21,10.07
50.148549,3.119583,32.89,-0.9,0.16,9.4
50.148549,3.119583,32.89,-1.87,-0.25,11.35
50.148751,3.119245,32.96,-2.31,-0.75,9.91
50.148751,3.119245,32.96,-1.0,-0.56,8.4
50.148955,3.118907,33.02,-2.66,-0.92,9.77
50.148955,3.118907,33.02,-2.04,0.0,9.83
50.149161,3.118572,33.07,-0.77,0.64,11.61
50.149161,3.118572,33.07,-2.31,0.47,11.2
50.149373,3.118231,33.14,-1.54,0.83,10.47
50.149373,3.118231,33.14,-1.63,-0.03,10.72
50.149588,3.117898,33.23,-2.02,0.83,10.82
50.149588,3.117898,33.23,-1.41,0.04,8.75
50.1498,3.117575,33.35,-1.65,-0.61,10.1
50.1498,3.117575,33.35,-0.42,1.37,10.22
50.150015,3.117249,33.36,-2.87,-0.39,11.07
50.150015,3.117249,33.36,-0.19,-0.14,8.7
50.150229,3.116923,33.43,-2.34,-0.08,9.7
50.150229,3.116923,33.43,-1.33,0.65,10.63
50.150448,3.116597,33.83,-2.47,-0.68,9.63
50.150448,3.116597,33.83,-0.65,0.9,10.34
50.150666,3.11627,33.66,-1.18,0.54,10.0
50.150666,3.11627,33.66,-2.37,-0.1,8.49
50.150887,3.115948,33.7,-1.37,0.97,11.15
50.150887,3.115948,33.7,-2.32,0.39,11.45
50.151109,3.115627,33.82,-0.49,1.7,12.26
50.151109,3.115627,33.82,-2.7,-0.87,10.75
50.151332,3.115307,33.82,-0.91,1.24,9.43
50.151332,3.115307,33.82,-1.87,-0.61,9.92
50.151557,3.114988,33.81,-1.91,0.46,10.07
50.151557,3.114988,33.81,-0.52,0.31,10.57
50.151785,3.114676,33.99,-1.09,0.74,9.74
50.152018,3.11437,33.93,-1.11,0.71,9.66
50.152018,3.11437,33.93,-1.12,-0.16,7.54
50.152252,3.114068,33.99,-1.51,1.12,11.44
50.152252,3.114068,33.99,-1.26,0.95,9.72
50.152487,3.113767,34.06,-0.91,-0.05,8.8
50.152487,3.113767,34.06,-2.1,0.33,10.38
50.152723,3.113463,34.08,-1.91,1.14,9.73
50.152723,3.113463,34.08,-1.28,-0.65,9.9
50.15296,3.113166,34.21,-0.8,0.58,9.38
50.15296,3.113166,34.21,-2.31,0.81,11.04
50.1532,3.112869,34.21,-0.54,0.75,12.01
50.1532,3.112869,34.21,-0.41,-0.03,9.25
50.153441,3.112575,34.21,-1.54,0.44,10.86
50.153441,3.112575,34.21,-0.27,0.78,9.52
50.153689,3.112291,34.26,-0.63,1.49,11.87
50.153689,3.112291,34.26,-0.41,0.07,8.79
50.153938,3.112008,34.31,-2.86,-0.62,10.38
50.153938,3.112008,34.31,-0.98,1.24,9.82
50.154188,3.111725,34.25,-1.39,0.94,10.64
50.154188,3.111725,34.25,-2.91,-0.09,9.5
50.154439,3.111452,34.03,-1.2,-0.45,8.72
50.154439,3.111452,34.03,0.27,0.55,10.37
50.154691,3.111181,33.57,1.21,0.76,8.38
50.154691,3.111181,33.57,-1.81,-0.92,9.84
50.154938,3.110911,32.87,-1.03,1.24,10.21
50.154938,3.110911,32.87,-2.49,-0.52,10.41
50.155181,3.11065,32.61,-1.89,-0.07,10.63
50.155181,3.11065,32.61,-1.5,0.75,9.28
50.15542,3.11039,32.6,-1.21,0.95,10.4
50.15542,3.11039,32.6,-1.19,0.98,9.3
50.155662,3.110137,32.67,-2.9,-0.05,10.01
50.155662,3.110137,32.67,-1.48,0.55,9.54
50.155905,3.109888,32.68,-1.16,0.97,9.83
50.155905,3.109888,32.68,-1.85,0.43,9.15
50.156152,3.109643,32.79,-1.13,1.46,12.02
50.156152,3.109643,32.79,-0.51,-0.29,9.18
50.156403,3.1094,32.89,-1.52,0.23,7.98
50.156403,3.1094,32.89,-2.15,1.22,10.93
50.156655,3.109162,32.92,-2.13,0.67,9.75
50.156655,3.109162,32.92,-1.13,0.13,7.59
50.156909,3.108926,32.97,-2.5,0.59,9.47
50.156909,3.108926,32.97,-1.71,-0.32,8.86
50.157165,3.108694,32.97,-2.29,-0.2,10.7
50.157416,3.108462,32.91,-2.4,0.55,8.44
50.157416,3.108462,32.91,-1.17,-0.09,9.02
50.157673,3.108234,32.93,-1.72,-0.12,8.71
50.157673,3.108234,32.93,-1.64,-0.13,10.02
50.15793,3.108011,33.08,-0.76,-0.14,9.69
50.15793,3.108011,33.08,-2.99,-0.5,10.94
50.158188,3.107786,33.01,-1.62,0.11,8.57
50.158188,3.107786,33.01,-1.06,1.22,10.8
50.158446,3.107561,33.08,-2.6,-0.32,11.48
50.158446,3.107561,33.08,-1.14,-0.69,10.52
50.158707,3.107342,33.05,-0.98,0.47,9.54
50.158707,3.107342,33.05,-1.97,1.07,9.56
50.158971,3.107126,33.02,-0.45,0.36,11.61
50.158971,3.107126,33.02,-0.79,-0.21,9.37
50.159234,3.106917,32.79,-1.23,0.47,8.91
50.159234,3.106917,32.79,-1.14,0.58,11.43
50.159497,3.106714,32.55,-1.57,-0.07,9.22
50.159497,3.106714,32.55,-2.32,-0.41,11.0
50.159759,3.106519,32.47,-2.83,0.24,10.3
50.159759,3.106519,32.47,-2.05,-0.78,9.39
50.160021,3.106327,32.44,-2.12,-0.46,9.68
50.160021,3.106327,32.44,-0.63,0.99,10.06
50.160285,3.106134,32.44,-1.46,1.19,10.88
50.160285,3.106134,32.44,-2.52,-0.84,11.23
50.16055,3.105944,32.43,-1.67,1.09,10.85
50.16055,3.105944,32.43,-1.74,0.65,11.8
50.160816,3.105756,32.48,-1.61,1.12,11.07
50.160816,3.105756,32.48,-2.94,-0.58,9.29
50.161083,3.105572,32.57,-1.8,1.26,10.18
50.161083,3.105572,32.57,-1.64,0.54,10.2
50.161353,3.105392,32.7,-1.84,0.94,8.77
50.161353,3.105392,32.7,-1.65,-0.4,9.19
50.161624,3.105215,32.75,-1.21,-0.41,9.53
50.161624,3.105215,32.75,-1.78,-0.19,10.67
50.161896,3.105041,32.79,-1.78,0.69,9.03
50.161896,3.105041,32.79,-1.12,-0.53,9.57
50.16217,3.10487,32.76,-1.81,-0.05,10.95
50.16217,3.10487,32.76,-2.29,0.45,8.93
50.162444,3.104704,32.86,-2.17,0.53,10.9
50.162444,3.104704,32.86,-0.37,0.24,8.98
50.16272,3.104543,32.83,-2.7,-0.4,9.96
50.163,3.104394,32.88,-2.84,-0.99,10.2
50.163,3.104394,32.88,-1.02,0.23,9.61
50.163279,3.10425,32.72,-2.15,0.36,8.63
50.163279,3.10425,32.72,-2.53,-1.0,8.63
50.163554,3.104097,32.76,-1.53,0.47,9.15
50.163554,3.104097,32.76,-1.47,0.61,11.78
50.163832,3.103953,32.76,-2.28,-0.11,10.3
50.163832,3.103953,32.76,-2.01,-0.01,9.74
50.164112,3.103804,32.79,-1.05,0.37,8.49
50.164112,3.103804,32.79,-0.87,0.59,9.67
50.164391,3.103663,32.7,-2.33,-0.29,10.98
50.164391,3.103663,32.7,-2.02,-0.09,8.93
50.164672,3.103527,32.51,-1.26,0.47,9.17
50.164672,3.103527,32.51,-1.13,0.36,10.85
50.164946,3.103388,32.41,-2.16,-0.45,9.83
50.164946,3.103388,32.41,-1.58,0.44,9.89
50.165223,3.103255,32.49,-1.89,-0.08,10.15
50.165223,3.103255,32.49,-2.45,0.06,10.24
50.165502,3.103131,32.58,-1.7,0.61,10.66
50.165502,3.103131,32.58,-2.64,-0.81,9.06
50.165783,3.103014,32.68,-1.82,0.06,11.05
50.165783,3.103014,32.68,-1.34,0.94,10.39
50.166066,3.102898,32.76,-1.84,-0.26,9.31
50.166066,3.102898,32.76,-2.34,-0.99,10.37
50.166352,3.10278,32.78,-0.99,0.46,8.69
50.166352,3.10278,32.78,-2.49,-0.44,10.06
50.166641,3.102667,32.96,-2.98,-1.36,9.97
50.166641,3.102667,32.96,-1.7,-0.55,7.85
50.166931,3.102559,33.14,-2.02,-0.18,10.16
50.166931,3.102559,33.14,-1.5,0.97,12.15
50.167223,3.102451,33.42,-2.0,0.3,10.82
50.167223,3.102451,33.42,-1.02,-0.72,9.12
50.167519,3.102347,33.61,-3.61,-0.23,11.22
50.167519,3.102347,33.61,-1.16,-0.1,8.48
50.167816,3.102247,33.82,-0.58,-0.74,8.1
50.167816,3.102247,33.82,-1.36,0.53,10.99
50.168114,3.10215,33.46,-2.04,-0.7,8.38
50.168114,3.10215,33.46,-0.83,-0.93,7.9
50.168407,3.102057,33.33,-2.18,-0.08,9.43
50.168407,3.102057,33.33,-1.84,0.41,9.78
50.168705,3.101962,33.55,-2.24,-0.98,8.31
50.169003,3.101875,33.71,-2.13,0.85,11.24
50.169003,3.101875,33.71,-2.03,-0.02,9.25
50.169303,3.101792,33.94,-0.14,1.67,10.9
50.169303,3.101792,33.94,-0.94,-0.47,7.59
50.169604,3.101716,34.22,-1.93,-0.33,8.93
50.169604,3.101716,34.22,-1.94,-0.47,9.12
50.16991,3.101646,34.37,-1.67,0.68,10.17
50.16991,3.101646,34.37,-1.87,-0.36,8.87
50.170217,3.101581,34.36,-0.4,-0.08,7.49
50.170217,3.101581,34.36,-0.66,0.19,10.06
50.170522,3.101517,33.96,-1.9,-0.1,11.02
50.170522,3.101517,33.96,-2.99,-0.79,10.41
50.170824,3.101457,33.98,-1.77,0.78,11.42
50.170824,3.101457,33.98,-1.68,-0.03,10.18
50.171127,3.101396,34.04,-1.37,-0.84,9.16
50.171127,3.101396,34.04,-0.94,0.88,10.36
50.171433,3.101341,34.26,-1.61,-0.27,11.59
50.171433,3.101341,34.26,-3.0,-1.45,10.27
50.171738,3.101292,34.18,-0.55,-0.63,8.04
50.171738,3.101292,34.18,-0.54,0.6,10.32
50.172043,3.101247,33.91,-2.14,-0.59,9.37
50.172043,3.101247,33.91,-1.11,0.77,9.28
50.172346,3.101203,33.94,-0.33,-0.45,8.85
50.172346,3.101203,33.94,-2.28,0.18,9.0
50.172653,3.101165,34.1,-1.13,0.82,10.91
50.172653,3.101165,34.1,-0.6,0.97,9.87
50.172962,3.101132,34.29,-2.54,-0.73,10.08
50.172962,3.101132,34.29,-2.44,-0.52,8.87
50.173271,3.101097,34.39,-0.79,-0.12,8.42
50.173271,3.101097,34.39,-0.03,1.04,11.64
50.173577,3.101065,33.88,-1.46,-0.18,9.97
50.173577,3.101065,33.88,-1.41,-0.45,10.4
50.173882,3.101035,33.6,-1.81,-0.24,10.31
50.173882,3.101035,33.6,-1.35,-0.25,10.24
50.174184,3.101009,33.54,-2.16,0.23,10.11
50.174184,3.101009,33.54,-1.18,-0.28,8.28
50.174484,3.100986,33.48,-1.71,0.95,11.85
50.174484,3.100986,33.48,-1.44,0.62,11.78
50.174787,3.100971,33.59,-2.16,-0.49,9.37
50.174787,3.100971,33.59,-1.71,-0.16,9.61
50.175092,3.100962,33.61,-2.55,0.37,10.64
50.175397,3.100955,33.84,-1.86,-0.2,10.83
50.175397,3.100955,33.84,-2.06,-0.68,9.06
50.175706,3.10096,34.01,-2.32,-0.91,9.28
50.175706,3.10096,34.01,-2.52,-0.51,9.92
50.176018,3.100979,34.25,-0.98,0.05,9.53
50.176018,3.100979,34.25,-1.5,1.06,9.45
50.176328,3.100999,34.42,-2.16,-0.4,11.3
50.176328,3.100999,34.42,-1.24,2.09,10.72
50.17664,3.10102,34.5,-1.0,1.31,9.99
50.17664,3.10102,34.5,-1.71,-1.22,8.46
50.176952,3.101041,34.62,-2.49,-0.54,9.58
50.176952,3.101041,34.62,-2.01,0.01,10.67
50.177266,3.101066,34.81,-1.02,0.11,9.13
50.177266,3.101066,34.81,-1.06,0.98,10.86
50.177578,3.101094,34.76,-0.88,0.12,11.01
50.177578,3.101094,34.76,-1.01,0.05,9.65
50.177889,3.101125,34.87,-0.62,-0.34,10.2
50.177889,3.101125,34.87,-0.96,0.61,10.55
50.178203,3.101157,34.93,-0.95,0.45,10.48
50.178203,3.101157,34.93,-1.42,0.24,11.64
50.178515,3.101195,34.85,-1.0,0.12,8.59
50.178515,3.101195,34.85,-0.5,0.42,9.82
50.17883,3.101235,34.7,0.68,0.59,10.92
50.17883,3.101235,34.7,0.58,0.95,9.04
50.17914,3.101279,34.12,-0.35,0.31,10.54
50.17914,3.101279,34.12,-0.88,-0.28,9.18
50.179444,3.101325,33.42,-1.0,-0.51,10.24
50.179444,3.101325,33.42,-1.78,-0.52,9.15
50.17974,3.101372,33.11,-2.27,-0.72,7.99
50.17974,3.101372,33.11,-1.0,0.62,10.41
50.180036,3.101425,33.25,-1.8,-1.08,9.29
50.180036,3.101425,33.25,-0.5,0.75,10.63
50.180333,3.101478,33.24,-1.34,-0.77,10.22
50.180333,3.101478,33.24,-2.15,0.2,9.77
50.180629,3.101535,33.15,-0.75,-0.41,7.35
50.180629,3.101535,33.15,-1.6,0.59,10.95
50.180924,3.101591,33.07,-1.56,-0.27,9.48
50.180924,3.101591,33.07,-1.22,-0.53,7.83
50.181216,3.101647,33.0,-2.15,-1.03,11.51
50.181216,3.101647,33.0,-0.92,-0.12,8.99
50.181509,3.10171,32.88,-1.02,-0.23,8.56
50.181804,3.101773,32.9,-1.21,0.77,10.32
50.181804,3.101773,32.9,-1.44,-0.01,9.97
50.182095,3.101833,32.84,-1.34,-0.21,9.48
50.182095,3.101833,32.84,-1.73,-0.72,9.67
50.182387,3.101896,32.76,-1.08,-0.12,9.25
50.182387,3.101896,32.76,-0.95,0.54,11.49
50.182676,3.101959,32.67,-0.91,0.81,10.57
50.182676,3.101959,32.67,-1.97,-0.77,9.77
50.18297,3.102031,32.74,-1.74,0.46,10.11
50.18297,3.102031,32.74,0.02,-0.18,9.68
50.183265,3.102103,32.9,-1.47,-0.02,10.17
50.183265,3.102103,32.9,-1.7,0.36,9.29
50.183562,3.10218,32.96,-0.54,1.05,10.08
50.183562,3.10218,32.96,-1.31,0.89,9.32
50.183853,3.102264,32.99,-1.15,1.11,9.39
50.183853,3.102264,32.99,-0.89,0.4,11.52
50.184145,3.10235,32.86,-1.1,-0.61,10.1
50.184145,3.10235,32.86,-1.51,-0.4,9.73
50.184437,3.102437,32.8,-0.32,0.0,11.25
50.184437,3.102437,32.8,-0.85,-0.02,10.98
50.184728,3.102516,32.65,-1.42,-1.88,8.68
50.184728,3.102516,32.65,-1.57,0.08,9.06
50.185018,3.102589,32.66,-0.95,-0.34,9.48
50.185018,3.102589,32.66,-0.34,0.17,10.17
50.185309,3.102662,32.57,-1.7,-0.97,8.74
50.185309,3.102662,32.57,-2.72,-0.79,10.67
50.185597,3.102729,32.59,-1.67,-0.1,9.36
50.185597,3.102729,32.59,-0.68,0.02,10.0
50.185887,3.102797,32.68,-2.4,-0.17,9.92
50.185887,3.102797,32.68,-2.12,-0.6,8.54
50.186178,3.102868,32.91,-1.18,0.68,10.23
50.186178,3.102868,32.91,-1.6,0.07,10.49
50.186471,3.102939,33.24,-2.3,-1.08,9.61
50.186471,3.102939,33.24,-1.64,-0.16,9.09
50.186768,3.103012,33.61,-1.72,-0.47,9.39
50.186768,3.103012,33.61,-0.9,0.71,11.32
50.187064,3.103081,33.32,-1.94,-0.91,9.1
50.187064,3.103081,33.32,-0.71,0.5,10.99
50.187359,3.103159,33.02,-1.32,-0.61,10.84
50.187359,3.103159,33.02,-0.96,0.09,9.1
50.187653,3.103233,33.2,-2.12,-0.67,9.76
50.187946,3.103305,33.38,-1.16,-0.4,9.51
50.187946,3.103305,33.38,-0.78,1.01,11.2
50.188243,3.103384,33.53,-1.33,1.18,10.23
50.188243,3.103384,33.53,-0.68,1.02,9.66
50.188542,3.103461,33.7,-1.97,-0.5,11.17
50.188542,3.103461,33.7,-1.05,-0.14,10.06
50.188841,3.103538,33.81,-1.45,-0.33,10.48
50.188841,3.103538,33.81,-0.98,0.46,10.66
50.189141,3.103613,33.66,-0.98,-0.09,9.07
50.189141,3.103613,33.66,-1.69,-0.12,10.32
50.189438,3.103688,33.63,-1.09,-0.74,8.46
50.189438,3.103688,33.63,-1.9,-1.1,9.3
50.189735,3.103762,33.64,-0.65,-0.18,8.88
50.189735,3.103762,33.64,-2.83,-0.83,10.37
50.190034,3.103837,33.55,-1.2,-0.19,9.89
50.190034,3.103837,33.55,-2.19,-0.62,9.01
50.190335,3.103915,33.58,-1.03,0.37,10.03
50.190335,3.103915,33.58,-0.45,-0.06,8.98
50.190636,3.10399,33.83,-1.79,-0.22,10.68
50.190636,3.10399,33.83,-1.04,0.6,11.17
50.190942,3.104053,33.96,-1.97,-0.53,9.34
50.190942,3.104053,33.96,-0.47,1.1,10.03
50.191249,3.104115,33.89,0.33,-0.34,8.58
50.191249,3.104115,33.89,-1.6,-0.15,10.61
50.191553,3.104178,34.06,-2.0,0.53,9.95
50.191553,3.104178,34.06,-1.1,-0.42,8.61
50.191854,3.104237,34.0,-1.66,-0.43,11.09
50.191854,3.104237,34.0,-2.1,-1.19,9.77
50.192154,3.104294,34.0,-1.79,-0.58,10.85
50.192154,3.104294,34.0,-2.04,-0.65,10.85
50.192452,3.104347,33.46,-0.93,-0.08,10.58
50.192452,3.104347,33.46,-1.46,0.09,9.55
50.192746,3.104397,33.46,-1.58,-1.18,8.91
50.192746,3.104397,33.46,-1.32,-0.88,10.54
50.193043,3.104445,33.6,-1.13,0.38,9.86
50.193043,3.104445,33.6,-3.5,-0.74,9.7
50.193343,3.10449,33.74,-2.86,-0.6,9.72
50.193343,3.10449,33.74,-1.51,-0.8,7.39
50.193642,3.104525,33.95,-1.3,-0.96,9.24
50.193642,3.104525,33.95,-0.36,0.76,11.29
50.193944,3.10455,33.94,-1.72,-1.59,8.01
50.193944,3.10455,33.94,-1.69,-0.43,9.48
50.194249,3.104576,34.08,-0.67,0.84,10.98
50.194556,3.104596,34.18,-1.39,-1.38,8.91
50.194556,3.104596,34.18,-2.32,-0.62,9.37
50.194865,3.104609,34.3,-1.07,0.73,8.3
50.194865,3.104609,34.3,-2.52,-0.93,9.87
50.195173,3.104617,34.35,-1.58,0.78,10.38
50.195173,3.104617,34.35,-2.88,-1.08,10.15
50.195481,3.104617,34.45,-1.93,0.18,8.89
50.195481,3.104617,34.45,-1.13,0.18,9.47
50.195789,3.104612,34.56,-0.78,-1.05,11.48
50.195789,3.104612,34.56,-0.82,-0.03,9.16
50.196094,3.104606,34.15,-2.18,-0.31,10.26
50.196094,3.104606,34.15,-0.67,-0.04,9.35
50.196402,3.1046,34.25,-2.77,-1.13,11.13
50.196402,3.1046,34.25,-2.35,-1.31,8.63
50.196711,3.104592,34.48,-2.53,0.06,10.48
50.196711,3.104592,34.48,-2.65,-0.52,10.8
50.197022,3.104577,34.73,-0.79,-1.7,9.02
50.197022,3.104577,34.73,-1.35,-1.03,9.29
50.197334,3.104558,34.73,-0.5,-0.55,10.03
50.197334,3.104558,34.73,-0.88,-0.54,9.89
50.197643,3.104534,34.02,-0.94,0.5,10.52
50.197643,3.104534,34.02,-0.59,-1.11,9.97
50.19795,3.1045,33.95,-1.71,-0.74,9.96
50.19795,3.1045,33.95,-0.29,0.4,9.77
50.198258,3.104458,33.96,-1.71,-0.87,10.01
50.198258,3.104458,33.96,-0.85,0.32,9.53
50.198566,3.104412,33.97,-1.01,-0.16,10.31
50.198566,3.104412,33.97,-1.05,0.07,9.83
50.198872,3.104368,34.15,-2.71,-1.54,9.27
50.198872,3.104368,34.15,-0.71,-0.13,9.5
50.199177,3.104319,34.23,-0.55,-1.19,10.09
50.199177,3.104319,34.23,-0.82,-0.1,9.53
50.199482,3.104261,34.3,-2.22,-0.77,10.46
50.199482,3.104261,34.3,-0.65,0.66,9.83
50.199789,3.104201,34.4,-1.12,0.29,8.47
50.199789,3.104201,34.4,-2.19,-1.16,9.34
50.200091,3.104134,34.44,-2.54,-1.01,10.23
50.200091,3.104134,34.44,-3.36,-0.48,10.46
50.200392,3.104065,34.6,-1.02,0.98,10.52
50.200392,3.104065,34.6,-0.07,0.47,9.13
50.200692,3.103986,34.59,-0.61,-0.8,10.38
50.200995,3.103911,34.12,-1.29,-1.32,9.32
50.200995,3.103911,34.12,-0.07,-0.58,9.67
50.201297,3.103837,33.6,-0.93,-0.39,8.7
50.201297,3.103837,33.6,-0.72,0.44,11.07
50.201593,3.103758,33.33,-1.31,0.35,10.28
50.201593,3.103758,33.33,-0.38,-0.2,10.31
50.201889,3.103678,33.38,-2.63,-0.38,11.68
50.201889,3.103678,33.38,-1.02,0.34,10.52
50.202191,3.103592,33.44,-2.3,-0.67,9.53
50.202191,3.103592,33.44,-1.53,-0.11,10.42
50.202487,3.103496,33.53,-2.73,-1.11,8.77
50.202487,3.103496,33.53,-1.59,-0.8,9.21
50.202782,3.103398,33.56,-2.51,-0.63,9.46
50.202782,3.103398,33.56,-1.06,0.13,10.49
50.203074,3.10329,33.43,-1.74,0.22,9.95
50.203074,3.10329,33.43,-1.24,-0.82,8.6
50.203366,3.103181,33.3,-1.94,-0.77,8.7
50.203366,3.103181,33.3,-1.69,0.37,9.7
50.203656,3.103071,33.21,-1.26,-0.28,10.18
50.203656,3.103071,33.21,-2.39,-0.93,9.45
50.203943,3.102953,33.1,-0.7,0.15,11.43
50.203943,3.102953,33.1,-1.3,-0.86,10.63
50.204229,3.10283,32.97,-1.39,0.39,9.5
50.204229,3.10283,32.97,-1.34,0.81,10.32
50.204512,3.102704,32.9,-2.3,-0.75,7.72
50.204512,3.102704,32.9,-1.93,0.36,10.06
50.204794,3.102572,32.82,-0.6,0.86,10.65
50.204794,3.102572,32.82,-1.78,-0.68,9.41
50.205076,3.102442,32.7,-1.55,-0.87,8.49
50.205076,3.102442,32.7,-1.24,-0.83,10.86
50.205358,3.102308,32.78,-1.52,-0.6,10.68
50.205358,3.102308,32.78,-1.33,-0.82,10.39
50.205637,3.10217,32.63,-2.15,-0.97,9.32
50.205637,3.10217,32.63,-0.87,-0.34,9.59
50.205915,3.102025,32.64,-0.99,0.43,10.83
50.205915,3.102025,32.64,-2.24,-1.29,7.93
50.206191,3.101873,32.86,-1.33,-0.13,9.38
50.206191,3.101873,32.86,-1.37,-0.41,8.49
50.206468,3.101717,33.05,-2.6,-1.6,10.64
50.206468,3.101717,33.05,-1.69,-0.29,8.19
50.206748,3.101564,33.2,-1.58,0.35,9.9
50.206748,3.101564,33.2,-1.12,0.19,10.28
50.207029,3.1014,33.43,-2.81,-0.37,10.71
50.207312,3.101228,33.64,-1.15,0.49,9.62
50.207312,3.101228,33.64,-2.02,-0.96,9.23
50.207593,3.101049,33.67,-0.95,0.62,10.85
50.207593,3.101049,33.67,-2.51,-0.84,9.9
50.207875,3.10087,34.04,-1.68,-0.81,8.69
50.207875,3.10087,34.04,-0.83,-0.12,9.76
50.208159,3.100685,34.28,-2.33,-0.57,10.73
50.208159,3.100685,34.28,-2.83,-1.41,9.29
50.208443,3.100495,34.5,-2.32,-0.49,8.16
50.208443,3.100495,34.5,-0.88,0.99,10.35
50.208727,3.100299,34.73,-0.19,-0.59,10.15
50.208727,3.100299,34.73,-1.45,-0.62,10.19
50.20901,3.100102,34.32,-1.76,-0.08,9.84
50.20901,3.100102,34.32,-1.99,-0.26,9.94
50.209289,3.099902,34.19,-1.81,-1.18,9.43
50.209289,3.099902,34.19,-2.15,-1.23,9.08
50.209566,3.099695,34.29,-2.21,-0.24,10.48
50.209566,3.099695,34.29,-1.77,-0.39,8.27
50.209849,3.099491,34.43,-1.39,-0.69,9.76
50.209849,3.099491,34.43,-1.92,-0.24,8.75
50.210126,3.09928,34.53,-2.58,-1.1,8.35
50.210126,3.09928,34.53,-1.08,0.58,10.72
50.210404,3.09907,34.64,-0.56,0.77,10.85
50.210404,3.09907,34.64,-1.28,0.65,11.06
50.210684,3.098858,34.7,-0.85,1.21,10.34
50.210684,3.098858,34.7,-2.02,-0.42,10.08
50.210961,3.098639,34.84,-1.43,-0.08,9.78
50.210961,3.098639,34.84,-0.96,-0.14,9.12
50.211243,3.098423,34.82,-1.22,-0.85,10.12
50.211243,3.098423,34.82,-0.79,-0.16,9.73
50.21152,3.098205,34.11,-0.56,-0.35,10.34
50.21152,3.098205,34.11,-1.47,-0.55,9.42
50.211794,3.097994,33.42,-1.79,-0.11,9.74
50.211794,3.097994,33.42,-1.11,-0.15,9.77
50.212058,3.097777,33.05,-1.35,-0.85,9.54
50.212058,3.097777,33.05,-1.63,-0.2,9.17
50.212323,3.097564,33.03,-1.77,-1.02,8.79
50.212323,3.097564,33.03,-0.89,-0.2,9.13
50.212587,3.097349,33.03,-0.76,-0.22,8.61
50.212587,3.097349,33.03,-2.58,-0.5,11.62
50.212851,3.097138,33.28,-1.04,0.21,10.36
50.21312,3.096922,33.6,-1.59,-1.01,7.98
50.21312,3.096922,33.6,-0.66,-0.08,9.77
50.213387,3.096698,33.8,-2.25,-0.48,8.54
50.213387,3.096698,33.8,-1.34,0.53,10.95
50.213653,3.096465,34.03,-1.33,-0.7,9.17
50.213653,3.096465,34.03,-2.49,-1.02,9.92
50.21392,3.096232,34.26,-1.13,0.21,10.43
50.21392,3.096232,34.26,-0.45,0.17,9.48
50.214191,3.096002,34.34,-1.49,-1.03,9.29
50.214191,3.096002,34.34,-2.48,-0.71,10.18
50.21446,3.095763,34.53,-1.54,-0.2,9.91
50.21446,3.095763,34.53,-1.68,0.1,9.77
50.214735,3.095529,34.69,-1.43,0.04,9.54
50.214735,3.095529,34.69,-0.74,0.6,9.84
50.215006,3.095281,34.76,-0.92,-0.1,9.3
50.215006,3.095281,34.76,-1.16,-1.06,8.54
50.215264,3.095027,34.89,-2.55,-0.71,9.62
50.215264,3.095027,34.89,-1.9,-0.06,9.47
50.215528,3.094769,34.89,-1.2,-0.11,9.04
50.215528,3.094769,34.89,-0.43,-0.05,10.41
50.215795,3.094512,34.4,-0.27,0.81,10.17
50.215795,3.094512,34.4,-1.24,-1.01,9.26
50.216054,3.094251,34.15,-1.22,-0.01,8.24
50.216054,3.094251,34.15,-0.24,0.55,11.2
50.216309,3.093987,33.94,-0.38,0.54,9.8
50.216309,3.093987,33.94,-2.14,-0.61,10.55
50.216559,3.093718,33.78,-1.46,-0.1,8.51
50.216559,3.093718,33.78,-2.2,-0.93,10.36
50.216806,3.093443,33.94,-1.41,-0.4,9.76
50.216806,3.093443,33.94,-1.46,1.24,11.07
50.217057,3.093167,34.0,-2.39,-1.18,9.9
50.217057,3.093167,34.0,-2.62,-0.81,9.67
50.217305,3.092884,34.18,-0.32,0.39,9.62
50.217305,3.092884,34.18,-2.56,-1.09,10.09
50.217551,3.092595,34.49,-2.43,-0.56,9.2
50.217551,3.092595,34.49,-2.39,-0.26,9.41
50.217794,3.092295,34.64,-0.59,1.25,10.51
50.217794,3.092295,34.64,-1.46,-0.91,8.91
50.218034,3.091983,34.61,-2.83,-1.04,10.51
50.218034,3.091983,34.61,-2.66,-0.64,8.94
50.218273,3.091664,34.75,-2.57,-0.8,9.47
50.218505,3.091345,34.79,-1.36,-0.12,9.38
50.218505,3.091345,34.79,0.08,0.68,9.13
50.218733,3.091015,34.57,-0.09,0.04,9.72
50.218733,3.091015,34.57,-2.22,-0.91,10.23
50.218955,3.090691,34.09,-1.09,-0.27,8.58
50.218955,3.090691,34.09,-0.91,1.05,10.7
50.219172,3.090354,33.95,-2.17,-0.39,9.92
50.219172,3.090354,33.95,-3.26,-1.03,7.97
50.219387,3.090016,34.12,-0.77,0.6,9.76
50.219387,3.090016,34.12,-2.06,0.27,10.67
50.219606,3.089684,34.38,-2.13,-0.41,10.44
50.219606,3.089684,34.38,-1.96,-0.81,8.38
50.219826,3.089342,34.52,-0.91,-0.17,10.42
50.219826,3.089342,34.52,-0.93,0.26,10.61
50.220043,3.088988,34.77,-0.67,-0.05,9.91
50.220043,3.088988,34.77,-2.62,0.54,11.85
50.220255,3.088622,34.96,-1.95,-0.09,10.85
50.220255,3.088622,34.96,-0.92,-0.96,10.31
50.220467,3.088262,34.98,-1.33,-0.86,9.62
50.220467,3.088262,34.98,-0.09,-0.54,9.9
50.22067,3.087898,34.13,-0.58,0.84,10.11
50.22067,3.087898,34.13,-1.56,0.06,10.66
50.220865,3.087539,33.58,-0.98,1.08,11.97
50.220865,3.087539,33.58,-2.28,0.78,9.73
50.221053,3.087177,33.44,-2.04,-0.4,10.13
50.221053,3.087177,33.44,-1.81,0.04,11.19
50.221241,3.08681,33.45,-0.51,0.66,8.44
50.221241,3.08681,33.45,-2.12,0.29,10.6
50.221427,3.086441,33.57,-1.85,-0.7,4.22
50.221427,3.086441,33.57,-2.24,0.08,10.27
50.221611,3.086072,33.64,-2.16,-0.88,10.72
50.221611,3.086072,33.64,-1.03,-0.57,9.35
50.221786,3.085689,33.6,-1.59,0.02,9.13
50.221786,3.085689,33.6,-1.54,-0.34,10.63
50.221958,3.0853,33.53,-1.3,-0.16,9.46
50.221958,3.0853,33.53,-1.63,-0.38,10.73
50.222124,3.084907,33.08,0.07,1.15,8.82
50.222124,3.084907,33.08,-2.39,-1.29,8.1
50.222288,3.08452,32.84,-1.92,0.61,9.2
50.222288,3.08452,32.84,-0.61,0.36,10.76
50.222448,3.084131,32.74,-1.23,-0.2,9.27
50.222603,3.083742,32.4,-2.44,-0.21,9.08
50.222603,3.083742,32.4,-2.27,-0.67,11.25
50.222753,3.083351,32.3,-1.72,0.42,10.1
50.222753,3.083351,32.3,-1.05,-0.11,9.87
50.222903,3.08296,32.58,-1.14,0.82,12.05
50.222903,3.08296,32.58,-1.92,0.17,9.43
50.223052,3.082566,32.64,-2.58,0.29,10.79
50.223052,3.082566,32.64,-0.2,0.64,9.49
50.2232,3.082173,32.58,-1.53,0.78,9.83
50.2232,3.082173,32.58,-0.8,0.61,11.08
50.223344,3.081777,32.5,-2.4,-0.42,9.86
50.223344,3.081777,32.5,-1.85,0.0,9.14
50.223481,3.08138,32.36,-1.59,-0.33,9.74
50.223481,3.08138,32.36,-0.92,0.84,10.03
50.223617,3.08098,32.29,-1.81,-0.09,9.73
50.223617,3.08098,32.29,-2.6,0.09,9.93
50.223758,3.08058,32.25,-2.18,-0.56,10.54
50.223758,3.08058,32.25,-1.83,-0.91,9.22
50.223896,3.08018,32.31,-0.98,-0.47,10.07
50.223896,3.08018,32.31,-1.56,-0.35,9.5
50.224024,3.079774,32.35,-1.14,0.22,9.83
50.224024,3.079774,32.35,-1.75,-1.03,9.67
50.224145,3.079363,32.3,-1.88,-0.89,10.41
50.224145,3.079363,32.3,-2.08,-0.08,10.11
50.224262,3.078951,32.3,-2.06,0.16,8.88
50.224262,3.078951,32.3,-1.03,0.87,10.18
50.224376,3.078531,32.63,-1.07,0.46,9.16
50.224376,3.078531,32.63,-1.71,0.92,11.26
50.224493,3.07811,32.55,-1.97,-0.29,10.55
50.224493,3.07811,32.55,-2.7,-0.42,9.66
50.224603,3.077687,32.6,-1.45,-0.36,8.57
50.224603,3.077687,32.6,-1.7,0.04,9.49
50.224701,3.077252,32.76,-2.46,-0.6,10.52
50.224701,3.077252,32.76,-1.68,0.48,10.58
50.224799,3.076818,32.88,-1.3,1.04,11.56
50.224799,3.076818,32.88,-2.15,0.57,9.61
50.224896,3.076381,32.98,-2.01,0.17,9.66
50.224896,3.076381,32.98,-1.69,0.48,10.29
50.224988,3.075943,33.14,-2.55,-1.02,10.04
50.224988,3.075943,33.14,-0.66,0.29,9.4
50.225079,3.075501,33.21,-2.35,-0.83,9.73
50.225165,3.075054,33.25,-1.04,0.11,9.69
50.225165,3.075054,33.25,-1.14,0.77,10.97
50.225254,3.074607,33.31,-1.63,0.15,11.13
50.225254,3.074607,33.31,-1.54,-1.15,9.65
50.225336,3.074156,33.32,-2.1,-0.5,10.24
50.225336,3.074156,33.32,-0.69,1.03,10.29
50.225416,3.073702,33.42,-1.45,0.55,9.42
50.225416,3.073702,33.42,-0.83,-0.09,9.25
50.225497,3.07325,33.53,-2.06,-0.64,9.52
50.225497,3.07325,33.53,-1.41,-0.58,9.14
50.225575,3.072795,33.67,-2.86,-0.82,10.09
50.225575,3.072795,33.67,-1.4,0.61,10.05
50.225655,3.072337,33.74,-3.06,-2.3,8.96
50.225655,3.072337,33.74,-1.79,-0.69,9.6
50.225732,3.071877,33.87,-1.25,-1.11,8.59
50.225732,3.071877,33.87,-1.64,-0.03,9.38
50.225806,3.071417,33.9,-0.63,0.43,10.37
50.225806,3.071417,33.9,-1.59,-0.16,9.4
50.225877,3.070954,33.88,-2.53,-0.45,10.66
50.225877,3.070954,33.88,-1.16,-0.06,9.52
50.225947,3.070493,33.77,-3.11,-1.54,9.78
50.225947,3.070493,33.77,-0.76,0.22,12.08
50.226014,3.070032,33.63,-0.84,-0.29,9.1
50.226014,3.070032,33.63,-0.63,0.81,9.79
50.226082,3.069575,33.55,-1.74,0.21,8.83
50.226082,3.069575,33.55,-1.7,-0.02,8.91
50.226153,3.069116,33.52,-1.82,-1.0,9.95
50.226153,3.069116,33.52,-1.08,0.49,10.71
50.226226,3.068659,33.44,-1.22,0.86,9.17
50.226226,3.068659,33.44,-0.69,0.21,8.61
50.226298,3.068208,33.4,-2.43,-0.43,9.78
50.226298,3.068208,33.4,-0.75,0.85,10.06
50.226367,3.067754,33.41,-1.75,0.11,9.92
50.226367,3.067754,33.41,-1.13,-0.38,8.96
50.226439,3.0673,33.41,-2.77,-1.37,10.19
50.226439,3.0673,33.41,-1.3,0.28,9.81
50.226513,3.066844,33.4,-2.09,0.02,10.16
50.226513,3.066844,33.4,-1.29,-0.8,11.16
50.226585,3.066388,33.38,-0.1,-0.54,9.18
50.226585,3.066388,33.38,-1.51,-1.23,9.17
50.226656,3.065936,32.87,-1.52,-0.91,8.71
50.226729,3.065492,32.4,-1.09,-0.06,8.46
50.226729,3.065492,32.4,-0.82,1.19,10.43
50.226803,3.065059,32.08,-0.88,0.06,9.21
50.226803,3.065059,32.08,-0.69,0.44,11.8
50.226876,3.064628,31.95,-1.84,-0.71,9.97
50.226876,3.064628,31.95,-1.43,-0.9,10.68
50.226951,3.064204,31.98,-1.49,-1.26,8.95
50.226951,3.064204,31.98,-0.57,-0.96,8.71
50.227025,3.063773,32.0,-2.56,-0.89,9.82
50.227025,3.063773,32.0,-2.03,0.26,10.03
50.227097,3.06334,31.99,-1.7,0.2,10.35
50.227097,3.06334,31.99,-1.84,-0.62,10.31
50.227168,3.062905,32.03,-2.49,-0.82,11.49
50.227168,3.062905,32.03,-1.13,-0.28,8.26
50.227243,3.062474,31.73,-1.35,0.05,9.36
50.227243,3.062474,31.73,-1.04,0.17,10.16
50.227318,3.062045,31.45,-2.21,-1.12,10.16
50.227318,3.062045,31.45,-1.55,-0.64,9.69
50.227395,3.06162,31.44,-0.83,0.6,9.49
50.227395,3.06162,31.44,-0.7,0.21,9.84
50.227475,3.061193,31.57,-1.15,-0.82,10.41
50.227475,3.061193,31.57,-1.1,1.27,10.32
50.227555,3.060768,31.75,-1.74,0.19,10.79
50.227555,3.060768,31.75,-2.77,-0.86,8.86
50.227628,3.060336,32.09,-2.29,-0.9,8.89
50.227628,3.060336,32.09,-1.61,0.08,10.74
50.227706,3.059895,32.49,-2.19,-0.07,9.03
50.227706,3.059895,32.49,-0.91,0.01,7.52
50.227783,3.059455,33.04,-2.81,0.14,9.36
50.227783,3.059455,33.04,-3.03,-0.09,9.49
50.227868,3.05901,33.52,-1.22,0.04,9.25
50.227868,3.05901,33.52,-1.22,-0.01,9.4
50.227957,3.05856,34.03,-1.16,0.46,8.44
50.227957,3.05856,34.03,0.05,1.15,12.4
50.228057,3.058107,33.84,-1.63,0.32,10.98
50.228057,3.058107,33.84,-0.23,0.19,9.62
50.228157,3.057663,33.48,-1.77,0.09,10.1
50.228157,3.057663,33.48,-1.5,-0.08,9.14
50.228258,3.057223,33.47,-2.12,-1.03,9.99
50.228258,3.057223,33.47,-0.78,1.12,11.49
50.228367,3.056786,33.61,-1.56,0.75,9.29
50.228478,3.056347,33.8,-0.22,0.68,9.03
50.228478,3.056347,33.8,-0.57,1.02,8.86
50.22859,3.055905,33.92,-2.18,-0.61,10.46
50.22859,3.055905,33.92,-0.54,-0.11,10.36
50.228704,3.055461,34.0,-1.81,0.73,9.79
50.228704,3.055461,34.0,-2.38,-0.3,9.55
50.22882,3.055019,34.07,-1.8,-0.58,9.57
50.22882,3.055019,34.07,-1.7,0.06,11.1
50.228938,3.054579,34.11,-0.58,0.67,9.55
50.228938,3.054579,34.11,-1.02,-0.43,11.33
50.229061,3.05414,34.2,-1.39,0.44,10.65
50.229061,3.05414,34.2,-2.19,0.02,9.62
50.229186,3.053703,34.3,-0.3,0.94,9.62
50.229186,3.053703,34.3,-0.28,0.71,10.28
50.22931,3.053266,34.1,-2.2,-0.36,9.42
50.22931,3.053266,34.1,-1.02,0.86,8.86
50.229436,3.052831,33.87,-0.54,-0.45,9.14
50.229436,3.052831,33.87,-0.97,0.76,8.63
50.229561,3.052399,33.7,-1.49,-0.36,8.6
50.229561,3.052399,33.7,-1.85,-0.31,9.92
50.229691,3.051972,33.73,-1.79,-0.81,9.46
50.229691,3.051972,33.73,-1.73,0.15,9.81
50.229828,3.05155,33.74,-2.1,-0.6,9.9
50.229828,3.05155,33.74,-0.71,0.55,10.16
50.229964,3.051125,33.64,-1.4,0.12,8.59
50.229964,3.051125,33.64,-1.06,-0.57,9.71
50.230104,3.050708,33.6,-1.78,0.35,10.18
50.230104,3.050708,33.6,-1.14,-0.03,8.65
50.230248,3.050295,33.57,-2.39,-0.37,10.82
50.230248,3.050295,33.57,-0.24,1.5,10.81
50.230393,3.049882,33.67,-0.37,0.22,9.23
50.230393,3.049882,33.67,-1.47,0.35,9.51
50.23054,3.04947,33.68,-1.09,0.16,9.58
50.23054,3.04947,33.68,-1.88,-0.59,9.56
50.230689,3.049059,33.72,-0.38,0.96,10.39
50.230689,3.049059,33.72,-2.59,-1.69,10.19
50.230843,3.048649,33.8,-1.01,0.65,9.52
50.230843,3.048649,33.8,-1.43,-0.68,8.67
50.230991,3.048236,33.82,-1.76,-0.11,9.76
50.230991,3.048236,33.82,-0.46,0.44,9.88
50.231141,3.04782,33.92,-2.97,-0.65,10.87
50.231141,3.04782,33.92,-1.12,1.18,9.39
50.231297,3.04741,33.94,-0.95,-0.35,9.57
50.231456,3.047003,33.96,-2.18,-0.41,9.94
50.231456,3.047003,33.96,-0.96,1.14,10.38
50.231618,3.0466,33.99,-1.59,0.44,9.35
50.231618,3.0466,33.99,-1.45,-0.25,8.4
50.231782,3.0462,33.95,-1.03,0.8,11.03
50.231782,3.0462,33.95,-0.38,0.87,9.91
50.231945,3.045793,33.88,-0.92,0.86,10.18
50.231945,3.045793,33.88,-1.35,-0.61,9.14
50.232109,3.045395,33.78,-1.99,0.04,10.59
50.232109,3.045395,33.78,-1.32,-0.65,9.02
50.232275,3.044999,33.76,-1.88,-0.12,10.42
50.232275,3.044999,33.76,-3.18,0.27,9.04
50.232439,3.044599,33.96,-1.03,1.64,9.4
50.232439,3.044599,33.96,-2.36,-1.12,8.94
50.23261,3.044205,34.12,-2.16,0.15,10.14
50.23261,3.044205,34.12,-1.03,1.3,11.29
50.232782,3.043812,33.69,-2.31,-0.6,10.37
50.232782,3.043812,33.69,-2.58,-0.45,9.02
50.232957,3.043422,34.07,-0.82,0.9,10.89
50.232957,3.043422,34.07,-1.77,-0.38,9.73
50.233135,3.043028,34.1,-2.56,-1.1,10.15
50.233135,3.043028,34.1,-1.1,0.7,10.23
50.233312,3.042638,34.09,-1.41,-0.41,9.45
50.233312,3.042638,34.09,-2.68,-0.55,10.31
50.23349,3.042248,33.98,-0.98,1.02,10.71
50.23349,3.042248,33.98,-1.06,-0.07,8.86
50.233667,3.041861,33.94,-0.61,-0.15,9.44
50.233667,3.041861,33.94,-1.02,0.45,10.9
50.233847,3.041472,33.85,-1.41,-0.04,10.35
50.233847,3.041472,33.85,-2.39,-0.82,10.45
50.234024,3.041085,33.77,-1.37,0.56,9.48
50.234024,3.041085,33.77,-3.19,-0.96,10.86
50.234198,3.040698,33.72,-0.71,0.89,9.35
50.234198,3.040698,33.72,-2.0,-0.59,8.9
50.234371,3.040309,33.7,-0.34,0.75,10.7
50.234371,3.040309,33.7,-1.31,-0.82,10.76
50.234546,3.039924,33.34,-0.41,-0.28,8.16
50.234546,3.039924,33.34,-0.58,-0.4,9.74
50.234715,3.039543,32.86,-1.24,0.05,11.39
50.234715,3.039543,32.86,-2.0,-0.28,10.36
50.234882,3.039169,32.55,-1.14,0.87,11.67
50.235049,3.038797,32.63,-1.74,-0.2,10.4
50.235049,3.038797,32.63,-1.34,0.07,9.87
50.235218,3.038425,32.83,-1.13,0.3,9.1
50.235218,3.038425,32.83,-0.84,0.23,9.83
50.23539,3.038051,32.94,-1.65,-0.21,9.81
50.23539,3.038051,32.94,-0.44,-0.35,8.69
50.235568,3.037682,33.19,-0.55,0.4,9.95
50.235568,3.037682,33.19,-2.16,-0.05,10.1
50.235748,3.037311,33.31,-1.13,0.77,10.24
50.235748,3.037311,33.31,-1.36,0.19,9.04
50.235929,3.036941,33.4,-0.95,0.81,9.66
50.235929,3.036941,33.4,-2.4,-0.05,10.57
50.236114,3.036573,33.56,0.05,0.66,10.42
50.236114,3.036573,33.56,-1.49,-0.23,8.7
50.236303,3.036209,33.49,-0.67,0.12,9.32
50.236303,3.036209,33.49,-2.42,-0.68,10.88
50.236493,3.035846,33.5,-1.01,-0.05,9.35
50.236493,3.035846,33.5,-2.07,0.33,10.76
50.236687,3.035486,33.62,-0.41,1.65,11.07
50.236687,3.035486,33.62,-2.36,0.05,10.53
50.236882,3.035127,33.79,-1.03,1.85,10.07
50.236882,3.035127,33.79,-0.71,0.37,8.86
50.237082,3.034772,33.92,-2.52,0.23,10.59
50.237082,3.034772,33.92,-0.32,0.57,10.06
50.237287,3.034412,33.89,-0.72,0.79,10.25
50.237287,3.034412,33.89,-2.22,-0.32,10.43
50.237498,3.034059,33.92,-1.31,-0.25,9.3
50.237498,3.034059,33.92,-1.86,0.0,10.82
50.237717,3.033712,34.08,-2.46,0.97,10.05
50.237717,3.033712,34.08,-1.97,-0.76,9.96
50.237936,3.033369,34.23,-0.3,1.05,10.48
50.237936,3.033369,34.23,-2.17,-0.96,9.5
50.238155,3.033031,33.99,0.21,-0.01,11.0
50.238155,3.033031,33.99,-1.92,-1.67,8.65
50.238373,3.032703,33.47,-0.76,0.41,11.7
50.238373,3.032703,33.47,-1.32,0.62,9.96
50.238591,3.032384,33.3,-1.11,0.68,9.59
50.238591,3.032384,33.3,-1.92,0.01,9.77
50.238809,3.032068,33.27,-1.44,0.48,10.22
50.238809,3.032068,33.27,-1.78,0.51,10.76
50.239032,3.031754,33.41,-0.46,0.5,8.84
50.239258,3.031445,33.49,-3.27,0.24,11.67
50.239258,3.031445,33.49,-1.3,1.02,9.93
50.239488,3.031143,33.61,-2.35,-0.23,9.92
50.239488,3.031143,33.61,-1.28,0.37,11.99
50.239719,3.030846,33.64,-2.42,-0.07,10.07
50.239719,3.030846,33.64,-0.28,1.11,10.97
50.239957,3.030556,33.79,-1.96,0.66,10.12
50.239957,3.030556,33.79,-0.45,1.03,10.31
50.240196,3.030264,33.86,-1.93,0.02,9.93
50.240196,3.030264,33.86,-1.31,-0.16,9.35
50.240439,3.029973,33.78,-0.77,0.01,9.14
50.240439,3.029973,33.78,-1.98,-0.03,9.25
50.24068,3.029686,33.94,-1.25,0.77,9.67
50.24068,3.029686,33.94,-2.16,0.68,10.92
50.240929,3.029405,34.03,-2.59,0.06,8.8
50.240929,3.029405,34.03,-1.13,-0.13,10.82
50.24118,3.029126,34.1,-0.99,-0.08,9.62
50.24118,3.029126,34.1,-2.69,-0.89,9.46
50.241435,3.028853,34.19,-2.42,0.21,10.82
50.241435,3.028853,34.19,-0.88,0.78,9.62
50.241685,3.028574,34.28,-0.71,-0.65,8.7
50.241685,3.028574,34.28,-2.02,-0.76,10.53
50.241938,3.028295,34.34,-1.39,-0.11,9.62
50.241938,3.028295,34.34,-1.08,1.1,9.27
50.242189,3.028015,34.35,-0.5,-1.18,9.75
50.242189,3.028015,34.35,-1.53,-0.59,9.95
50.242443,3.027741,33.85,-0.62,1.1,10.57
50.242443,3.027741,33.85,-1.22,-0.07,8.27
50.24269,3.027472,33.67,-2.61,-0.83,10.43
50.24269,3.027472,33.67,-1.85,-0.47,10.42
50.24294,3.027207,33.36,-1.37,-0.28,10.84
50.24294,3.027207,33.36,-0.77,-0.28,9.29
50.243189,3.026948,33.25,-0.75,-0.31,10.48
50.243189,3.026948,33.25,-2.62,-0.37,10.44
50.243437,3.026687,33.12,-1.41,-0.27,8.86
50.243437,3.026687,33.12,-1.13,0.77,10.74
50.243681,3.026427,33.08,-1.81,-0.24,9.0
50.243681,3.026427,33.08,-0.95,0.68,10.77
50.243926,3.026171,33.0,-1.48,0.12,9.93
50.243926,3.026171,33.0,-1.93,-0.02,10.87
50.244174,3.025914,32.94,-1.24,0.11,9.2
50.244174,3.025914,32.94,-0.6,0.52,13.5
50.244426,3.025662,32.75,-2.18,-0.58,9.62
50.244669,3.025406,32.52,-1.18,-0.63,9.17
50.244669,3.025406,32.52,-1.87,-0.53,9.59
50.244905,3.025148,32.4,-1.1,1.08,10.8
50.244905,3.025148,32.4,-1.84,-0.52,10.11
50.245148,3.024894,32.23,-0.86,0.17,9.66
50.245148,3.024894,32.23,-2.1,-0.74,10.58
50.245392,3.024647,32.1,-1.7,-0.62,9.93
50.245392,3.024647,32.1,-1.31,-1.21,11.15
50.245629,3.024399,31.6,-1.16,-0.7,10.29
50.245629,3.024399,31.6,-0.36,-1.31,7.95
50.245862,3.024151,30.89,-1.14,1.1,11.29
50.245862,3.024151,30.89,-1.75,0.04,10.52
50.246096,3.023922,30.66,-1.58,-0.27,9.29
50.246096,3.023922,30.66,-2.22,0.38,9.17
50.246318,3.023673,30.54,-1.7,-0.54,9.85
50.246318,3.023673,30.54,-1.37,0.3,9.84
50.246541,3.023427,30.48,-2.08,0.26,9.88
50.246541,3.023427,30.48,-1.96,0.63,9.03
50.246768,3.023187,30.5,-1.71,-0.8,8.49
50.246768,3.023187,30.5,-1.78,-1.37,10.45
50.246993,3.022949,30.26,-1.58,0.02,9.14
50.246993,3.022949,30.26,-0.31,-0.68,9.86
50.247215,3.022715,29.49,-0.12,-0.1,10.31
50.247215,3.022715,29.49,-0.59,0.72,10.65
50.247432,3.022485,28.77,-1.1,0.32,9.26
50.247432,3.022485,28.77,-1.31,0.38,11.2
50.247638,3.022259,27.94,-0.89,-1.83,9.45
50.247638,3.022259,27.94,-1.83,0.39,10.28
50.247835,3.022034,27.4,-1.73,-0.2,9.02
50.247835,3.022034,27.4,-2.01,-0.91,8.81
50.248035,3.02181,27.44,-1.08,0.74,9.39
50.248035,3.02181,27.44,-2.2,-0.61,9.45
50.248237,3.021587,27.68,-2.28,-0.27,10.25
50.248237,3.021587,27.68,-2.18,-1.32,9.87
50.248437,3.021363,28.11,-1.64,-1.53,9.81
50.248437,3.021363,28.11,-2.11,-1.14,8.76
50.248638,3.021128,28.45,-1.58,0.75,10.04
50.248638,3.021128,28.45,-1.95,-0.64,8.56
50.248842,3.020882,28.84,-2.57,-0.75,8.77
50.249049,3.020632,29.26,-2.1,0.66,10.38
50.249049,3.020632,29.26,-2.27,0.3,9.08
50.249259,3.020384,29.71,-1.89,-0.98,9.38
50.249259,3.020384,29.71,-1.98,0.36,9.94
50.249474,3.020136,30.19,-1.79,0.84,10.2
50.249474,3.020136,30.19,-2.27,0.07,10.01
50.249695,3.019888,30.73,-2.23,-1.56,8.97
50.249695,3.019888,30.73,-1.99,0.7,11.77
50.249921,3.019639,31.21,-2.13,0.24,9.58
50.249921,3.019639,31.21,-1.81,1.42,9.48
50.250156,3.019383,31.7,-2.76,0.12,10.48
50.250156,3.019383,31.7,-1.95,0.12,9.2
50.250397,3.019119,32.17,-1.06,0.72,8.03
50.250397,3.019119,32.17,-0.93,0.25,11.46
50.250636,3.01885,32.62,-2.46,-1.39,10.98
50.250636,3.01885,32.62,-1.87,-0.17,10.57
50.250867,3.018563,32.97,-1.14,-0.34,8.69
50.250867,3.018563,32.97,-2.93,-1.13,9.14
50.251097,3.018272,33.36,-1.77,-0.25,11.87
50.251097,3.018272,33.36,-2.34,-1.43,10.38
50.251326,3.017981,33.76,-1.81,-1.17,9.96
50.251326,3.017981,33.76,-2.41,-0.08,10.64
50.251566,3.017687,33.9,-0.83,0.44,10.29
50.251566,3.017687,33.9,-0.68,-0.3,9.98
50.251807,3.017392,34.18,-1.79,-0.46,9.29
50.251807,3.017392,34.18,-2.41,-1.03,8.73
50.252044,3.017086,34.4,-0.72,0.09,8.56
50.252044,3.017086,34.4,-0.51,-0.46,10.51
50.252278,3.01678,34.65,-0.96,-0.37,10.52
50.252278,3.01678,34.65,-1.72,-1.42,8.86
50.252515,3.016466,34.26,-1.9,-0.73,9.36
50.252515,3.016466,34.26,-0.91,0.77,10.2
50.252747,3.016154,34.44,-1.68,0.06,9.77
50.252747,3.016154,34.44,-1.96,-0.73,9.79
50.25298,3.015839,34.56,-1.0,-0.72,8.84
50.25298,3.015839,34.56,-1.01,-0.67,9.67
50.253211,3.01552,34.16,-2.09,-0.81,10.12
50.253211,3.01552,34.16,-2.57,-2.08,9.55
50.25344,3.015203,33.99,-1.28,-0.6,9.75
50.25344,3.015203,33.99,-0.67,1.02,10.76
50.253664,3.014877,33.83,-2.33,-0.86,9.28
50.253889,3.014555,33.9,-1.15,0.16,11.43
50.253889,3.014555,33.9,-3.07,-1.32,8.94
50.254112,3.014228,34.24,-2.96,-0.96,9.89
50.254112,3.014228,34.24,-2.29,-0.81,9.76
50.254337,3.013895,34.55,-2.4,-0.91,9.49
50.254337,3.013895,34.55,-1.24,-1.04,9.71
50.254568,3.013555,34.73,-1.79,-1.12,9.51
50.254568,3.013555,34.73,-0.82,0.12,10.87
50.254794,3.013215,34.79,-0.42,-0.85,9.69
50.254794,3.013215,34.79,-0.83,0.23,10.69
50.255015,3.012872,34.36,-0.57,-0.12,9.66
50.255015,3.012872,34.36,-1.11,-0.26,10.78
50.255228,3.012527,34.03,-0.84,-1.34,9.55
50.255228,3.012527,34.03,-2.21,-0.43,10.01
50.255437,3.012179,34.11,-1.66,0.6,10.39
50.255437,3.012179,34.11,-1.21,-0.27,8.79
50.255647,3.011826,34.16,-1.09,-0.28,9.5
50.255647,3.011826,34.16,-2.32,-0.85,9.72
50.255855,3.011474,34.31,-0.45,0.45,10.83
50.255855,3.011474,34.31,-0.97,-0.58,8.81
50.256059,3.011121,33.87,-1.18,-0.98,10.28
50.256059,3.011121,33.87,-1.35,-0.22,10.85
50.256261,3.010768,33.77,-1.12,-0.42,8.78
50.256261,3.010768,33.77,-2.44,-1.38,9.54
50.256462,3.010411,33.78,-1.58,-0.02,9.68
50.256462,3.010411,33.78,-2.81,-0.96,11.05
50.25666,3.010056,33.76,-1.58,0.91,10.02
50.25666,3.010056,33.76,-3.09,-0.92,9.51
50.256859,3.009706,33.73,-1.35,0.61,10.43
50.256859,3.009706,33.73,-1.4,-1.08,7.92
50.257055,3.009343,33.87,-2.05,0.06,10.7
50.257055,3.009343,33.87,-1.73,-1.02,8.42
50.257251,3.008979,33.94,-2.07,-1.42,9.24
50.257251,3.008979,33.94,-2.88,-1.04,9.63
50.257447,3.008614,34.09,-1.09,-1.22,10.91
50.257447,3.008614,34.09,-2.28,-0.85,8.83
50.257642,3.008243,34.23,-1.14,-0.02,8.99
50.257642,3.008243,34.23,-0.76,-0.29,10.64
50.257833,3.007866,34.31,-1.47,-0.75,9.41
50.257833,3.007866,34.31,-2.61,-1.4,9.48
50.258021,3.007485,34.39,-1.53,0.45,10.32
50.258207,3.007101,34.44,-1.39,0.91,10.03
50.258207,3.007101,34.44,-0.67,-0.31,9.85
50.25839,3.006713,34.38,-2.17,-0.78,9.45
50.25839,3.006713,34.38,-2.44,-0.18,10.86
50.258578,3.006317,34.53,0.01,0.26,10.96
50.258578,3.006317,34.53,-0.16,-0.19,10.5
50.258759,3.005928,34.03,-0.99,-1.81,9.03
50.258759,3.005928,34.03,-0.12,0.67,9.76
50.258934,3.005541,33.7,-0.96,-0.15,9.48
50.258934,3.005541,33.7,-2.66,-1.41,9.03
50.259098,3.005149,33.87,-0.81,-0.61,9.03
50.259098,3.005149,33.87,-1.6,-0.07,10.41
50.259264,3.004756,34.09,-2.76,-1.53,10.2
50.259264,3.004756,34.09,-0.5,-0.25,9.77
50.259434,3.004362,34.3,-1.33,-0.87,9.54
50.259434,3.004362,34.3,-1.36,0.49,10.86
50.259605,3.003961,34.41,-0.68,-0.34,10.89
50.259605,3.003961,34.41,0.12,0.34,10.85
50.259777,3.003562,33.99,-0.88,-0.48,9.07
50.259777,3.003562,33.99,-0.83,0.87,9.77
50.259943,3.003161,33.75,-0.96,-1.54,8.76
50.259943,3.003161,33.75,-2.06,-0.96,9.62
50.260109,3.002766,33.47,-1.69,0.02,9.85
50.260109,3.002766,33.47,-2.33,-1.16,10.36
50.260277,3.002369,33.44,-1.01,-0.2,9.98
50.260277,3.002369,33.44,-1.95,-1.1,10.27
50.260444,3.001974,33.75,-1.15,-1.09,8.21
50.260444,3.001974,33.75,-2.02,-1.15,9.26
50.260605,3.001573,33.57,-0.91,1.18,10.54
50.260605,3.001573,33.57,-2.09,-1.07,10.22
50.260769,3.001182,33.44,-0.93,1.03,11.43
50.260769,3.001182,33.44,-1.5,-0.41,10.32
50.260933,3.000791,33.36,-0.86,0.22,11.32
50.260933,3.000791,33.36,-2.19,-0.68,9.99
50.261094,3.0004,33.25,-1.18,-0.65,8.04
50.261094,3.0004,33.25,-2.19,-1.15,10.35
50.261251,3.000003,33.16,-2.24,-0.94,10.06
50.261251,3.000003,33.16,-0.95,0.67,10.41
50.261405,2.999604,33.1,-2.27,-1.03,9.42
50.261405,2.999604,33.1,-1.94,-0.55,8.7
50.261564,2.999206,33.09,-0.5,0.81,10.36
50.261725,2.998816,33.03,-2.1,-0.45,9.78
50.261725,2.998816,33.03,-1.07,-0.28,9.42
50.261881,2.998423,33.02,-1.32,-0.82,8.47
50.261881,2.998423,33.02,-1.86,-0.4,9.39
50.262036,2.998027,33.0,-0.82,0.05,9.38
50.262036,2.998027,33.0,-1.68,-1.21,9.54
50.26219,2.997628,32.95,-1.92,-0.7,10.25
50.26219,2.997628,32.95,-0.93,-0.27,8.88
50.262343,2.997231,32.87,-0.97,0.27,10.42
50.262343,2.997231,32.87,-1.75,-0.53,9.7
50.262496,2.996836,32.92,-1.76,-0.09,9.72
50.262496,2.996836,32.92,-0.82,1.0,11.03
50.262651,2.996441,32.91,-1.47,-0.26,10.58
50.262651,2.996441,32.91,-1.0,0.51,10.22
50.262804,2.996049,32.9,-0.55,0.59,9.43
50.262804,2.996049,32.9,-1.84,-0.7,8.6
50.262958,2.995653,32.95,-2.13,-0.92,8.65
50.262958,2.995653,32.95,-0.78,1.04,10.56
50.263114,2.995258,33.02,-1.97,-0.68,10.7
50.263114,2.995258,33.02,-1.0,-0.08,9.18
50.26327,2.994862,33.16,-1.28,0.09,9.89
50.26327,2.994862,33.16,-1.18,0.22,10.2
50.26343,2.994466,33.29,-2.28,-1.29,9.91
50.26343,2.994466,33.29,-2.65,-1.31,9.66
50.26359,2.994068,33.35,-1.03,0.85,10.89
50.26359,2.994068,33.35,-1.92,-0.47,11.08
50.263746,2.993669,33.35,-1.24,-0.44,10.77
50.263746,2.993669,33.35,-1.96,-0.48,9.95
50.263902,2.993269,33.33,-1.07,1.22,11.41
50.263902,2.993269,33.33,-1.58,-0.34,9.2
50.264057,2.992869,33.38,-0.91,0.57,10.66
50.264057,2.992869,33.38,-2.51,-0.81,9.34
50.26421,2.992466,33.46,-1.76,0.2,9.04
50.26421,2.992466,33.46,-1.27,-0.75,9.4
50.264364,2.992062,33.54,-1.27,-1.55,8.82
50.264364,2.992062,33.54,-1.68,-0.71,10.83
50.264519,2.991658,33.61,-1.03,-0.36,9.79
50.264519,2.991658,33.61,-1.98,-1.34,9.86
50.264675,2.991255,33.52,-1.2,-0.13,10.72
50.264675,2.991255,33.52,-1.77,0.08,9.64
50.26483,2.990855,33.39,-1.33,-1.06,8.24
50.26483,2.990855,33.39,-2.18,-0.69,10.28
50.264985,2.990454,33.34,-1.96,0.88,10.57
50.26514,2.990054,33.32,0.3,1.09,9.09
50.26514,2.990054,33.32,-0.36,-0.32,10.4
50.265297,2.989661,32.71,-2.09,-0.09,10.6
50.265297,2.989661,32.71,-0.38,0.91,9.97
50.26545,2.989273,32.21,-0.75,-0.74,9.3
50.26545,2.989273,32.21,-0.98,1.09,11.18
50.265601,2.988887,32.24,-1.86,-1.47,8.96
50.265601,2.988887,32.24,-1.68,-1.23,9.71
