Location-lat,Location-long,Speed,Accelerometer-X,Accelerometer-Y,Accelerometer-Z
50.504912,2.648183,33.85,-0.75,1.85,10.8
50.504783,2.648609,33.98,0.15,1.02,9.26
50.504783,2.648609,33.98,-1.18,2.15,8.52
50.504652,2.649036,34.15,-0.83,2.09,9.64
50.504652,2.649036,34.15,-1.61,1.2,9.2
50.504525,2.649475,34.28,-0.17,2.06,9.25
50.504525,2.649475,34.28,-1.28,1.76,9.47
50.504392,2.649912,34.34,-0.35,1.43,8.3
50.504392,2.649912,34.34,-0.7,0.22,9.66
50.504263,2.650351,34.01,-1.27,0.61,9.06
50.504263,2.650351,34.01,-0.62,1.03,9.77
50.504137,2.650786,33.57,-0.75,2.19,9.55
50.504137,2.650786,33.57,1.63,0.71,10.54
50.504011,2.651214,33.48,-0.47,0.44,10.19
50.504011,2.651214,33.48,-1.72,1.7,9.5
50.503883,2.651644,33.51,-0.21,2.07,8.16
50.503883,2.651644,33.51,-0.73,1.99,13.06
50.503754,2.652072,33.57,-1.33,0.46,8.3
50.503754,2.652072,33.57,0.65,1.19,9.3
50.503625,2.652495,33.62,-0.91,0.44,9.41
50.503625,2.652495,33.62,-0.59,3.41,10.16
50.503501,2.652931,33.73,-1.26,0.82,9.0
50.503501,2.652931,33.73,0.12,2.15,10.14
50.503373,2.653363,33.94,-0.38,1.63,11.85
50.503373,2.653363,33.94,-0.86,0.41,9.61
50.503242,2.6538,33.95,-0.93,1.26,9.47
50.503114,2.654238,34.21,0.12,2.08,11.02
50.503114,2.654238,34.21,-0.48,0.53,8.28
50.502984,2.654677,34.26,-0.23,1.66,8.94
50.502984,2.654677,34.26,1.06,1.54,9.54
50.502854,2.655116,34.26,1.12,1.25,9.7
50.502854,2.655116,34.26,-0.76,0.97,8.71
50.502723,2.655555,34.34,-1.38,2.08,11.09
50.502723,2.655555,34.34,-1.37,2.25,11.43
50.502591,2.655994,34.37,1.5,1.69,9.45
50.502591,2.655994,34.37,-0.59,1.88,9.43
50.502461,2.656432,34.43,-0.87,1.96,9.48
50.502461,2.656432,34.43,-1.32,1.92,10.26
50.502328,2.65687,34.15,-1.15,0.86,7.9
50.502328,2.65687,34.15,-0.58,1.44,10.86
50.502194,2.657303,34.2,-1.24,2.03,10.72
50.502194,2.657303,34.2,0.83,1.35,10.33
50.502062,2.657738,34.18,-0.17,0.62,9.9
50.502062,2.657738,34.18,0.04,2.43,8.95
50.501934,2.658178,34.19,-1.51,2.65,10.46
50.501934,2.658178,34.19,-1.16,0.62,9.44
50.501804,2.658618,34.2,-0.66,1.96,10.73
50.501804,2.658618,34.2,-1.57,2.5,8.87
50.501673,2.659055,34.26,0.85,1.76,9.77
50.501673,2.659055,34.26,-1.63,0.7,8.61
50.501542,2.659491,34.17,-0.46,2.12,9.15
50.501542,2.659491,34.17,1.59,1.02,8.65
50.501412,2.659923,34.0,0.32,1.09,8.83
50.501412,2.659923,34.0,-0.72,2.16,10.95
50.501283,2.660354,33.89,-0.97,1.0,9.67
50.501283,2.660354,33.89,-1.01,2.17,8.83
50.501153,2.660786,33.92,0.1,1.37,10.56
50.501153,2.660786,33.92,0.14,0.93,9.02
50.501022,2.661216,34.03,-1.0,2.52,9.6
50.501022,2.661216,34.03,-1.47,1.96,10.4
50.500889,2.661647,34.12,1.19,1.23,10.74
50.500889,2.661647,34.12,-0.04,2.84,9.63
50.500757,2.662083,34.35,-2.35,2.47,9.51
50.500757,2.662083,34.35,-1.03,2.37,9.81
50.500626,2.662522,34.5,-1.53,0.96,7.42
50.500626,2.662522,34.5,-0.77,0.12,8.17
50.500493,2.662963,34.71,-1.49,0.23,8.58
50.500493,2.662963,34.71,0.41,2.28,9.52
50.50036,2.663409,34.87,-1.64,1.27,8.73
50.50023,2.663857,34.46,-0.84,1.11,9.32
50.50023,2.663857,34.46,0.4,-0.02,10.7
50.500098,2.664287,33.84,-0.69,1.91,10.87
50.500098,2.664287,33.84,0.23,0.68,9.49
50.499969,2.664719,33.52,-0.24,2.3,8.84
50.499969,2.664719,33.52,-0.21,1.27,10.66
50.499844,2.665152,33.68,-0.06,2.01,9.05
50.499844,2.665152,33.68,-0.68,1.39,10.41
50.499716,2.665581,33.8,-0.94,0.8,8.74
50.499716,2.665581,33.8,-0.95,1.85,9.58
50.499585,2.666011,33.98,1.02,1.58,9.67
50.499585,2.666011,33.98,0.11,0.56,10.18
50.499454,2.666441,34.05,-1.3,1.57,11.2
50.499454,2.666441,34.05,0.74,0.23,11.02
50.499324,2.666873,33.96,-1.21,0.59,9.72
50.499324,2.666873,33.96,-1.01,-0.28,9.75
50.499196,2.667301,33.06,-1.37,1.52,9.57
50.499196,2.667301,33.06,-0.63,1.49,8.8
50.49907,2.667724,32.73,-0.82,1.15,10.6
50.49907,2.667724,32.73,0.23,0.57,9.12
50.498947,2.668145,32.67,-0.61,1.99,10.66
50.498947,2.668145,32.67,-0.14,2.23,9.92
50.498824,2.668566,32.68,0.6,1.48,10.85
50.498824,2.668566,32.68,0.1,2.34,12.02
50.498698,2.668982,32.74,0.62,0.84,8.14
50.498698,2.668982,32.74,0.0,1.44,8.53
50.498567,2.669397,32.87,0.71,1.17,11.85
50.498567,2.669397,32.87,-1.54,1.73,9.05
50.49843,2.669815,33.02,-0.82,0.11,8.92
50.49843,2.669815,33.02,-0.41,1.58,10.51
50.498295,2.67023,33.08,0.12,0.88,9.57
50.498295,2.67023,33.08,1.57,1.91,11.45
50.498157,2.670646,33.16,0.32,1.29,9.7
50.498157,2.670646,33.16,0.81,0.89,10.26
50.498018,2.671059,33.06,-0.94,1.42,10.64
50.498018,2.671059,33.06,-0.92,2.1,9.6
50.497876,2.671465,33.08,0.8,1.21,10.21
50.497876,2.671465,33.08,-0.56,1.57,9.72
50.497729,2.67187,33.1,-0.83,1.77,10.27
50.497729,2.67187,33.1,-0.85,1.67,9.74
50.497579,2.672272,33.09,0.2,2.58,9.28
50.497579,2.672272,33.09,0.19,1.7,10.28
50.497427,2.672672,33.12,1.51,1.41,10.28
50.49727,2.673073,33.2,0.21,1.23,10.45
50.49727,2.673073,33.2,0.28,1.73,10.07
50.497111,2.673474,33.26,-0.82,1.81,10.15
50.497111,2.673474,33.26,0.21,1.49,9.01
50.496949,2.673866,33.33,-1.14,2.2,10.45
50.496949,2.673866,33.33,-0.31,2.27,10.23
50.496785,2.674262,33.4,0.66,1.5,11.54
50.496785,2.674262,33.4,0.44,0.36,10.51
50.496622,2.674659,33.54,-0.66,1.8,9.42
50.496622,2.674659,33.54,0.52,1.96,10.86
50.496452,2.67505,33.65,-1.02,2.16,9.77
50.496452,2.67505,33.65,1.69,1.68,10.33
50.49628,2.675441,33.75,-1.21,2.11,9.62
50.49628,2.675441,33.75,1.08,1.68,8.8
50.496104,2.675823,33.77,0.01,1.53,9.64
50.496104,2.675823,33.77,-0.64,2.46,10.25
50.495925,2.676203,33.76,0.32,1.88,10.23
50.495925,2.676203,33.76,-0.53,2.58,10.97
50.49574,2.67658,33.58,0.29,1.05,9.24
50.49574,2.67658,33.58,-0.94,2.41,10.62
50.495558,2.676955,33.61,0.66,1.16,9.17
50.495558,2.676955,33.61,-0.93,2.87,9.57
50.495372,2.67733,33.87,-0.23,1.08,9.46
50.495372,2.67733,33.87,0.4,1.87,10.18
50.495183,2.677701,33.7,-0.59,1.81,11.77
50.495183,2.677701,33.7,-0.39,1.16,8.18
50.494994,2.678068,33.85,-0.45,1.56,10.73
50.494994,2.678068,33.85,-0.67,1.01,9.0
50.494802,2.678441,33.83,0.38,1.36,8.82
50.494802,2.678441,33.83,1.56,1.47,10.75
50.494609,2.678811,33.78,-0.38,0.9,9.68
50.494609,2.678811,33.78,-0.83,0.85,9.8
50.494415,2.679177,33.71,0.34,1.83,10.95
50.494415,2.679177,33.71,-0.97,1.0,10.09
50.494208,2.67952,33.62,-0.63,0.73,8.59
50.494005,2.679881,33.5,1.96,1.01,11.57
50.494005,2.679881,33.5,0.89,1.01,9.32
50.493799,2.680239,33.49,-0.94,1.63,10.34
50.493799,2.680239,33.49,0.45,1.37,10.02
50.493594,2.680589,33.49,-0.19,1.45,9.44
50.493594,2.680589,33.49,0.32,1.58,10.02
50.493379,2.680937,33.54,0.6,0.38,8.71
50.493379,2.680937,33.54,0.58,1.62,9.3
50.493169,2.681283,33.59,-0.92,2.12,9.29
50.493169,2.681283,33.59,-0.04,2.35,9.6
50.492954,2.681628,33.61,-0.31,1.82,10.65
50.492954,2.681628,33.61,-0.3,0.89,8.4
50.492742,2.681965,33.68,-0.1,3.09,9.78
50.492742,2.681965,33.68,-0.87,0.79,8.79
50.492526,2.682297,33.75,-0.94,3.16,9.28
50.492526,2.682297,33.75,-1.16,1.73,11.2
50.49231,2.682632,33.81,-0.21,2.63,8.54
50.49231,2.682632,33.81,-1.26,2.06,11.48
50.492091,2.682967,33.8,1.1,1.76,9.73
50.492091,2.682967,33.8,-1.25,1.37,8.83
50.491875,2.683302,33.91,2.36,1.39,10.41
50.491875,2.683302,33.91,0.38,0.78,9.36
50.491659,2.683633,33.86,-0.13,2.53,9.39
50.491659,2.683633,33.86,-1.01,0.76,9.44
50.491442,2.683961,33.99,-0.43,2.6,11.03
50.491442,2.683961,33.99,-1.19,1.87,9.0
50.491213,2.684277,33.88,0.22,0.45,10.71
50.491213,2.684277,33.88,-0.58,2.78,9.22
50.490981,2.684587,33.78,2.21,0.61,9.68
50.490981,2.684587,33.78,-0.68,2.52,9.75
50.490747,2.684887,33.36,0.73,1.06,10.47
50.490747,2.684887,33.36,-0.77,0.9,10.33
50.490508,2.685181,33.38,-0.05,2.4,9.8
50.490508,2.685181,33.38,0.3,2.05,10.22
50.490269,2.685474,33.47,1.47,1.0,9.66
50.490269,2.685474,33.47,0.09,0.47,10.13
50.49003,2.685764,33.42,1.22,0.77,10.79
50.49003,2.685764,33.42,0.44,1.47,9.01
50.489791,2.68605,33.45,-0.36,1.05,11.88
50.489791,2.68605,33.45,0.12,2.24,10.09
50.489549,2.686331,33.48,0.48,1.21,8.85
50.489307,2.686612,33.35,-0.86,1.88,7.68
50.489307,2.686612,33.35,-0.67,0.79,8.91
50.489067,2.686887,33.3,-0.63,1.33,11.62
50.489067,2.686887,33.3,0.78,2.55,9.9
50.488819,2.687156,33.3,0.21,1.44,9.47
50.488819,2.687156,33.3,1.1,2.64,9.25
50.488572,2.687421,33.32,0.6,0.73,9.52
50.488572,2.687421,33.32,-1.06,2.19,10.95
50.488325,2.687682,33.27,-0.84,0.96,7.93
50.488325,2.687682,33.27,0.41,0.96,10.63
50.488078,2.687934,33.34,-0.14,0.99,10.45
50.488078,2.687934,33.34,-0.04,0.98,10.71
50.487827,2.688185,33.38,-1.32,1.88,8.78
50.487827,2.688185,33.38,0.81,0.79,8.86
50.487573,2.688432,33.37,-0.14,2.03,10.23
50.487573,2.688432,33.37,-0.45,0.91,9.65
50.487315,2.688671,33.35,-0.19,2.01,11.09
50.487315,2.688671,33.35,-0.63,0.02,9.8
50.487057,2.688904,33.32,1.59,1.86,10.1
50.487057,2.688904,33.32,0.73,0.91,10.26
50.486795,2.689132,33.28,0.32,0.5,10.95
50.486795,2.689132,33.28,-0.01,1.31,10.74
50.48653,2.68936,33.23,-0.26,0.89,10.71
50.48653,2.68936,33.23,-1.17,1.89,9.61
50.486269,2.689586,33.16,-0.14,1.49,8.6
50.486269,2.689586,33.16,1.63,0.86,10.3
50.486005,2.689815,33.1,0.91,2.17,10.46
50.486005,2.689815,33.1,1.1,1.61,10.44
50.485745,2.690036,32.97,1.26,1.86,11.23
50.485745,2.690036,32.97,-0.1,2.26,9.1
50.485484,2.690249,32.95,0.66,2.03,8.64
50.485484,2.690249,32.95,1.76,1.38,10.1
50.485221,2.690457,32.98,0.05,2.16,9.97
50.485221,2.690457,32.98,-1.36,1.46,9.81
50.484957,2.690663,32.89,2.01,1.74,10.82
50.484957,2.690663,32.89,0.65,2.44,9.77
50.484692,2.690868,32.92,-0.5,1.1,8.65
50.484692,2.690868,32.92,-0.89,1.57,8.84
50.484425,2.691067,32.91,-1.01,2.18,10.19
50.484425,2.691067,32.91,0.03,-0.14,11.37
50.484156,2.691261,32.96,-0.46,1.59,9.5
50.484156,2.691261,32.96,-0.98,2.3,10.69
50.483885,2.691448,33.0,0.48,1.2,10.08
50.483614,2.691626,32.96,0.39,1.35,10.16
50.483614,2.691626,32.96,-1.92,2.44,10.19
50.48334,2.691808,32.97,-0.12,1.55,9.25
50.48334,2.691808,32.97,-0.41,1.2,8.66
50.483065,2.691986,32.94,-1.03,1.36,11.95
50.483065,2.691986,32.94,-0.31,1.49,10.21
50.482788,2.692163,32.97,-0.63,1.13,10.1
50.482788,2.692163,32.97,-1.94,1.95,10.1
50.482514,2.692328,33.03,0.67,1.35,9.55
50.482514,2.692328,33.03,-0.62,2.04,8.06
50.482241,2.692486,33.01,-1.02,1.59,9.16
50.482241,2.692486,33.01,0.78,1.36,8.62
50.481967,2.692637,32.97,-1.48,1.29,9.04
50.481967,2.692637,32.97,-1.18,1.58,11.27
50.481692,2.69279,32.94,1.1,0.8,9.52
50.481692,2.69279,32.94,2.08,1.08,9.34
50.481414,2.692945,32.9,-0.19,1.86,11.0
50.481414,2.692945,32.9,-0.68,1.5,10.18
50.481133,2.693095,32.9,1.87,1.17,9.64
50.481133,2.693095,32.9,0.89,2.16,10.9
50.480848,2.693246,32.97,0.79,2.78,9.7
50.480848,2.693246,32.97,0.54,1.47,10.02
50.480565,2.693381,33.0,-0.33,2.15,9.17
50.480565,2.693381,33.0,-0.39,1.51,8.84
50.480279,2.693516,32.93,0.22,1.26,9.62
50.480279,2.693516,32.93,-1.88,2.55,10.15
50.479991,2.693647,33.03,0.83,1.64,10.58
50.479991,2.693647,33.03,1.54,0.68,10.05
50.479705,2.693773,32.98,0.23,2.26,8.83
50.479705,2.693773,32.98,0.44,2.29,9.14
50.47942,2.693889,32.92,0.91,1.19,9.27
50.47942,2.693889,32.92,-0.58,1.65,10.52
50.479133,2.694006,32.88,0.09,0.96,10.16
50.479133,2.694006,32.88,-1.46,1.11,9.45
50.478844,2.694117,32.89,-0.28,1.82,9.56
50.478844,2.694117,32.89,0.72,1.14,8.77
50.478555,2.694221,32.91,-0.5,1.58,10.07
50.478555,2.694221,32.91,-0.97,1.28,11.0
50.478266,2.694326,32.94,-1.79,1.82,9.3
50.478266,2.694326,32.94,-1.05,0.76,9.54
50.477977,2.694426,33.0,-1.48,1.76,10.5
50.477977,2.694426,33.0,-0.27,2.73,9.62
50.477686,2.694519,33.02,-1.14,0.99,9.52
50.477396,2.694616,33.02,-1.29,1.48,10.7
50.477396,2.694616,33.02,0.61,2.13,8.06
50.477103,2.694706,33.12,0.97,1.36,10.82
50.477103,2.694706,33.12,0.25,2.23,9.24
50.476809,2.694785,33.17,-0.1,0.8,7.89
50.476809,2.694785,33.17,1.63,1.16,9.33
50.476514,2.694858,33.09,-0.49,1.46,9.41
50.476514,2.694858,33.09,1.26,1.76,11.7
50.476221,2.694921,33.12,-0.82,0.66,10.83
50.476221,2.694921,33.12,-0.29,1.59,8.98
50.475923,2.694992,33.13,0.53,1.52,10.18
50.475923,2.694992,33.13,-0.61,1.77,8.97
50.475625,2.695058,33.13,0.11,1.7,9.52
50.475625,2.695058,33.13,-0.95,1.91,9.85
50.475327,2.69512,33.2,0.52,2.37,9.97
50.475327,2.69512,33.2,1.06,1.38,7.78
50.475029,2.69517,33.26,-0.37,2.3,10.06
50.475029,2.69517,33.26,1.72,1.72,10.49
50.474734,2.69521,33.3,-1.15,1.7,10.71
50.474734,2.69521,33.3,-0.54,0.64,8.7
50.474436,2.695252,33.41,-0.48,2.13,10.04
50.474436,2.695252,33.41,0.46,0.51,9.84
50.474137,2.695291,33.49,0.27,1.55,9.88
50.474137,2.695291,33.49,-0.03,1.33,9.6
50.473837,2.695325,33.5,-0.07,2.58,9.24
50.473837,2.695325,33.5,-1.27,0.91,9.33
50.473539,2.695352,33.5,-2.2,1.89,9.38
50.473539,2.695352,33.5,0.24,1.29,8.91
50.47324,2.695375,33.44,0.63,0.96,10.76
50.47324,2.695375,33.44,0.42,0.69,10.1
50.472942,2.6954,33.42,-1.3,1.97,11.37
50.472942,2.6954,33.42,-0.18,1.09,8.36
50.472644,2.695419,33.45,0.1,1.44,10.35
50.472644,2.695419,33.45,0.55,1.48,9.15
50.472347,2.695434,33.36,-0.91,1.17,10.48
50.472347,2.695434,33.36,-0.35,2.39,9.01
50.472051,2.695447,33.21,-0.65,0.66,9.9
50.471753,2.695462,33.15,-0.73,3.36,9.53
50.471753,2.695462,33.15,-0.14,1.36,9.51
50.471456,2.695477,33.07,-0.18,1.38,11.7
50.471456,2.695477,33.07,-0.91,1.61,9.29
50.471161,2.695494,32.82,-0.02,2.17,8.08
50.471161,2.695494,32.82,0.33,-0.08,10.05
50.470866,2.695506,32.67,1.02,1.35,11.25
50.470866,2.695506,32.67,-2.32,1.44,9.56
50.470575,2.69551,32.46,-0.55,1.35,9.95
50.470575,2.69551,32.46,-0.94,0.8,10.65
50.470281,2.695527,32.31,0.35,1.85,8.92
50.470281,2.695527,32.31,1.95,1.24,10.52
50.46999,2.695544,32.13,0.34,1.4,8.9
50.46999,2.695544,32.13,-0.41,1.5,10.65
50.469698,2.695558,32.1,-1.39,1.98,8.71
50.469698,2.695558,32.1,-1.19,2.47,9.58
50.469409,2.695572,32.0,-2.06,1.98,10.69
50.469409,2.695572,32.0,0.02,1.99,10.1
50.469119,2.695591,31.94,-0.23,1.59,9.74
50.469119,2.695591,31.94,-1.5,1.7,9.45
50.468831,2.695605,31.9,-1.23,2.48,10.27
50.468831,2.695605,31.9,-1.41,1.32,9.05
50.468543,2.695617,31.84,-2.26,1.23,9.11
50.468543,2.695617,31.84,-0.61,1.76,10.48
50.468256,2.69563,31.82,-0.19,1.85,9.15
50.468256,2.69563,31.82,-1.58,1.91,9.68
50.467968,2.695648,31.83,-0.82,1.54,9.6
50.467968,2.695648,31.83,-0.66,1.44,9.5
50.467679,2.695669,31.77,-0.75,1.88,9.2
50.467679,2.695669,31.77,-2.15,2.19,9.15
50.467392,2.695686,31.78,-0.9,1.92,9.76
50.467392,2.695686,31.78,-0.57,1.65,8.77
50.467106,2.695696,31.69,-0.91,2.06,12.0
50.467106,2.695696,31.69,-0.67,1.97,11.73
50.466821,2.695705,31.72,-1.64,1.99,9.85
50.466821,2.695705,31.72,0.19,1.04,9.26
50.466537,2.695715,31.68,0.5,1.44,10.71
50.466537,2.695715,31.68,0.4,1.5,11.22
50.466253,2.695727,31.62,-1.0,1.39,9.37
50.466253,2.695727,31.62,-1.52,1.45,8.74
50.465967,2.695742,31.6,-0.13,1.34,9.98
50.465967,2.695742,31.6,-0.88,1.66,10.52
50.465682,2.695757,31.6,0.56,1.3,9.73
50.465397,2.695775,31.61,-0.04,2.34,9.0
50.465397,2.695775,31.61,-1.46,1.54,8.07
50.465111,2.695789,31.7,-1.13,2.14,9.18
50.465111,2.695789,31.7,-0.66,2.06,11.17
50.464827,2.695797,31.75,-1.7,1.9,10.27
50.464827,2.695797,31.75,-1.53,2.37,9.94
50.464543,2.695804,31.75,-0.29,1.32,10.49
50.464543,2.695804,31.75,0.05,1.91,11.1
50.464257,2.695817,31.79,-1.59,1.94,11.69
50.464257,2.695817,31.79,-1.09,1.49,9.19
50.463972,2.69583,31.85,-0.93,1.98,10.91
50.463972,2.69583,31.85,-0.73,2.06,9.16
50.463686,2.695847,31.93,-0.41,1.9,11.38
50.463686,2.695847,31.93,-1.04,1.76,10.33
50.463401,2.695859,31.93,0.22,2.04,9.25
50.463401,2.695859,31.93,0.41,2.1,9.81
50.463117,2.695869,31.99,-1.4,1.89,10.84
50.463117,2.695869,31.99,-0.51,1.95,10.92
50.462828,2.695883,32.24,-0.22,1.33,9.24
50.462828,2.695883,32.24,-0.22,1.9,9.3
50.462538,2.695899,32.4,0.5,1.06,8.75
50.462538,2.695899,32.4,-1.81,2.31,10.36
50.462245,2.695914,32.63,0.19,0.95,8.8
50.462245,2.695914,32.63,-0.55,1.09,8.67
50.461949,2.695932,32.81,1.47,0.79,12.1
50.461949,2.695932,32.81,-0.59,1.86,8.9
50.461651,2.69595,33.13,0.41,1.15,10.09
50.461651,2.69595,33.13,-1.09,1.76,11.21
50.461352,2.695967,33.3,-0.56,0.72,9.13
50.461352,2.695967,33.3,-0.86,2.19,10.52
50.461051,2.695985,33.51,-0.03,1.22,8.88
50.461051,2.695985,33.51,-0.88,2.49,10.82
50.460748,2.696001,33.69,0.7,0.93,9.02
50.460748,2.696001,33.69,-0.4,0.86,10.43
50.460443,2.696019,33.89,-0.66,1.45,12.17
50.460443,2.696019,33.89,-1.61,1.18,8.79
50.460138,2.696036,34.04,-0.74,1.14,8.99
50.460138,2.696036,34.04,-0.54,2.13,10.68
50.459832,2.696053,34.18,0.16,1.57,11.43
50.459524,2.696071,34.29,-0.67,1.24,10.28
50.459524,2.696071,34.29,-0.34,2.61,10.12
50.459215,2.696093,34.38,-1.12,1.08,10.52
50.459215,2.696093,34.38,-0.71,1.7,11.72
50.458905,2.696115,34.45,0.05,1.1,11.34
50.458905,2.696115,34.45,-0.36,0.1,8.79
50.458595,2.696139,34.52,1.02,0.79,13.16
50.458595,2.696139,34.52,0.09,-0.29,10.0
50.45829,2.696164,33.63,-0.79,0.81,8.98
50.45829,2.696164,33.63,-1.28,1.81,11.0
50.457992,2.696192,33.23,-0.9,1.83,9.75
50.457992,2.696192,33.23,-1.44,0.88,9.05
50.457695,2.696218,33.14,-1.38,2.66,9.81
50.457695,2.696218,33.14,-1.1,1.47,9.4
50.457395,2.696254,33.23,-0.18,1.75,10.94
50.457395,2.696254,33.23,-0.62,1.0,9.96
50.457095,2.696293,33.21,-1.35,0.74,8.96
50.457095,2.696293,33.21,-2.15,2.99,9.8
50.456797,2.696332,33.31,-0.37,1.23,8.85
50.456797,2.696332,33.31,-1.65,2.49,9.78
50.456498,2.696378,33.35,-0.78,1.66,11.09
50.456498,2.696378,33.35,-0.69,1.44,10.18
50.456198,2.696428,33.35,-0.68,0.79,9.43
50.456198,2.696428,33.35,0.1,1.53,11.63
50.455897,2.696481,33.39,-0.78,1.59,9.01
50.455897,2.696481,33.39,-0.49,1.13,9.95
50.455596,2.696534,33.53,-0.15,2.26,9.66
50.455596,2.696534,33.53,0.69,1.79,12.0
50.455295,2.69659,33.57,-0.84,0.86,9.15
50.455295,2.69659,33.57,0.9,0.83,10.49
50.454994,2.696648,33.56,-0.25,1.36,8.72
50.454994,2.696648,33.56,-0.09,2.03,10.75
50.454694,2.696708,33.52,-1.29,0.99,8.93
50.454694,2.696708,33.52,0.12,1.3,10.74
50.454394,2.69677,33.52,-0.72,1.42,8.26
50.454394,2.69677,33.52,-1.77,1.24,11.11
50.454095,2.696835,33.49,0.21,1.7,10.84
50.454095,2.696835,33.49,-1.12,1.67,9.54
50.453797,2.696902,33.52,-2.09,0.96,8.62
50.453797,2.696902,33.52,1.08,1.47,10.98
50.453498,2.696972,33.53,-0.5,1.32,9.27
50.4532,2.697041,33.56,-1.47,1.84,9.7
50.4532,2.697041,33.56,0.01,2.27,10.74
50.452903,2.697112,33.46,-0.88,1.27,11.2
50.452903,2.697112,33.46,0.23,1.86,10.65
50.452603,2.697184,33.46,0.68,1.46,11.19
50.452603,2.697184,33.46,-1.07,1.32,9.57
50.452307,2.69726,33.55,0.0,1.95,8.99
50.452307,2.69726,33.55,0.7,1.62,9.8
50.452011,2.697337,33.61,-1.7,2.03,10.85
50.452011,2.697337,33.61,0.24,0.94,10.52
50.451712,2.697418,33.72,-1.21,2.06,10.32
50.451712,2.697418,33.72,-0.73,-0.11,8.44
50.451418,2.697502,33.66,-1.8,1.52,10.16
50.451418,2.697502,33.66,-0.91,1.03,9.98
50.451123,2.69759,33.72,-0.23,1.14,9.57
50.451123,2.69759,33.72,-2.3,1.23,8.26
50.450826,2.697678,33.71,-0.98,2.3,9.05
50.450826,2.697678,33.71,-2.28,1.6,10.47
50.450528,2.697768,33.7,-0.6,1.15,10.26
50.450528,2.697768,33.7,-2.49,2.12,10.52
50.450236,2.697868,33.76,0.8,0.74,8.85
50.450236,2.697868,33.76,-0.48,1.22,10.1
50.449944,2.697972,33.88,-0.25,2.45,9.61
50.449944,2.697972,33.88,-1.17,1.07,8.66
50.44965,2.698076,33.9,-1.06,1.73,9.51
50.44965,2.698076,33.9,-2.41,2.28,9.96
50.44935,2.698179,34.0,-1.93,0.55,8.99
50.44935,2.698179,34.0,-0.87,2.26,9.68
50.449052,2.698286,33.98,-2.3,2.31,10.2
50.449052,2.698286,33.98,0.49,1.4,10.35
50.448755,2.698396,33.94,-0.79,2.39,8.41
50.448755,2.698396,33.94,-2.05,1.94,11.27
50.448455,2.698507,34.02,0.18,0.85,9.34
50.448455,2.698507,34.02,-2.11,1.78,9.47
50.44816,2.698622,33.9,0.46,1.92,10.48
50.44816,2.698622,33.9,-0.53,0.85,9.71
50.447864,2.698732,33.95,-1.38,1.89,9.99
50.447864,2.698732,33.95,1.36,0.79,9.67
50.447566,2.698846,33.91,-0.04,0.68,9.94
50.447273,2.698974,33.95,0.37,1.66,10.72
50.447273,2.698974,33.95,-0.81,1.08,10.22
50.44698,2.699105,33.95,-0.59,1.44,10.1
50.44698,2.699105,33.95,0.32,0.78,10.24
50.446686,2.699234,33.95,-0.6,1.03,10.22
50.446686,2.699234,33.95,-0.59,2.94,9.55
50.446392,2.699365,34.0,-0.71,1.37,9.22
50.446392,2.699365,34.0,0.61,0.76,8.6
50.4461,2.699502,33.92,-1.22,3.12,8.55
50.4461,2.699502,33.92,-1.47,0.84,9.87
50.445811,2.699644,33.97,0.06,2.56,9.0
50.445811,2.699644,33.97,-1.02,1.7,10.72
50.445519,2.699785,34.0,-0.54,0.75,10.69
50.445519,2.699785,34.0,-0.05,2.38,8.95
50.445227,2.699934,34.01,-1.48,1.26,11.25
50.445227,2.699934,34.01,0.54,0.96,8.64
50.444933,2.700089,33.93,-2.01,2.09,7.99
50.444933,2.700089,33.93,0.33,1.17,11.47
50.444643,2.700245,33.89,-0.63,0.79,10.25
50.444643,2.700245,33.89,-2.35,1.79,10.45
50.444355,2.700391,33.81,-0.55,1.16,10.47
50.444355,2.700391,33.81,0.95,1.94,10.11
50.444069,2.700535,33.72,-1.34,1.48,9.69
50.444069,2.700535,33.72,0.79,0.64,9.6
50.443782,2.700681,33.63,-1.95,2.15,11.06
50.443782,2.700681,33.63,0.43,1.35,8.14
50.443497,2.700831,33.55,0.32,0.87,10.56
50.443497,2.700831,33.55,0.77,1.26,10.25
50.443212,2.70099,33.36,-2.06,2.15,9.44
50.443212,2.70099,33.36,-2.17,0.98,8.66
50.44293,2.701146,33.24,0.9,1.34,11.14
50.44293,2.701146,33.24,-0.3,1.76,9.1
50.442652,2.701299,33.02,-0.17,1.65,9.66
50.442652,2.701299,33.02,0.51,2.03,10.98
50.442373,2.701462,32.97,-0.37,1.72,9.12
50.442373,2.701462,32.97,-0.8,1.93,9.49
50.442095,2.701623,32.85,1.34,1.51,9.36
50.442095,2.701623,32.85,-1.94,2.34,8.85
50.441819,2.701786,32.79,-2.08,2.27,8.89
50.441819,2.701786,32.79,-0.9,1.51,10.18
50.441545,2.70195,32.73,-1.24,1.62,12.46
50.441273,2.70212,32.59,-1.97,2.16,10.24
50.441273,2.70212,32.59,-0.91,0.75,9.36
50.441003,2.702294,32.45,0.92,2.04,10.36
50.441003,2.702294,32.45,0.16,1.7,9.12
50.440734,2.702466,32.35,-0.83,1.09,11.57
50.440734,2.702466,32.35,-2.26,2.23,10.27
50.440469,2.702645,32.27,-1.43,1.86,9.8
50.440469,2.702645,32.27,-1.32,2.04,8.73
50.440208,2.70282,32.22,-0.21,1.58,9.47
50.440208,2.70282,32.22,0.07,1.44,10.24
50.439943,2.703002,32.03,-0.87,1.02,9.37
50.439943,2.703002,32.03,0.15,1.85,9.21
50.439681,2.703187,31.97,-0.34,1.21,9.07
50.439681,2.703187,31.97,-0.4,2.25,9.64
50.439416,2.703366,31.97,-1.17,1.1,10.63
50.439416,2.703366,31.97,-0.69,1.76,11.82
50.439151,2.703545,32.11,-0.75,1.16,10.75
50.439151,2.703545,32.11,-0.66,1.99,11.41
50.438889,2.703736,32.19,-1.37,1.92,10.95
50.438889,2.703736,32.19,-1.23,1.92,10.0
50.438628,2.703929,32.32,-1.24,1.49,8.54
50.438628,2.703929,32.32,-0.61,1.29,9.87
50.438364,2.704134,32.38,-0.56,0.97,7.92
50.438364,2.704134,32.38,0.05,1.26,9.86
50.4381,2.704338,32.48,-0.69,2.08,9.94
50.4381,2.704338,32.48,-1.03,2.5,9.03
50.437836,2.704542,32.59,-1.05,0.9,7.79
50.437836,2.704542,32.59,-0.34,0.74,10.22
50.437575,2.70474,32.59,-0.34,2.29,10.95
50.437575,2.70474,32.59,-0.1,2.87,9.9
50.437313,2.704946,32.9,-0.58,1.38,9.78
50.437313,2.704946,32.9,-0.34,1.99,9.91
50.437051,2.705154,32.97,0.36,2.09,10.41
50.437051,2.705154,32.97,-1.11,1.43,8.51
50.436789,2.705368,33.04,-0.4,1.19,10.06
50.436789,2.705368,33.04,-1.54,2.03,9.76
50.436526,2.705574,33.1,-0.45,0.44,9.91
50.436526,2.705574,33.1,-0.8,2.35,10.82
50.436261,2.705788,33.29,-1.26,2.15,9.53
50.436261,2.705788,33.29,-0.21,1.44,11.32
50.435995,2.706008,33.38,-0.47,1.94,9.14
50.435728,2.70623,33.49,-0.35,1.87,10.29
50.435728,2.70623,33.49,-0.63,2.67,9.04
50.43546,2.706455,33.57,0.62,1.77,11.5
50.43546,2.706455,33.57,-0.12,2.65,9.59
50.435195,2.706687,33.65,0.4,1.61,10.98
50.435195,2.706687,33.65,-0.29,0.96,10.57
50.43493,2.706916,33.8,1.06,1.81,11.42
50.43493,2.706916,33.8,-1.03,0.64,9.52
50.434663,2.707147,33.84,-0.63,2.58,8.91
50.434663,2.707147,33.84,-1.32,1.11,9.03
50.434402,2.707386,33.81,-0.09,2.17,10.51
50.434402,2.707386,33.81,-0.64,1.21,11.83
50.434141,2.707627,33.87,0.06,1.64,8.65
50.434141,2.707627,33.87,-1.63,1.92,9.92
50.433881,2.707874,33.79,0.07,1.13,10.4
50.433881,2.707874,33.79,-2.13,2.51,10.34
50.43362,2.708122,33.82,0.42,1.78,9.8
50.43362,2.708122,33.82,-0.79,1.37,9.69
50.433358,2.708367,33.84,-0.85,2.01,10.01
50.433358,2.708367,33.84,-0.54,0.7,8.12
50.433099,2.708618,33.85,-0.81,1.43,9.55
50.433099,2.708618,33.85,-0.8,1.11,10.56
50.43284,2.708869,33.82,-0.26,1.44,10.95
50.43284,2.708869,33.82,-2.27,2.57,8.22
50.432582,2.709121,33.82,0.31,1.57,10.42
50.432582,2.709121,33.82,-2.27,2.59,9.37
50.432326,2.709374,33.74,0.22,1.38,10.51
50.432326,2.709374,33.74,0.36,1.24,10.37
50.432071,2.709628,33.66,-2.77,2.91,9.39
50.432071,2.709628,33.66,-0.47,0.6,8.81
50.431818,2.709885,33.65,-0.81,2.26,10.72
50.431818,2.709885,33.65,-0.36,1.5,8.26
50.431563,2.710155,33.59,0.94,1.63,10.61
50.431563,2.710155,33.59,-0.93,1.21,9.29
50.431312,2.710415,33.36,-0.78,1.46,12.27
50.431312,2.710415,33.36,-0.67,2.18,10.29
50.431064,2.710674,33.17,0.61,1.13,8.64
50.431064,2.710674,33.17,-1.56,2.15,10.12
50.430821,2.710933,33.13,-0.59,2.2,8.32
50.430821,2.710933,33.13,0.33,0.77,10.52
50.430575,2.7112,33.04,-0.3,2.6,10.28
50.430575,2.7112,33.04,0.32,0.65,9.46
50.430331,2.711471,33.03,1.51,1.19,9.9
50.430088,2.711741,33.07,-0.63,2.55,9.4
50.430088,2.711741,33.07,-0.4,1.04,11.08
50.429851,2.711997,32.9,0.26,0.35,11.66
50.429851,2.711997,32.9,-0.34,1.83,12.33
50.429608,2.712259,32.88,-0.52,1.0,9.95
50.429608,2.712259,32.88,0.29,1.11,10.34
50.429362,2.712523,32.85,-1.97,2.16,9.31
50.429362,2.712523,32.85,-0.41,1.63,8.82
50.429117,2.712788,32.81,-1.24,1.77,9.7
50.429117,2.712788,32.81,-0.49,2.47,10.22
50.428874,2.713055,32.84,0.15,2.24,10.0
50.428874,2.713055,32.84,-0.23,2.5,8.34
50.428631,2.713324,32.75,-1.01,2.01,10.12
50.428631,2.713324,32.75,-0.56,2.12,11.77
50.428387,2.713585,32.73,-1.06,0.73,9.14
50.428387,2.713585,32.73,0.63,0.87,9.77
50.428146,2.713845,32.87,-0.24,1.03,9.57
50.428146,2.713845,32.87,-1.01,2.09,8.8
50.427904,2.714109,32.89,-0.99,1.36,10.21
50.427904,2.714109,32.89,0.77,0.54,10.86
50.427666,2.714371,32.93,-0.57,2.32,9.45
50.427666,2.714371,32.93,-1.8,1.64,8.51
50.427427,2.714638,32.93,-1.81,1.58,10.18
50.427427,2.714638,32.93,-0.85,2.21,8.54
50.427192,2.714909,32.83,0.56,1.31,10.1
50.427192,2.714909,32.83,0.15,1.34,10.95
50.426953,2.715173,32.87,-1.33,1.87,10.52
50.426953,2.715173,32.87,0.34,1.27,9.9
50.426705,2.715441,32.97,-0.95,1.93,10.45
50.426705,2.715441,32.97,-2.05,1.26,8.43
50.426462,2.715715,33.04,-0.76,0.98,9.34
50.426462,2.715715,33.04,-0.71,1.88,10.71
50.426217,2.715975,32.89,0.79,1.08,10.04
50.426217,2.715975,32.89,-0.52,1.63,9.73
50.425974,2.716237,32.94,-1.6,1.67,9.89
50.425974,2.716237,32.94,-0.26,0.91,8.75
50.425733,2.716519,32.86,-1.22,1.53,9.73
50.425733,2.716519,32.86,-2.78,1.84,9.96
50.42549,2.716796,32.96,-2.29,1.19,8.17
50.425243,2.717071,33.32,-0.68,1.43,9.18
50.425243,2.717071,33.32,-0.69,2.83,9.39
50.425003,2.71735,33.3,0.28,1.83,10.87
50.425003,2.71735,33.3,-0.4,1.45,10.78
50.424761,2.71762,33.31,-0.73,1.13,8.78
50.424761,2.71762,33.31,-1.9,1.76,9.5
50.424525,2.7179,33.46,-0.73,2.47,10.19
50.424525,2.7179,33.46,0.27,1.02,10.48
50.424287,2.718185,33.41,-0.48,1.28,9.54
50.424287,2.718185,33.41,0.62,1.52,9.86
50.42405,2.718463,33.55,-0.48,2.26,9.84
50.42405,2.718463,33.55,-0.43,1.65,10.17
50.423808,2.718743,33.68,0.2,2.5,8.53
50.423808,2.718743,33.68,0.57,1.01,11.0
50.423564,2.719015,33.73,0.59,0.74,9.0
50.423564,2.719015,33.73,0.62,1.31,11.06
50.423313,2.719297,33.79,-0.71,1.17,9.75
50.423313,2.719297,33.79,-0.12,2.04,9.37
50.423062,2.719571,33.9,0.0,1.16,10.91
50.423062,2.719571,33.9,-0.95,0.31,9.05
50.422814,2.719853,33.86,0.51,2.98,10.06
50.422814,2.719853,33.86,-1.79,2.23,11.2
50.422566,2.720133,33.97,-0.07,0.56,8.98
50.422566,2.720133,33.97,-0.26,2.38,8.2
50.42232,2.720416,34.02,-1.7,1.93,9.22
50.42232,2.720416,34.02,-0.48,0.06,9.35
50.422078,2.720695,34.17,0.37,2.18,10.17
50.422078,2.720695,34.17,-0.69,2.78,10.04
50.421831,2.72098,34.25,-2.01,1.3,9.77
50.421831,2.72098,34.25,-0.61,1.32,9.42
50.421586,2.721263,34.26,-0.63,2.8,8.34
50.421586,2.721263,34.26,-0.66,2.41,9.38
50.421337,2.721549,34.32,-1.12,0.05,9.26
50.421337,2.721549,34.32,-0.79,0.36,10.3
50.421086,2.721841,34.35,-0.52,1.21,9.49
50.421086,2.721841,34.35,-1.32,1.44,10.19
50.420837,2.722129,33.93,-1.24,1.1,9.5
50.420837,2.722129,33.93,-0.5,2.2,9.64
50.420593,2.72241,33.45,0.17,1.8,10.8
50.420593,2.72241,33.45,-0.36,0.82,10.48
50.420349,2.722692,33.45,-0.52,1.0,11.14
50.420106,2.722971,33.46,1.78,1.09,11.61
50.420106,2.722971,33.46,0.59,1.95,10.37
50.419865,2.723247,33.46,-0.8,0.91,10.42
50.419865,2.723247,33.46,-0.86,1.98,8.36
50.419622,2.723528,33.56,0.86,1.76,10.66
50.419622,2.723528,33.56,-1.42,1.4,9.14
50.419378,2.723811,33.67,1.62,1.32,11.06
50.419378,2.723811,33.67,0.69,0.79,10.16
50.419132,2.724092,33.77,-2.15,1.85,8.54
50.419132,2.724092,33.77,-0.26,0.28,9.65
50.41889,2.724381,33.83,-0.26,2.75,8.53
50.41889,2.724381,33.83,-0.88,1.39,10.29
50.418645,2.724667,34.06,-0.18,1.63,9.44
50.418645,2.724667,34.06,-1.35,2.41,8.68
50.418399,2.724952,34.1,0.2,1.81,10.45
50.418399,2.724952,34.1,0.97,1.45,11.03
50.41815,2.725239,34.26,-0.17,2.37,9.99
50.41815,2.725239,34.26,-1.69,2.09,9.58
50.4179,2.725526,34.56,-1.48,0.66,9.12
50.4179,2.725526,34.56,-0.79,0.99,10.55
50.41765,2.725817,34.62,-1.14,0.72,10.75
50.41765,2.725817,34.62,-1.16,0.37,10.31
50.417399,2.726107,34.71,-2.06,2.23,10.51
50.417399,2.726107,34.71,-1.47,2.23,9.91
50.417148,2.726399,34.86,-1.45,1.76,8.53
50.417148,2.726399,34.86,1.44,1.7,10.32
50.416896,2.726693,34.92,0.12,1.48,10.41
50.416896,2.726693,34.92,1.0,0.95,11.4
50.416646,2.726986,34.96,-1.15,1.07,9.1
50.416646,2.726986,34.96,-1.1,1.36,10.09
50.416397,2.727278,34.2,0.01,1.15,10.52
50.416397,2.727278,34.2,0.53,1.02,9.07
50.416152,2.727557,33.68,-1.04,1.66,7.78
50.416152,2.727557,33.68,-0.66,1.04,11.15
50.415905,2.727842,33.64,0.67,1.69,9.45
50.415905,2.727842,33.64,0.8,1.15,8.89
50.415662,2.728124,33.57,0.32,1.32,9.28
50.415662,2.728124,33.57,-0.21,1.41,11.31
50.41542,2.728403,33.56,-0.73,1.77,8.79
50.41542,2.728403,33.56,-0.78,1.26,11.16
50.415178,2.72868,33.61,-1.95,1.08,8.83
50.415178,2.72868,33.61,0.51,0.82,12.15
50.414933,2.728959,33.6,-0.37,0.78,10.85
50.414688,2.729241,33.55,-1.77,2.04,8.25
50.414688,2.729241,33.55,-1.05,1.12,9.49
50.414447,2.729527,33.47,-1.15,2.06,10.0
50.414447,2.729527,33.47,-0.83,1.97,7.35
50.414208,2.729813,33.54,-0.1,0.91,11.68
50.414208,2.729813,33.54,-0.92,0.96,10.2
50.413969,2.7301,33.57,-0.02,1.63,11.99
50.413969,2.7301,33.57,-0.75,0.64,9.2
50.413733,2.730392,33.64,-1.38,2.05,9.77
50.413733,2.730392,33.64,-0.29,0.69,10.08
50.413497,2.730689,33.66,-0.8,1.97,8.9
50.413497,2.730689,33.66,1.25,0.57,11.42
50.413259,2.730986,33.78,-0.69,2.47,10.07
50.413259,2.730986,33.78,0.59,1.58,10.62
50.413022,2.731289,33.89,-1.25,0.82,9.04
50.413022,2.731289,33.89,-0.46,0.94,11.08
50.412784,2.731588,33.9,-0.39,0.76,9.76
50.412784,2.731588,33.9,-1.53,1.35,8.98
50.412538,2.731883,34.09,-0.03,0.81,11.27
50.412538,2.731883,34.09,-1.5,1.2,8.23
50.412304,2.732193,34.17,-0.38,1.08,9.7
50.412304,2.732193,34.17,-0.39,1.92,11.55
50.412071,2.732506,34.27,1.09,1.39,10.92
50.412071,2.732506,34.27,-1.03,1.35,9.04
50.411838,2.732818,34.46,-1.54,0.68,9.09
50.411838,2.732818,34.46,-1.38,1.52,8.8
50.411602,2.73313,34.37,-0.43,0.58,10.72
50.411602,2.73313,34.37,-0.45,0.4,9.88
50.411367,2.73344,33.58,0.66,1.04,11.32
50.411367,2.73344,33.58,-0.37,1.26,9.36
50.411139,2.733744,32.98,1.13,0.71,10.54
50.411139,2.733744,32.98,1.13,0.69,9.57
50.410916,2.734046,32.76,-0.85,2.4,9.94
50.410916,2.734046,32.76,-0.7,0.78,9.36
50.410694,2.734346,32.68,-0.82,1.6,8.84
50.410694,2.734346,32.68,-0.71,1.12,11.01
50.410473,2.734647,32.74,-1.02,2.63,9.88
50.410473,2.734647,32.74,0.09,1.12,9.96
50.410254,2.734952,32.83,0.34,0.69,9.71
50.410254,2.734952,32.83,-0.43,1.86,10.01
50.410034,2.735261,32.93,-1.0,2.87,9.63
50.410034,2.735261,32.93,1.12,1.12,9.72
50.409816,2.73557,32.94,-2.68,1.36,8.9
50.4096,2.735883,32.97,-0.29,1.49,9.54
50.4096,2.735883,32.97,-0.07,1.63,11.06
50.409384,2.736201,33.04,-1.33,2.44,9.7
50.409384,2.736201,33.04,-0.28,2.22,10.12
50.409169,2.736521,33.08,0.07,1.26,9.59
50.409169,2.736521,33.08,-1.42,1.96,8.67
50.408955,2.736843,33.14,-0.44,1.12,10.39
50.408955,2.736843,33.14,-0.25,1.36,11.2
50.408741,2.737167,33.27,-1.23,0.93,8.69
50.408741,2.737167,33.27,-1.83,0.75,7.37
50.408526,2.737492,33.3,-1.89,2.53,10.64
50.408526,2.737492,33.3,-0.38,1.33,9.48
50.408313,2.737817,33.36,-0.52,2.31,11.26
50.408313,2.737817,33.36,-0.8,1.58,9.74
50.408101,2.738149,33.4,-1.48,2.1,10.18
50.408101,2.738149,33.4,0.17,0.4,8.91
50.407889,2.738481,33.45,0.73,1.45,10.1
50.407889,2.738481,33.45,-0.45,1.69,10.14
50.407674,2.738813,33.53,-0.85,2.61,9.06
50.407674,2.738813,33.53,-0.63,0.69,8.46
50.407456,2.739145,33.52,-0.89,1.71,11.74
50.407456,2.739145,33.52,0.06,0.99,9.62
50.407249,2.73948,33.52,-1.13,2.25,8.84
50.407249,2.73948,33.52,0.29,0.99,8.61
50.407029,2.739805,33.48,-2.0,1.51,9.95
50.407029,2.739805,33.48,-1.85,0.76,7.67
50.406813,2.740134,33.39,-0.12,0.63,9.52
50.406813,2.740134,33.39,0.51,1.12,11.61
50.406601,2.740464,33.36,-0.11,1.6,10.62
50.406601,2.740464,33.36,-0.54,2.17,8.67
50.406386,2.740793,33.36,0.62,0.79,10.97
50.406386,2.740793,33.36,-0.59,1.87,10.17
50.406176,2.74113,33.38,0.42,1.73,11.47
50.406176,2.74113,33.38,-1.01,2.65,10.91
50.405964,2.741455,33.44,-0.46,0.95,9.84
50.405964,2.741455,33.44,-0.97,2.04,8.83
50.405747,2.741781,33.59,-1.13,0.93,8.29
50.405747,2.741781,33.59,-0.35,2.39,10.35
50.405529,2.742107,33.74,-1.97,1.9,9.69
50.405306,2.742434,33.88,-0.79,1.5,9.72
50.405306,2.742434,33.88,-2.19,2.58,9.76
50.40509,2.742767,33.97,1.78,1.28,11.8
50.40509,2.742767,33.97,-0.93,3.01,10.12
50.404872,2.743099,34.08,-0.25,1.1,9.35
50.404872,2.743099,34.08,-0.3,1.42,10.31
50.404654,2.743436,34.15,-0.14,2.6,9.4
50.404654,2.743436,34.15,-1.88,2.67,9.64
50.404426,2.743763,34.3,-0.35,0.47,9.23
50.404426,2.743763,34.3,0.48,0.78,9.94
50.404203,2.744097,34.33,-0.99,2.77,8.46
50.404203,2.744097,34.33,1.74,1.58,10.01
50.403984,2.744438,34.43,-0.69,0.49,8.62
50.403984,2.744438,34.43,-1.56,0.07,9.11
50.403766,2.744782,34.57,-1.91,2.44,9.95
50.403766,2.744782,34.57,-1.56,1.78,10.38
50.403548,2.745135,34.58,-1.24,1.31,10.63
50.403548,2.745135,34.58,0.05,0.08,10.75
50.403331,2.745477,34.02,-0.31,1.12,8.74
50.403331,2.745477,34.02,-1.19,2.21,10.19
50.403113,2.745811,33.9,1.42,1.05,10.53
50.403113,2.745811,33.9,-0.55,2.66,9.75
50.402895,2.746142,34.01,0.14,1.0,11.2
50.402895,2.746142,34.01,-0.29,1.06,10.14
50.402678,2.746474,34.06,-0.74,1.13,8.71
50.402678,2.746474,34.06,0.35,1.21,10.98
50.402458,2.746809,34.15,-1.12,1.04,7.92
50.402458,2.746809,34.15,-0.07,0.46,11.66
50.402237,2.747142,34.24,-1.01,1.02,9.65
50.402237,2.747142,34.24,0.48,0.61,10.63
50.402019,2.747479,34.07,-0.43,0.29,9.69
50.402019,2.747479,34.07,-1.76,2.26,9.1
50.401794,2.747804,33.4,-1.43,1.27,9.06
50.401794,2.747804,33.4,-0.05,0.76,11.03
50.401576,2.748129,33.06,-0.12,2.25,9.54
50.401576,2.748129,33.06,-1.01,1.1,8.91
50.40136,2.748454,33.14,-1.24,1.53,9.43
50.40136,2.748454,33.14,-1.47,1.29,9.27
50.401152,2.748785,33.14,-0.39,1.33,9.95
50.401152,2.748785,33.14,-0.66,2.72,9.21
50.400934,2.749114,33.23,1.98,1.32,10.52
50.400721,2.749444,33.33,0.26,1.03,10.68
50.400721,2.749444,33.33,-0.61,1.2,8.47
50.400502,2.749769,33.46,-1.79,2.09,9.71
50.400502,2.749769,33.46,1.33,1.53,10.98
50.400282,2.75009,33.63,-1.51,1.57,10.75
50.400282,2.75009,33.63,0.68,1.03,8.21
50.400056,2.750408,33.78,-1.14,1.2,10.34
50.400056,2.750408,33.78,0.73,1.6,9.17
50.399828,2.750722,33.95,0.04,1.36,10.43
50.399828,2.750722,33.95,1.29,1.48,10.71
50.399594,2.751032,34.09,-0.7,-0.41,7.97
50.399594,2.751032,34.09,0.46,0.81,11.15
50.399358,2.751333,33.53,0.36,0.76,9.08
50.399358,2.751333,33.53,-0.55,1.84,9.44
50.399121,2.751624,33.38,0.63,1.16,10.11
50.399121,2.751624,33.38,0.05,1.85,10.37
50.398879,2.751901,33.5,0.09,0.79,9.36
50.398879,2.751901,33.5,-0.29,2.71,8.9
50.398635,2.75217,33.47,-0.83,1.36,8.26
50.398635,2.75217,33.47,-0.68,2.47,8.48
50.398387,2.752431,33.38,-0.23,1.22,8.62
50.398387,2.752431,33.38,-1.1,1.5,10.81
50.398134,2.752691,33.44,-0.79,0.65,8.81
50.398134,2.752691,33.44,-0.71,2.51,9.87
50.397875,2.75294,33.5,1.07,1.11,10.3
50.397875,2.75294,33.5,0.94,1.33,11.35
50.397609,2.753181,33.36,0.31,1.34,9.28
50.397609,2.753181,33.36,0.75,0.73,11.32
50.39734,2.753414,33.09,1.35,1.21,10.66
50.39734,2.753414,33.09,-0.04,1.27,9.02
50.39707,2.753632,32.94,-0.34,2.07,10.42
50.39707,2.753632,32.94,0.0,1.89,10.0
50.396805,2.753836,32.81,1.26,1.91,9.75
50.396805,2.753836,32.81,0.09,2.07,9.05
50.396544,2.754024,32.57,0.14,2.17,9.81
50.396544,2.754024,32.57,0.37,1.98,9.83
50.396284,2.754201,32.33,0.53,2.5,9.61
50.396284,2.754201,32.33,0.13,1.72,8.77
50.396021,2.754368,32.08,0.36,2.38,10.14
50.396021,2.754368,32.08,0.41,1.59,10.35
50.395753,2.754525,31.96,1.01,1.4,8.79
50.395477,2.754666,31.91,0.74,1.76,9.58
50.395477,2.754666,31.91,-0.05,2.31,9.84
50.395204,2.754802,31.84,-0.45,1.13,8.83
50.395204,2.754802,31.84,-0.22,3.1,8.82
50.394932,2.754934,31.76,-0.33,1.8,9.13
50.394932,2.754934,31.76,0.29,1.33,10.31
50.394659,2.755068,31.65,0.54,2.29,8.94
50.394659,2.755068,31.65,0.07,1.83,9.59
50.394383,2.755189,31.55,-0.46,2.42,9.34
50.394383,2.755189,31.55,0.54,1.51,9.97
50.394108,2.755312,31.58,1.18,1.34,9.39
50.394108,2.755312,31.58,0.78,1.33,10.93
50.393829,2.755429,31.2,-0.14,1.7,7.44
50.393829,2.755429,31.2,0.09,1.58,9.75
50.393554,2.755519,31.08,0.45,2.38,9.33
50.393554,2.755519,31.08,-0.04,1.36,9.27
50.393282,2.755579,30.92,-1.47,1.93,10.34
50.393282,2.755579,30.92,-0.59,1.03,9.73
50.393009,2.755631,30.66,-1.02,2.3,8.65
50.393009,2.755631,30.66,-0.42,1.35,9.97
50.39274,2.755678,30.71,-0.22,1.25,8.59
50.39274,2.755678,30.71,-1.11,1.69,8.71
50.392467,2.755718,30.58,0.31,2.04,10.64
50.392467,2.755718,30.58,-0.38,1.77,8.52
50.392195,2.755753,30.43,0.52,1.33,11.19
50.392195,2.755753,30.43,0.73,1.95,9.74
50.391921,2.755787,30.35,-0.94,1.01,10.01
50.391921,2.755787,30.35,0.12,2.22,8.5
50.391657,2.755821,30.27,-0.04,2.13,9.38
50.391657,2.755821,30.27,-1.04,1.16,8.79
50.391393,2.755845,30.18,-0.41,2.12,8.75
50.391393,2.755845,30.18,-0.03,2.34,8.15
50.391125,2.75587,30.07,-1.56,1.57,9.77
50.391125,2.75587,30.07,-0.28,1.75,10.56
50.39086,2.755894,29.96,-0.97,1.51,9.7
50.39086,2.755894,29.96,-0.49,2.04,10.14
50.390591,2.75591,29.89,0.31,1.21,8.52
50.390591,2.75591,29.89,-0.64,1.53,9.8
50.390317,2.755912,29.87,0.16,1.46,9.8
50.390317,2.755912,29.87,0.22,1.6,9.31
50.390049,2.755909,29.81,-0.84,1.49,7.75
50.389783,2.755904,29.75,1.11,1.71,10.72
50.389783,2.755904,29.75,-1.25,2.15,10.0
50.389512,2.755901,29.73,-0.92,1.92,9.78
50.389512,2.755901,29.73,0.26,1.9,9.9
50.389246,2.755904,29.62,-1.26,1.85,9.54
50.389246,2.755904,29.62,0.42,1.19,10.97
50.388983,2.755908,29.55,0.54,2.2,10.39
50.388983,2.755908,29.55,-1.24,1.44,8.68
50.388721,2.755915,29.49,-0.58,1.19,10.41
50.388721,2.755915,29.49,-0.36,2.31,9.9
50.388454,2.755913,29.39,1.24,2.08,10.72
50.388454,2.755913,29.39,-1.17,1.61,8.89
50.388189,2.755918,29.38,-0.18,1.86,10.42
50.388189,2.755918,29.38,-0.87,2.15,9.2
50.387921,2.755925,29.4,0.01,1.13,10.16
50.387921,2.755925,29.4,-0.14,2.08,10.45
50.387656,2.755934,29.38,0.82,1.65,10.16
50.387656,2.755934,29.38,-0.25,1.78,10.48
50.387392,2.755946,29.34,-1.31,1.36,9.65
50.387392,2.755946,29.34,-0.2,1.72,9.16
50.387125,2.755969,29.27,-0.4,1.9,9.67
50.387125,2.755969,29.27,-1.07,2.66,8.47
50.386864,2.755986,29.29,0.98,1.51,9.58
50.386864,2.755986,29.29,-1.75,1.22,7.99
50.386598,2.756011,29.38,0.15,1.64,8.32
50.386598,2.756011,29.38,0.04,1.56,9.57
50.386335,2.756031,29.47,0.3,1.18,10.05
50.386335,2.756031,29.47,-0.33,1.24,10.14
50.38607,2.756041,29.58,-0.63,2.11,9.67
50.38607,2.756041,29.58,-0.65,2.04,10.47
50.385801,2.756049,29.74,-0.85,1.12,9.39
50.385801,2.756049,29.74,0.02,1.18,8.46
50.385538,2.756022,29.87,-1.6,1.48,9.47
50.385538,2.756022,29.87,-0.6,1.96,9.23
50.385268,2.756011,29.96,0.3,1.7,9.81
50.385268,2.756011,29.96,-0.88,2.21,9.84
50.384991,2.75601,30.06,-1.07,1.4,10.51
50.384991,2.75601,30.06,0.59,1.87,8.93
50.384717,2.756018,30.22,0.75,1.74,10.81
50.384438,2.756024,30.38,-1.06,1.79,8.95
50.384438,2.756024,30.38,-1.06,1.61,10.47
50.384164,2.756037,30.55,-1.28,1.81,9.34
50.384164,2.756037,30.55,-0.45,1.65,9.85
50.383888,2.756048,30.79,-0.05,1.27,12.4
50.383888,2.756048,30.79,-2.06,1.28,8.34
50.38361,2.756063,30.96,-1.5,2.35,9.23
50.38361,2.756063,30.96,-2.13,1.41,7.04
50.383333,2.756083,31.05,0.89,1.48,10.72
50.383333,2.756083,31.05,1.48,1.2,8.98
50.383055,2.756098,31.19,-0.3,1.03,8.9
50.383055,2.756098,31.19,-1.24,2.3,9.42
50.382773,2.756105,31.39,1.57,2.5,11.46
50.382773,2.756105,31.39,1.07,1.45,11.29
50.38249,2.756115,31.49,-0.85,1.92,11.32
50.38249,2.756115,31.49,-0.82,1.65,10.47
50.382205,2.75613,31.66,-1.51,0.92,8.82
50.382205,2.75613,31.66,-0.31,1.8,8.75
50.381923,2.756154,31.76,-0.02,1.09,8.76
50.381923,2.756154,31.76,0.45,1.59,9.92
50.38164,2.756188,31.91,-0.78,1.65,9.59
50.38164,2.756188,31.91,-0.24,1.02,11.74
50.381355,2.756223,32.1,-0.78,1.25,9.04
50.381355,2.756223,32.1,-0.27,1.68,11.72
50.381068,2.756252,32.32,-1.61,1.75,8.49
50.381068,2.756252,32.32,-0.72,1.93,8.5
50.380781,2.75629,32.54,1.06,1.48,9.69
50.380781,2.75629,32.54,0.35,1.62,11.68
50.380492,2.75633,32.79,0.35,2.63,12.37
50.380492,2.75633,32.79,-0.24,1.34,9.33
50.380199,2.756375,33.08,0.28,1.52,11.18
50.380199,2.756375,33.08,-0.6,1.44,7.57
50.379905,2.756428,33.25,1.14,1.01,9.89
50.379905,2.756428,33.25,-0.83,2.36,8.7
50.379605,2.756504,33.49,-0.1,1.17,10.31
50.379605,2.756504,33.49,-1.7,2.26,10.05
50.379304,2.75659,33.68,0.14,0.93,10.29
50.379304,2.75659,33.68,-0.47,1.33,9.24
50.379001,2.756685,33.81,0.98,2.19,12.19
50.379001,2.756685,33.81,-0.9,0.92,8.28
50.3787,2.756776,33.86,-0.23,1.36,10.39
50.3787,2.756776,33.86,-0.81,0.68,9.78
50.378406,2.756866,33.52,-0.61,1.3,10.75
50.378113,2.756956,33.13,-0.08,1.07,9.39
50.378113,2.756956,33.13,1.68,1.33,10.07
50.377823,2.757049,33.21,-1.03,1.87,8.74
50.377823,2.757049,33.21,1.91,1.5,10.36
50.377532,2.757146,33.35,-1.02,1.27,10.54
50.377532,2.757146,33.35,0.79,1.19,9.91
50.377241,2.75724,33.45,-1.25,2.56,11.05
50.377241,2.75724,33.45,-0.1,1.14,8.49
50.376945,2.757352,33.58,-2.17,2.42,10.54
50.376945,2.757352,33.58,-0.29,1.86,9.28
50.37665,2.757486,33.71,-1.62,1.48,10.33
50.37665,2.757486,33.71,0.61,1.37,9.91
50.376357,2.757617,33.88,-0.99,0.62,8.82
50.376357,2.757617,33.88,1.71,1.11,10.32
50.376068,2.75775,33.75,-0.8,0.57,10.64
50.376068,2.75775,33.75,0.06,0.7,9.31
50.375782,2.757888,33.04,-1.56,1.99,9.22
50.375782,2.757888,33.04,-0.51,0.63,9.4
50.3755,2.758038,32.73,-0.56,1.49,11.1
50.3755,2.758038,32.73,0.42,1.4,10.48
50.375225,2.758197,32.72,0.64,1.97,10.55
50.375225,2.758197,32.72,-0.83,1.55,9.64
50.374951,2.758353,32.75,1.21,1.21,8.79
50.374951,2.758353,32.75,-0.95,2.09,10.67
50.374676,2.758512,32.83,-2.01,1.43,8.62
50.374676,2.758512,32.83,-1.33,1.36,9.42
50.3744,2.75867,32.9,-1.96,2.2,8.65
50.3744,2.75867,32.9,-1.38,1.58,10.13
50.374125,2.758843,33.01,-1.0,1.8,11.27
50.374125,2.758843,33.01,-1.09,2.56,10.85
50.373853,2.759022,33.07,-1.52,1.1,8.18
50.373853,2.759022,33.07,-0.79,1.56,10.46
50.37358,2.759211,33.16,-1.08,1.99,10.5
50.37358,2.759211,33.16,0.16,1.0,10.99
50.373309,2.759402,33.27,0.68,1.19,10.75
50.373309,2.759402,33.27,-1.47,1.64,10.5
50.373039,2.759606,33.39,-1.21,2.52,9.06
50.373039,2.759606,33.39,1.36,0.91,10.73
50.372768,2.759818,33.53,-1.63,2.89,9.18
50.372768,2.759818,33.53,0.12,1.67,9.96
50.372497,2.760033,33.65,0.12,1.01,9.93
50.372229,2.760255,33.8,-1.12,0.65,7.83
50.372229,2.760255,33.8,-0.16,2.13,10.14
50.371962,2.760478,33.88,-1.7,2.21,10.07
50.371962,2.760478,33.88,-0.74,0.51,9.76
50.371694,2.760706,34.0,-0.75,2.34,9.01
50.371694,2.760706,34.0,-1.13,2.11,10.41
50.37143,2.760945,34.1,-0.23,0.8,10.08
50.37143,2.760945,34.1,-0.9,2.34,9.29
50.371167,2.761192,34.16,-0.45,1.5,10.47
50.371167,2.761192,34.16,1.09,1.81,10.61
50.370905,2.761446,34.16,-0.47,2.57,10.06
50.370905,2.761446,34.16,-1.91,2.14,9.84
50.370645,2.76171,34.27,-0.88,0.2,7.91
50.370645,2.76171,34.27,-1.66,1.7,9.88
50.370392,2.761974,33.52,-0.17,-0.01,11.42
50.370392,2.761974,33.52,-0.74,1.3,9.87
50.370144,2.762237,33.1,-1.49,1.22,9.85
50.370144,2.762237,33.1,-1.12,1.49,10.62
50.3699,2.762505,33.09,1.24,1.18,10.09
50.3699,2.762505,33.09,0.37,0.96,10.26
50.369659,2.762775,33.17,-1.51,1.81,9.05
50.369659,2.762775,33.17,0.24,1.03,8.42
50.369417,2.763038,33.17,1.23,0.57,11.47
50.369417,2.763038,33.17,-0.46,1.27,10.02
50.369177,2.763319,32.98,-0.4,0.61,9.66
50.369177,2.763319,32.98,-1.35,0.23,10.1
50.368941,2.763587,32.45,0.8,1.45,11.05
50.368941,2.763587,32.45,-1.47,1.88,8.41
50.368713,2.763863,32.26,-1.76,2.04,10.68
50.368713,2.763863,32.26,0.13,2.02,9.14
50.368487,2.764139,32.32,-0.21,0.78,8.94
50.368487,2.764139,32.32,0.46,1.37,11.51
50.368259,2.764416,32.42,0.31,0.79,9.74
50.368259,2.764416,32.42,-1.26,2.04,10.49
50.368032,2.764704,32.52,-0.37,0.88,8.67
50.368032,2.764704,32.52,-1.98,0.79,8.17
50.367803,2.76499,32.56,0.26,1.47,10.12
50.367803,2.76499,32.56,-2.03,1.24,9.4
50.367569,2.765282,32.7,-0.62,2.23,8.78
50.367569,2.765282,32.7,0.12,2.38,9.46
50.367341,2.765576,32.8,-0.63,1.4,10.52
50.367117,2.765869,32.9,-0.59,2.03,9.15
50.367117,2.765869,32.9,0.29,0.98,9.39
50.366887,2.766163,33.01,0.23,1.3,11.28
50.366887,2.766163,33.01,-2.17,1.78,9.06
50.366657,2.766462,33.22,-1.8,1.23,8.64
50.366657,2.766462,33.22,-0.59,1.13,10.14
50.36643,2.766756,33.23,-0.02,2.1,8.36
50.36643,2.766756,33.23,1.3,0.76,10.65
50.366195,2.767063,33.28,-0.64,1.69,8.83
50.366195,2.767063,33.28,-0.94,1.15,8.6
50.365965,2.767363,33.43,-1.62,2.39,10.13
50.365965,2.767363,33.43,-0.03,1.17,10.75
50.365735,2.767658,33.45,-0.12,1.84,11.13
50.365735,2.767658,33.45,0.34,0.82,9.95
50.365505,2.767952,33.48,-2.26,1.92,8.96
50.365505,2.767952,33.48,0.48,1.24,9.67
50.365274,2.76826,33.72,-2.12,1.69,9.93
50.365274,2.76826,33.72,1.64,1.54,11.08
50.365041,2.768572,33.75,-0.22,0.73,8.95
50.365041,2.768572,33.75,1.59,1.6,11.28
50.364804,2.768877,33.92,-0.99,1.06,9.07
50.364804,2.768877,33.92,-0.76,2.33,9.48
50.364562,2.769181,33.91,-1.38,0.96,10.84
50.364562,2.769181,33.91,0.37,0.87,10.43
50.364324,2.769488,34.04,-1.13,2.04,8.4
50.364324,2.769488,34.04,-1.41,2.28,9.88
50.364088,2.769793,34.13,-0.07,1.16,9.97
50.364088,2.769793,34.13,-1.07,2.42,9.43
50.363853,2.770096,34.24,-2.01,1.14,8.83
50.363853,2.770096,34.24,0.42,1.71,11.3
50.363621,2.770401,34.28,-0.67,1.59,7.24
50.363621,2.770401,34.28,-1.06,2.64,8.3
50.36339,2.77071,34.3,-1.36,2.38,11.03
50.36339,2.77071,34.3,-0.92,0.69,10.13
50.363152,2.77102,34.41,-0.83,1.61,7.21
50.363152,2.77102,34.41,-0.58,0.73,8.91
50.362913,2.771329,34.66,-1.65,2.09,10.07
50.362913,2.771329,34.66,-1.66,2.15,8.22
50.362673,2.771642,34.95,-1.12,2.21,9.76
50.362673,2.771642,34.95,-0.07,2.3,10.3
50.362429,2.771955,35.12,-0.85,2.37,8.52
50.362186,2.772273,35.3,-1.05,2.51,8.14
50.362186,2.772273,35.3,-0.33,2.04,12.42
50.361944,2.772593,35.44,-1.24,3.0,10.84
50.361944,2.772593,35.44,-0.47,1.81,8.54
50.361697,2.772914,35.68,-0.38,1.26,9.78
50.361697,2.772914,35.68,0.76,0.91,11.09
50.361448,2.773231,35.37,-1.58,0.52,7.45
50.361448,2.773231,35.37,-0.57,0.77,10.4
50.361205,2.773544,34.62,-1.04,0.52,9.65
50.361205,2.773544,34.62,-0.13,1.47,9.35
50.360963,2.77385,34.12,-0.08,0.62,12.23
50.360963,2.77385,34.12,0.65,-0.28,10.36
50.360724,2.774153,33.9,-1.46,0.8,11.06
50.360724,2.774153,33.9,-0.8,0.96,8.73
50.36049,2.774452,33.78,-1.05,1.89,8.35
50.36049,2.774452,33.78,-1.35,2.56,9.24
50.360255,2.774753,33.94,-1.1,1.0,7.99
50.360255,2.774753,33.94,-0.15,2.06,8.35
50.360018,2.775053,34.16,-1.49,1.95,11.77
50.360018,2.775053,34.16,0.42,1.78,9.53
50.35978,2.775352,34.11,-1.1,1.88,9.42
50.35978,2.775352,34.11,0.01,2.86,9.44
50.359538,2.775654,34.23,-1.69,0.8,11.24
50.359538,2.775654,34.23,0.51,0.91,8.55
50.359296,2.775954,34.32,-0.3,1.99,8.85
50.359296,2.775954,34.32,-1.3,2.29,9.16
50.359053,2.77625,34.44,0.75,1.13,10.47
50.359053,2.77625,34.44,-0.33,1.54,9.96
50.358805,2.776541,34.48,-0.5,0.39,6.89
50.358805,2.776541,34.48,-0.68,0.38,9.98
50.358558,2.776837,34.5,-0.47,0.91,10.09
50.358558,2.776837,34.5,0.56,1.39,10.37
50.358312,2.777132,34.52,1.03,1.7,10.57
50.358312,2.777132,34.52,-0.33,0.94,7.97
50.358074,2.777437,34.5,-0.03,1.12,9.84
50.358074,2.777437,34.5,-1.01,0.26,9.59
50.357833,2.777737,34.24,-0.97,0.48,9.28
50.357833,2.777737,34.24,0.22,1.68,9.65
50.357595,2.778031,33.55,1.16,1.03,10.65
50.357595,2.778031,33.55,-1.51,2.44,10.69
50.357355,2.778317,33.49,-1.8,1.02,7.76
50.357116,2.778602,33.51,-0.9,2.56,10.32
50.357116,2.778602,33.51,-0.91,0.64,9.62
50.356874,2.778888,33.7,-0.17,2.5,8.57
50.356874,2.778888,33.7,0.49,1.26,8.69
50.356636,2.779178,33.76,-1.82,2.82,10.57
50.356636,2.779178,33.76,0.84,0.96,10.88
50.356396,2.779467,33.84,-1.73,0.76,9.43
50.356396,2.779467,33.84,-1.7,1.92,10.41
50.356156,2.779759,33.88,1.68,0.71,9.73
50.356156,2.779759,33.88,-1.17,2.22,9.56
50.355914,2.780052,34.05,0.28,0.74,8.71
50.355914,2.780052,34.05,-0.26,1.09,9.72
50.355669,2.780342,34.27,-1.25,2.17,9.57
50.355669,2.780342,34.27,-1.36,1.97,10.58
50.355422,2.780637,34.47,0.78,1.75,11.46
50.355422,2.780637,34.47,0.29,0.87,11.32
50.355175,2.780934,34.77,-0.49,0.07,8.82
50.355175,2.780934,34.77,-0.64,0.42,9.87
50.354926,2.781236,34.78,-1.03,0.79,8.66
50.354926,2.781236,34.78,-1.14,0.72,8.42
50.354678,2.781537,34.78,-0.72,1.94,11.12
50.354678,2.781537,34.78,-0.92,0.72,9.13
50.354432,2.781839,34.2,0.88,1.78,10.38
50.354432,2.781839,34.2,-1.03,2.58,9.42
50.354193,2.782138,34.12,-0.35,1.33,11.54
50.354193,2.782138,34.12,1.59,1.06,10.38
50.353954,2.78243,34.17,-2.52,0.9,8.2
50.353954,2.78243,34.17,-2.25,2.12,9.87
50.353711,2.782718,34.2,-0.57,1.76,10.07
50.353711,2.782718,34.2,0.26,1.07,9.11
50.353467,2.783008,34.21,-0.98,2.76,7.96
50.353467,2.783008,34.21,-1.76,1.86,11.47
50.353224,2.783299,34.26,0.97,0.95,10.98
50.353224,2.783299,34.26,0.59,2.78,10.49
50.352981,2.783591,34.22,-0.52,2.8,10.23
50.352981,2.783591,34.22,-1.08,1.17,11.71
50.35274,2.783883,34.27,-1.13,0.78,8.93
50.35274,2.783883,34.27,1.14,1.58,11.24
50.352496,2.784176,34.31,-1.86,2.17,8.17
50.352496,2.784176,34.31,-0.07,0.69,9.72
50.352249,2.784468,34.43,-1.08,0.19,8.25
50.352005,2.784759,34.34,0.79,1.23,9.6
50.352005,2.784759,34.34,-0.57,1.04,12.11
50.35176,2.785053,34.44,1.51,1.49,8.89
50.35176,2.785053,34.44,0.76,1.4,8.83
50.351514,2.78535,34.5,0.07,1.52,8.37
50.351514,2.78535,34.5,-0.79,1.93,6.25
50.351269,2.785646,34.06,0.47,0.96,10.72
50.351269,2.785646,34.06,-0.2,1.86,10.42
50.351026,2.785936,33.59,-0.93,1.14,10.97
50.351026,2.785936,33.59,-1.51,0.51,9.66
50.350784,2.786221,33.42,1.78,0.8,11.48
50.350784,2.786221,33.42,-0.67,1.17,9.62
50.350547,2.78651,33.37,-0.09,0.97,6.35
50.350547,2.78651,33.37,-1.41,2.32,11.17
50.35031,2.786799,33.42,0.41,0.48,8.9
50.35031,2.786799,33.42,0.88,0.94,9.31
50.350073,2.787085,33.48,-1.87,1.24,10.18
50.350073,2.787085,33.48,-0.46,2.88,10.92
50.349832,2.787371,33.59,1.97,1.45,9.98
50.349832,2.787371,33.59,-0.41,2.11,9.39
50.349594,2.78766,33.69,0.42,0.54,9.62
50.349594,2.78766,33.69,0.36,0.6,9.85
50.349352,2.787951,33.75,-0.32,2.65,9.47
50.349352,2.787951,33.75,-1.06,0.64,9.03
50.349112,2.788242,33.83,-1.3,2.39,10.32
50.349112,2.788242,33.83,0.07,1.25,10.28
50.348873,2.788533,33.87,-0.94,0.91,9.71
50.348873,2.788533,33.87,-0.25,1.67,9.64
50.348632,2.788824,33.97,0.24,1.06,10.92
50.348632,2.788824,33.97,-0.45,0.5,8.44
50.348392,2.789121,34.06,0.32,1.57,11.56
50.348392,2.789121,34.06,1.58,0.94,10.19
50.348153,2.789416,34.06,-0.74,0.9,9.6
50.348153,2.789416,34.06,-0.2,0.99,9.76
50.347911,2.789711,34.22,-0.56,1.14,11.35
50.347911,2.789711,34.22,-0.57,1.13,8.78
50.347671,2.790007,34.34,-1.16,2.61,9.38
50.347671,2.790007,34.34,-0.75,3.11,9.43
50.347427,2.790304,34.61,-1.75,2.6,9.87
50.34718,2.790609,34.76,-0.16,1.14,10.19
50.34718,2.790609,34.76,-0.5,0.82,9.19
50.346931,2.790921,34.78,-0.47,0.97,9.6
50.346931,2.790921,34.78,-0.24,1.46,8.29
50.346695,2.791226,34.3,-0.51,0.68,10.28
50.346695,2.791226,34.3,-0.1,-0.26,10.72
50.346456,2.791532,33.64,-0.59,1.45,9.52
50.346456,2.791532,33.64,1.46,-0.92,13.48
50.346225,2.791837,33.17,-1.11,1.05,10.75
50.346225,2.791837,33.17,-1.29,0.63,9.84
50.345998,2.792135,32.47,0.36,0.36,9.67
50.345998,2.792135,32.47,1.42,-0.07,10.64
50.345775,2.792429,32.0,1.34,0.27,9.69
50.345775,2.792429,32.0,0.26,0.76,11.76
50.345555,2.79272,31.82,-0.66,0.92,11.05
50.345555,2.79272,31.82,-1.46,1.1,9.14
50.345337,2.793012,31.74,0.11,1.07,10.9
50.345337,2.793012,31.74,0.91,1.05,11.88
50.345122,2.793305,31.77,-0.32,1.7,9.34
50.345122,2.793305,31.77,-0.75,1.25,8.7
50.344905,2.793598,31.79,-1.54,1.67,9.81
50.344905,2.793598,31.79,0.8,1.45,11.54
50.344693,2.793895,31.78,-1.29,1.77,9.11
50.344693,2.793895,31.78,-0.13,1.23,11.01
50.344477,2.794193,31.99,1.62,0.66,10.38
50.344477,2.794193,31.99,-0.42,1.82,11.23
50.344255,2.79449,32.18,-0.15,1.32,9.46
50.344255,2.79449,32.18,-1.47,2.37,9.07
50.344034,2.794789,32.27,-1.47,1.65,8.31
50.344034,2.794789,32.27,-0.87,1.13,8.57
50.343812,2.795089,32.53,-1.24,1.61,8.92
50.343812,2.795089,32.53,-1.77,1.5,10.0
50.343595,2.795398,32.7,-1.82,2.0,11.02
50.343595,2.795398,32.7,0.27,1.31,9.91
50.343374,2.795707,32.87,0.11,1.19,9.11
50.343374,2.795707,32.87,-1.36,1.89,8.75
50.343155,2.796016,32.93,-0.13,0.57,9.78
50.343155,2.796016,32.93,0.56,1.01,11.45
50.342937,2.796333,33.04,-0.74,1.57,9.08
50.342721,2.796651,33.05,-0.14,0.71,9.56
50.342721,2.796651,33.05,-0.37,1.58,11.6
50.342504,2.796963,33.22,-0.7,1.14,8.18
50.342504,2.796963,33.22,-2.36,1.52,8.8
50.342296,2.797288,33.26,-0.76,2.14,8.66
50.342296,2.797288,33.26,0.05,0.95,9.83
50.342082,2.797609,33.27,-0.15,1.02,12.09
50.342082,2.797609,33.27,0.14,0.95,8.99
50.341869,2.797933,33.23,-0.16,1.21,8.46
50.341869,2.797933,33.23,-1.66,1.72,9.98
50.341665,2.798262,33.2,-0.99,1.69,8.87
50.341665,2.798262,33.2,0.81,2.16,11.43
50.341461,2.798591,33.17,-0.19,0.91,8.98
50.341461,2.798591,33.17,0.07,0.23,10.77
50.341245,2.798913,33.17,-0.62,0.91,11.44
50.341245,2.798913,33.17,0.33,1.28,9.79
50.341042,2.799246,33.23,-1.03,1.38,10.02
50.341042,2.799246,33.23,-0.59,0.74,8.47
50.340839,2.799583,33.24,1.01,0.64,10.8
50.340839,2.799583,33.24,-0.12,0.66,9.27
50.340631,2.799916,33.21,0.06,1.59,9.43
50.340631,2.799916,33.21,-0.6,1.21,10.98
50.340422,2.80025,33.24,-0.3,1.05,8.89
50.340422,2.80025,33.24,-1.47,1.92,11.11
50.340219,2.800591,33.25,-0.61,1.07,8.65
50.340219,2.800591,33.25,-0.37,1.78,8.68
50.340015,2.800932,33.25,-0.89,2.08,9.59
50.340015,2.800932,33.25,-0.01,1.51,9.99
50.339808,2.801269,33.24,-1.59,1.14,10.48
50.339808,2.801269,33.24,-0.91,1.04,7.9
50.339607,2.801611,33.3,-1.09,1.64,11.77
50.339607,2.801611,33.3,-0.81,2.2,9.86
50.339401,2.801954,33.26,0.39,1.47,10.82
50.339401,2.801954,33.26,-1.02,1.47,9.63
50.339201,2.802302,33.24,0.74,1.91,12.02
50.339201,2.802302,33.24,-0.84,1.91,11.67
50.339003,2.802649,33.21,-0.46,0.86,8.99
50.339003,2.802649,33.21,-1.25,1.6,11.05
50.338802,2.802996,33.17,-0.99,2.09,8.29
50.338802,2.802996,33.17,0.18,1.46,10.21
50.338602,2.80334,33.14,0.2,2.31,10.21
50.338602,2.80334,33.14,-0.51,1.48,10.84
50.3384,2.803685,33.17,1.04,1.63,10.64
50.338202,2.804037,33.22,0.01,1.16,8.93
50.338202,2.804037,33.22,-1.11,0.89,8.44
50.33801,2.804393,33.21,-0.64,1.48,11.55
50.33801,2.804393,33.21,-0.68,2.36,10.37
50.337816,2.804747,33.2,-0.78,1.31,8.58
50.337816,2.804747,33.2,-0.08,1.7,9.22
50.337626,2.805108,33.15,0.57,1.1,10.13
50.337626,2.805108,33.15,0.61,1.58,11.58
50.337432,2.805482,33.19,0.48,1.89,9.51
50.337432,2.805482,33.19,-0.82,1.91,8.4
50.337242,2.805843,33.2,-2.58,1.89,9.86
50.337242,2.805843,33.2,-0.34,0.98,8.4
50.33705,2.806202,33.24,-0.92,2.32,9.17
50.33705,2.806202,33.24,-0.15,1.58,9.05
50.336862,2.806556,33.19,0.67,1.67,10.84
50.336862,2.806556,33.19,0.19,1.43,9.68
50.336677,2.806911,33.21,0.99,1.05,10.0
50.336677,2.806911,33.21,0.19,1.5,9.03
50.336493,2.807271,33.17,-0.47,1.05,9.04
50.336493,2.807271,33.17,-1.3,1.87,11.94
50.336308,2.807634,33.13,-1.62,2.43,9.36
50.336308,2.807634,33.13,-0.36,0.79,8.56
50.336123,2.808005,33.11,-1.95,2.09,9.99
50.336123,2.808005,33.11,-1.46,1.24,9.87
50.335944,2.80837,33.03,-0.46,0.91,9.68
50.335944,2.80837,33.03,-0.42,2.75,10.98
50.335767,2.808734,33.0,-0.27,1.14,10.02
50.335767,2.808734,33.0,0.41,1.37,9.67
50.33559,2.809102,32.98,-2.08,2.51,8.13
50.33559,2.809102,32.98,0.02,1.09,9.44
50.335409,2.809473,33.01,-0.35,1.06,9.05
50.335409,2.809473,33.01,-1.03,2.28,10.39
50.335227,2.809849,32.94,-1.11,1.7,7.79
50.335227,2.809849,32.94,-1.46,1.48,10.52
50.335052,2.810216,32.96,-1.82,2.36,10.44
50.335052,2.810216,32.96,0.3,0.78,8.91
50.334876,2.810583,32.99,1.21,0.29,9.82
50.334876,2.810583,32.99,-1.12,2.54,9.42
50.334703,2.810959,33.06,-1.26,1.47,8.37
50.33453,2.811331,33.04,-0.55,1.28,9.2
50.33453,2.811331,33.04,-0.37,2.87,9.11
50.334355,2.811706,33.07,-0.17,0.92,9.05
50.334355,2.811706,33.07,-0.69,1.47,12.22
50.334184,2.812083,33.17,-1.03,2.35,9.78
50.334184,2.812083,33.17,1.51,1.46,11.92
50.334012,2.812463,33.15,-0.2,1.56,10.15
50.334012,2.812463,33.15,0.18,1.42,9.71
50.33384,2.812846,33.25,-1.16,2.52,10.27
50.33384,2.812846,33.25,-0.09,2.81,9.84
50.333668,2.813229,33.34,-0.35,1.05,8.12
50.333668,2.813229,33.34,-0.44,2.47,10.2
50.333498,2.813614,33.45,0.37,1.34,11.14
50.333498,2.813614,33.45,-1.17,2.38,9.7
50.333326,2.814,33.48,1.02,1.44,10.64
50.333326,2.814,33.48,-0.69,1.35,8.89
50.333155,2.814387,33.54,-0.79,1.49,8.03
50.333155,2.814387,33.54,-0.91,2.25,8.94
50.332987,2.814777,33.59,-0.13,1.68,10.79
50.332987,2.814777,33.59,-0.78,2.29,8.6
50.332822,2.815168,33.61,-0.31,0.65,10.32
50.332822,2.815168,33.61,-0.71,1.1,9.95
50.33266,2.815563,33.65,-2.22,2.44,8.39
50.33266,2.815563,33.65,0.12,0.91,10.01
50.332494,2.815954,33.71,-1.99,2.28,8.64
50.332494,2.815954,33.71,1.39,1.13,11.73
50.332335,2.816356,33.8,-0.56,2.47,10.46
50.332335,2.816356,33.8,1.77,1.35,10.9
50.33217,2.816757,33.91,-1.33,0.86,9.75
50.33217,2.816757,33.91,-0.79,1.91,8.91
50.332006,2.817157,33.95,0.73,1.14,10.66
50.332006,2.817157,33.95,-1.74,0.43,8.55
50.331839,2.817558,34.01,-1.03,2.67,9.89
50.331839,2.817558,34.01,0.0,1.12,8.91
50.331677,2.817965,34.08,-1.15,0.89,9.51
50.331677,2.817965,34.08,-0.2,1.81,10.63
50.331516,2.818376,34.14,0.45,1.32,9.86
50.331516,2.818376,34.14,-0.96,0.34,9.2
50.331359,2.818791,34.23,-0.64,1.71,9.66
50.331201,2.819206,34.27,0.84,1.06,10.47
50.331201,2.819206,34.27,-0.91,1.28,9.62
50.331043,2.819613,34.33,-0.51,0.77,10.36
50.331043,2.819613,34.33,-1.68,2.09,11.2
50.330886,2.820038,34.41,-0.18,1.05,9.91
50.330886,2.820038,34.41,1.51,1.4,10.3
50.330726,2.820464,34.4,-0.55,1.72,10.57
50.330726,2.820464,34.4,-0.64,2.43,7.81
50.330575,2.820887,34.41,-0.42,3.05,8.76
50.330575,2.820887,34.41,-1.02,0.2,8.83
50.330429,2.821311,34.34,-1.09,0.75,10.24
50.330429,2.821311,34.34,1.0,1.93,11.07
50.330277,2.821731,34.37,-0.14,1.07,11.78
50.330277,2.821731,34.37,0.48,1.45,11.28
50.330124,2.822151,34.45,-1.81,0.5,7.85
50.330124,2.822151,34.45,-0.54,0.93,10.21
50.329976,2.822574,34.36,-1.13,2.28,10.57
50.329976,2.822574,34.36,-0.98,1.05,9.23
50.32983,2.822999,34.36,0.54,1.48,10.63
50.32983,2.822999,34.36,-0.91,2.2,8.83
50.329688,2.823427,34.43,-0.99,1.64,8.63
50.329688,2.823427,34.43,-1.3,-0.35,9.92
50.329544,2.823853,33.85,-1.13,1.52,9.72
50.329544,2.823853,33.85,-1.13,1.44,8.01
50.329406,2.824272,33.59,0.31,1.37,10.38
50.329406,2.824272,33.59,-0.44,1.79,9.04
50.329266,2.82469,33.57,-1.36,0.7,9.46
50.329266,2.82469,33.57,-2.0,2.12,6.97
50.329128,2.82511,33.59,0.69,1.53,10.74
50.329128,2.82511,33.59,-0.87,0.74,8.4
50.328991,2.825531,33.68,-0.61,0.9,13.03
50.328991,2.825531,33.68,-1.37,0.97,8.61
50.328855,2.825954,33.68,0.01,2.09,9.06
50.328855,2.825954,33.68,1.19,1.26,11.52
50.328723,2.826379,33.74,-0.75,1.92,8.48
50.328723,2.826379,33.74,-0.19,1.5,12.06
50.32859,2.826803,33.77,-0.31,1.18,8.56
50.328457,2.827232,33.66,-0.99,0.88,10.01
50.328457,2.827232,33.66,-0.95,1.34,10.09
50.328328,2.827658,33.59,-1.6,1.46,9.28
50.328328,2.827658,33.59,-1.12,0.93,9.45
50.328203,2.828086,33.57,-1.56,2.27,8.98
50.328203,2.828086,33.57,0.24,1.43,9.1
50.328076,2.828516,33.57,-2.14,1.8,10.16
50.328076,2.828516,33.57,0.51,0.88,8.61
50.327948,2.828945,33.58,-0.93,1.32,10.5
50.327948,2.828945,33.58,-0.58,1.03,8.23
50.327821,2.829373,33.46,-0.47,2.17,8.45
50.327821,2.829373,33.46,0.14,1.45,10.6
50.327698,2.829803,33.43,-1.44,1.59,11.06
50.327698,2.829803,33.43,-0.16,0.85,9.87
50.327576,2.830234,33.37,-0.94,1.95,8.92
50.327576,2.830234,33.37,-0.52,1.02,7.73
50.327457,2.830662,33.32,-0.94,1.02,12.63
50.327457,2.830662,33.32,0.13,1.18,9.98
50.327337,2.831089,33.35,-0.67,1.63,9.79
50.327337,2.831089,33.35,-0.9,2.34,10.18
50.327218,2.831513,33.34,0.56,1.72,11.11
50.327218,2.831513,33.34,-1.78,1.58,12.01
50.327097,2.831944,33.34,-1.31,0.89,9.59
50.327097,2.831944,33.34,-0.79,1.68,10.43
50.32698,2.832381,33.34,-2.07,0.99,8.04
50.32698,2.832381,33.34,-0.47,1.41,12.51
50.32687,2.832816,33.33,-0.24,0.81,7.41
50.32687,2.832816,33.33,0.0,0.6,8.36
50.326762,2.833253,33.3,0.26,1.92,11.0
50.326762,2.833253,33.3,-0.71,0.66,8.63
50.326646,2.833686,32.86,0.74,1.65,11.14
50.326646,2.833686,32.86,-1.7,1.58,9.43
50.326539,2.834115,32.89,-0.47,1.15,9.19
50.326539,2.834115,32.89,-0.57,0.62,11.58
50.326428,2.834545,33.0,-1.36,1.5,9.32
50.326428,2.834545,33.0,0.26,0.78,11.35
50.326321,2.834976,33.15,-1.13,1.56,11.09
50.326321,2.834976,33.15,-0.29,2.38,8.88
50.326216,2.835411,33.19,0.55,1.31,9.72
50.326216,2.835411,33.19,-0.61,2.33,8.77
50.326108,2.835846,33.21,0.26,1.44,10.77
50.326108,2.835846,33.21,0.07,1.11,10.34
50.326001,2.836281,33.3,-0.91,1.04,9.78
50.325894,2.836717,33.32,-1.02,0.47,8.54
50.325894,2.836717,33.32,-0.97,1.79,9.08
50.32579,2.837155,33.46,0.27,1.12,9.17
50.32579,2.837155,33.46,-2.42,1.99,10.07
50.325684,2.837598,33.6,0.03,1.46,10.8
50.325684,2.837598,33.6,-0.78,1.76,11.23
50.325584,2.838043,33.74,-1.92,1.25,8.65
50.325584,2.838043,33.74,-0.39,1.67,10.78
50.325482,2.83849,34.0,-1.2,1.81,8.84
50.325482,2.83849,34.0,-1.17,1.39,9.49
50.325383,2.838943,34.28,-0.58,0.58,9.46
50.325383,2.838943,34.28,0.98,1.6,11.35
50.325284,2.839399,34.46,0.33,1.12,9.0
50.325284,2.839399,34.46,0.15,0.85,9.77
50.325189,2.839858,34.58,0.17,2.74,8.83
50.325189,2.839858,34.58,-0.19,2.5,9.03
50.325089,2.840318,34.6,-1.21,1.34,9.39
50.325089,2.840318,34.6,-1.03,-0.19,8.23
50.324995,2.840775,33.96,0.17,1.31,10.07
50.324995,2.840775,33.96,-0.97,2.57,9.35
50.324905,2.841233,34.08,0.91,1.14,10.22
50.324905,2.841233,34.08,-0.12,1.21,8.84
50.32481,2.841692,34.09,-1.49,2.9,9.3
50.32481,2.841692,34.09,-0.47,1.9,11.09
50.324717,2.842153,34.24,-0.21,1.37,9.78
50.324717,2.842153,34.24,-0.76,2.66,9.07
50.324626,2.842613,34.34,-1.2,2.19,9.07
50.324626,2.842613,34.34,-0.42,2.5,10.28
50.324541,2.843077,34.4,-1.47,0.57,8.17
50.324541,2.843077,34.4,-0.01,1.16,10.69
50.324449,2.843539,34.45,0.45,2.5,10.54
50.324449,2.843539,34.45,0.84,1.75,10.3
50.324364,2.844002,34.47,-0.03,1.17,9.72
50.324364,2.844002,34.47,-1.86,-0.13,8.54
50.324283,2.844469,34.44,-1.09,1.24,10.8
50.324283,2.844469,34.44,-0.25,0.41,9.79
50.324201,2.844929,33.84,-0.38,1.3,10.64
50.324201,2.844929,33.84,-0.1,0.86,11.39
50.324123,2.845385,33.46,-0.64,1.87,9.59
50.324123,2.845385,33.46,-0.1,0.79,10.88
50.324048,2.84584,33.5,-0.51,3.06,11.26
50.324048,2.84584,33.5,0.76,1.01,9.04
50.323967,2.846295,33.64,-0.44,0.96,11.28
50.323891,2.846751,33.75,-0.02,1.11,11.06
50.323891,2.846751,33.75,-0.8,0.88,8.83
50.323816,2.847211,33.94,-1.25,3.56,9.28
50.323816,2.847211,33.94,-2.01,0.57,9.84
50.323746,2.847673,34.04,0.37,2.37,10.35
50.323746,2.847673,34.04,-1.53,2.24,8.93
50.323676,2.848139,34.1,0.08,1.08,10.39
50.323676,2.848139,34.1,-0.31,0.55,8.88
50.323605,2.84861,34.2,-0.43,2.33,9.43
50.323605,2.84861,34.2,-1.33,1.94,10.07
50.323536,2.84908,34.2,-0.45,1.42,12.44
50.323536,2.84908,34.2,-0.85,1.69,8.84
50.323465,2.849544,33.58,-0.68,0.55,10.53
50.323465,2.849544,33.58,-1.11,2.33,10.68
50.3234,2.850004,33.33,-1.33,1.68,9.03
50.3234,2.850004,33.33,-1.68,2.05,9.77
50.323336,2.85046,33.49,0.36,1.22,10.91
50.323336,2.85046,33.49,-1.58,2.05,8.44
50.323273,2.850921,33.7,1.48,1.75,11.51
50.323273,2.850921,33.7,0.0,1.25,9.88
50.323207,2.851381,33.86,0.79,1.59,9.54
50.323207,2.851381,33.86,-1.16,0.36,10.02
50.323142,2.851845,34.01,-1.41,1.41,8.7
50.323142,2.851845,34.01,-1.23,2.3,8.78
50.32308,2.852314,34.18,-0.68,0.6,9.0
50.32308,2.852314,34.18,-0.8,0.53,9.43
50.323019,2.852783,34.36,0.73,1.9,10.19
50.323019,2.852783,34.36,0.71,1.41,10.64
50.32296,2.853256,34.51,0.91,1.34,9.63
50.32296,2.853256,34.51,0.52,1.94,10.28
50.322905,2.853737,34.68,-0.06,0.83,9.08
50.322905,2.853737,34.68,-0.43,1.72,10.18
50.322849,2.854219,34.82,1.02,2.03,10.32
50.322849,2.854219,34.82,-0.28,2.01,8.83
50.322795,2.854701,34.84,0.39,0.34,11.8
50.322795,2.854701,34.84,-0.58,0.77,9.8
50.322742,2.85518,34.36,-0.28,0.57,11.03
50.322742,2.85518,34.36,-0.41,2.3,8.81
50.32269,2.855655,34.33,0.14,1.92,8.84
50.322642,2.856132,34.41,-1.27,1.02,9.34
50.322642,2.856132,34.41,-0.25,0.77,9.0
50.322594,2.85661,34.5,1.12,1.75,9.4
50.322594,2.85661,34.5,1.09,1.28,10.21
50.322544,2.857088,34.54,1.03,1.16,10.25
50.322544,2.857088,34.54,-0.88,0.48,11.5
50.32249,2.857564,34.18,-0.86,1.06,7.32
50.32249,2.857564,34.18,-0.6,1.06,9.75
50.322442,2.858034,33.77,-0.44,1.41,9.64
50.322442,2.858034,33.77,-0.47,0.79,10.65
50.322393,2.858501,33.7,-0.13,1.09,10.62
50.322393,2.858501,33.7,0.45,1.37,7.89
50.322343,2.858968,33.72,-0.99,1.54,10.01
50.322343,2.858968,33.72,-0.61,1.29,10.4
50.322292,2.859434,33.66,-0.45,1.79,6.89
50.322292,2.859434,33.66,-1.45,2.56,8.17
50.322242,2.859901,33.65,0.12,1.33,11.25
50.322242,2.859901,33.65,-1.3,1.08,9.97
50.322193,2.860369,33.65,-0.11,1.3,11.34
50.322193,2.860369,33.65,0.05,1.39,4.05
50.322143,2.860832,33.55,-2.22,1.71,10.5
50.322143,2.860832,33.55,0.13,1.56,9.47
50.32209,2.861294,33.57,-0.66,1.3,10.16
50.32209,2.861294,33.57,-1.17,0.98,9.28
50.322038,2.861758,33.42,-1.8,1.66,10.61
50.322038,2.861758,33.42,-0.86,0.78,9.93
50.321986,2.862219,33.02,0.83,0.79,9.99
50.321986,2.862219,33.02,-0.33,1.9,9.69
50.321939,2.862674,32.68,-0.11,1.98,9.13
50.321939,2.862674,32.68,-0.8,1.11,8.76
50.321893,2.863128,32.52,0.91,0.98,10.75
50.321893,2.863128,32.52,-1.12,2.38,9.26
50.321846,2.863578,32.44,-0.33,1.37,9.34
50.321846,2.863578,32.44,-0.38,0.97,8.85
50.321801,2.864028,32.41,-1.07,1.32,8.84
50.321801,2.864028,32.41,-1.12,1.06,7.93
50.321756,2.864478,32.42,1.3,1.18,11.08
50.321756,2.864478,32.42,-1.37,1.83,10.73
50.321706,2.864926,32.48,-1.28,1.93,9.25
50.321706,2.864926,32.48,-0.43,1.36,7.83
50.321658,2.865375,32.59,1.43,1.45,10.99
50.32161,2.865826,32.69,1.35,0.47,11.39
50.32161,2.865826,32.69,-2.2,1.98,10.46
50.321564,2.866281,32.75,-1.09,0.97,9.58
50.321564,2.866281,32.75,-0.5,1.11,9.62
50.321513,2.866736,32.85,0.13,1.34,11.49
50.321513,2.866736,32.85,-0.81,1.92,11.25
50.321466,2.867192,32.94,-0.61,1.26,8.45
50.321466,2.867192,32.94,1.16,1.1,10.27
50.321417,2.867648,33.04,-0.79,1.64,11.38
50.321417,2.867648,33.04,0.16,0.42,10.2
50.321368,2.868104,33.07,0.03,1.6,12.02
50.321368,2.868104,33.07,-1.62,1.28,11.23
50.321317,2.868563,33.08,-0.08,1.05,8.52
50.321317,2.868563,33.08,-0.22,1.12,11.49
50.321268,2.869021,33.12,-1.31,2.34,8.83
50.321268,2.869021,33.12,-0.21,1.32,9.83
50.321221,2.869481,33.12,-0.95,1.82,10.63
50.321221,2.869481,33.12,-0.79,2.47,9.87
50.321173,2.86994,33.12,0.31,0.28,9.72
50.321173,2.86994,33.12,-0.41,2.15,9.99
50.321122,2.870399,33.17,-0.15,1.7,9.51
50.321122,2.870399,33.17,1.83,1.66,11.67
50.321073,2.870859,33.22,0.36,1.51,9.5
50.321073,2.870859,33.22,1.49,0.93,11.0
50.321026,2.871318,33.26,-1.16,1.36,11.27
50.321026,2.871318,33.26,-1.52,1.55,8.84
50.320972,2.871776,33.27,-0.91,2.58,10.59
50.320972,2.871776,33.27,-0.3,1.11,9.2
50.320921,2.872239,33.29,1.0,0.95,12.8
50.320921,2.872239,33.29,-0.82,1.23,9.15
50.320872,2.872703,33.37,0.61,0.91,9.52
50.320872,2.872703,33.37,0.33,1.86,8.89
50.320823,2.873166,33.4,0.87,1.21,10.8
50.320823,2.873166,33.4,-1.15,1.31,10.85
50.320774,2.873628,33.4,-0.57,0.92,9.27
50.320774,2.873628,33.4,-1.07,2.49,10.9
50.320725,2.874094,33.45,1.65,0.95,8.76
50.320725,2.874094,33.45,-0.04,1.19,11.89
50.320677,2.874559,33.44,-0.93,0.43,8.21
50.320677,2.874559,33.44,-1.86,2.75,10.09
50.320628,2.87502,33.5,-0.76,1.13,9.37
50.320628,2.87502,33.5,-1.92,2.06,8.97
