Location-lat,Location-long,Speed,Accelerometer-X,Accelerometer-Y,Accelerometer-Z
49.848708,4.777346,0.0,0.53,0.81,7.93
49.848708,4.777346,0.0,-2.69,1.41,10.7
49.848708,4.777346,0.0,-1.98,1.99,13.2
49.848708,4.777346,0.0,-0.26,1.73,8.43
49.848708,4.777346,0.0,0.92,-0.16,6.72
49.848708,4.777346,0.0,-1.45,0.11,8.36
49.848708,4.777346,0.0,0.32,-0.19,9.39
49.848708,4.777346,0.0,-1.67,1.72,8.16
49.848708,4.777346,0.0,-1.63,0.57,7.71
49.857485,4.780417,10.56,-3.6,0.84,7.76
49.857485,4.780417,10.56,-2.85,0.68,11.58
49.858469,4.781657,10.16,-1.18,1.03,11.3
49.858469,4.781657,10.16,-2.23,-0.83,9.62
49.858469,4.781657,10.16,-0.37,1.7,11.83
49.858469,4.781657,10.16,-1.56,1.23,8.19
49.858469,4.781657,10.16,-0.04,-0.06,8.82
49.858469,4.781657,10.16,1.89,0.68,10.09
49.858469,4.781657,10.16,0.4,1.46,9.41
49.858469,4.781657,10.16,-0.89,0.8,10.09
49.857459,4.763759,7.89,-0.55,0.88,9.92
49.857459,4.763759,7.89,0.31,0.77,10.07
49.857508,4.76369,7.08,-1.63,-0.17,10.32
49.857045,4.76463,7.03,-1.35,0.45,10.55
49.857045,4.76463,7.03,-4.05,0.13,9.48
49.857349,4.763943,5.53,-2.28,-0.28,9.37
49.857349,4.763943,5.53,-2.44,-0.76,9.38
49.857389,4.763868,4.46,-1.54,-1.15,10.12
49.857389,4.763868,4.46,0.31,1.4,9.69
49.857382,4.763806,3.92,-0.15,1.96,11.04
49.857382,4.763806,3.92,1.78,2.03,10.71
49.85736,4.763764,3.74,2.68,1.18,10.69
49.85736,4.763764,3.74,0.5,1.06,10.38
49.857293,4.76387,3.29,0.3,1.31,8.34
49.857293,4.76387,3.29,1.2,0.32,11.09
49.85725,4.763923,2.83,0.28,1.24,10.92
49.85725,4.763923,2.83,1.21,1.6,10.55
49.857238,4.763925,2.86,-0.54,1.13,9.08
49.857238,4.763925,2.86,-0.91,1.5,8.79
49.857232,4.763938,2.42,-1.12,0.17,11.58
49.857232,4.763938,2.42,-0.47,1.58,8.68
49.857225,4.763963,2.18,-0.02,2.24,9.87
49.857225,4.763963,2.18,-0.56,1.83,11.06
49.857228,4.763969,2.25,-0.79,1.53,9.54
49.857228,4.763969,2.25,-1.02,0.79,9.96
49.857242,4.763954,2.17,0.05,1.04,10.1
49.857242,4.763954,2.17,-1.04,0.82,9.17
49.85725,4.763955,1.88,0.41,0.51,8.14
49.85725,4.763955,1.88,-0.06,1.01,10.8
49.85725,4.763955,0.0,-0.32,0.16,9.18
49.85725,4.763955,0.0,-0.43,1.71,10.3
49.85725,4.763955,0.0,-0.92,1.46,10.38
49.85725,4.763955,0.0,0.01,1.13,11.22
49.85725,4.763955,0.0,-0.36,1.38,8.78
49.85725,4.763955,0.0,-0.67,0.94,10.35
49.85725,4.763955,0.0,-0.62,1.33,9.85
49.85725,4.763955,0.0,-0.54,1.33,9.89
49.85725,4.763955,0.0,-0.56,1.31,9.85
49.85725,4.763955,0.0,-0.48,1.43,9.93
49.85725,4.763955,0.0,-0.68,1.29,9.96
49.85725,4.763955,0.0,-0.56,1.32,9.88
49.85725,4.763955,0.0,-0.56,1.32,9.88
49.85725,4.763955,0.0,-0.57,1.35,9.89
49.85725,4.763955,0.0,-0.41,1.37,9.8
49.85725,4.763955,0.0,-0.5,1.27,9.95
49.85725,4.763955,0.0,-0.48,1.36,9.98
49.85725,4.763955,0.0,-0.56,1.36,9.86
49.85725,4.763955,0.0,-0.56,1.24,9.8
49.85725,4.763955,0.0,-0.62,1.3,9.84
49.85725,4.763955,0.0,-0.54,1.49,9.95
49.85725,4.763955,0.0,-0.54,1.35,9.81
49.85725,4.763955,0.0,-0.58,1.24,9.76
49.85725,4.763955,0.0,-0.52,1.31,9.81
49.85725,4.763955,0.0,-0.59,1.35,9.89
49.85725,4.763955,0.0,-0.46,1.51,9.93
49.85725,4.763955,0.0,-1.52,0.27,8.37
49.85725,4.763955,0.0,-0.45,1.28,9.82
49.85725,4.763955,0.0,-0.71,1.24,9.88
49.85725,4.763955,0.0,-0.56,1.32,9.84
49.85725,4.763955,0.0,-0.62,1.32,9.88
49.85725,4.763955,0.0,-0.6,1.31,9.89
49.85725,4.763955,0.0,-0.57,1.33,9.89
49.85725,4.763955,0.0,-0.6,1.28,9.89
49.85725,4.763955,0.0,-0.59,1.33,9.87
49.85725,4.763955,0.0,-0.58,1.28,9.85
49.85725,4.763955,0.0,-0.59,1.31,9.87
49.857266,4.763939,0.0,-0.58,1.32,9.85
49.857266,4.763939,0.0,-0.58,1.32,9.86
49.857266,4.763939,0.0,-0.57,1.31,9.85
49.857266,4.763939,0.0,-0.57,1.29,9.87
49.857266,4.763939,0.0,-0.57,1.3,9.9
49.857266,4.76394,0.0,-0.58,1.33,9.88
49.857266,4.76394,0.0,-0.6,1.3,9.86
49.857266,4.763941,0.0,-0.57,1.28,9.9
49.857266,4.763941,0.0,-0.61,1.32,9.85
49.857266,4.763941,0.0,-0.59,1.31,9.89
49.857266,4.763941,0.0,-0.58,1.3,9.87
49.857266,4.763942,0.0,-0.58,1.31,9.86
49.857266,4.763942,0.0,-0.56,1.29,9.84
49.857266,4.763942,0.0,-0.58,1.28,9.86
49.857266,4.763942,0.0,-0.57,1.3,9.86
49.857266,4.763943,0.0,-0.57,1.32,9.85
49.857266,4.763943,0.0,-0.58,1.32,9.86
49.857266,4.763943,0.0,-0.61,1.33,9.87
49.857266,4.763943,0.0,-0.58,1.31,9.84
49.857266,4.763944,0.0,-0.56,1.32,9.86
49.857266,4.763944,0.0,-0.6,1.32,9.87
49.857266,4.763944,0.01,-0.56,1.3,9.92
49.857266,4.763944,0.01,-0.58,1.28,9.85
49.857266,4.763945,0.02,-0.58,1.31,9.87
49.857266,4.763945,0.02,-0.59,1.33,9.89
49.857266,4.763945,0.0,-0.6,1.32,9.9
49.857266,4.763945,0.0,-0.59,1.28,9.88
49.857266,4.763947,0.01,-0.6,1.29,9.88
49.857266,4.763947,0.01,-0.58,1.29,9.87
49.857266,4.763947,0.0,-0.6,1.3,9.78
49.857266,4.763947,0.0,-0.61,1.3,9.84
49.857266,4.763947,0.01,-0.59,1.3,9.87
49.857266,4.763947,0.01,-0.59,1.3,9.86
49.857266,4.763947,0.01,-0.58,1.31,9.86
49.857266,4.763948,0.01,-0.58,1.3,9.87
49.857266,4.763948,0.01,-0.58,1.3,9.89
49.857266,4.763948,0.01,-0.57,1.3,9.87
49.857266,4.763948,0.01,-0.57,1.31,9.88
49.857266,4.763949,0.01,-0.6,1.32,9.88
49.857266,4.763949,0.01,-0.58,1.31,9.84
49.857266,4.763949,0.01,-0.58,1.3,9.88
49.857266,4.763949,0.01,-0.58,1.34,9.86
49.857267,4.763949,0.01,-0.58,1.3,9.85
49.857267,4.763949,0.01,-0.59,1.3,9.88
49.857267,4.76395,0.01,-0.6,1.3,9.87
49.857267,4.76395,0.01,-0.61,1.32,9.86
49.857267,4.76395,0.0,-0.57,1.3,9.89
49.857267,4.76395,0.0,-0.59,1.31,9.86
49.857267,4.76395,0.01,-0.6,1.3,9.86
49.857267,4.76395,0.01,-0.59,1.3,9.89
49.857267,4.76395,0.01,-0.61,1.32,9.88
49.857267,4.76395,0.01,-0.58,1.3,9.89
49.857266,4.763952,0.0,-0.58,1.3,9.87
49.857266,4.763952,0.0,-0.59,1.28,9.88
49.857265,4.763954,0.0,-0.58,1.33,9.88
49.857265,4.763954,0.0,-0.57,1.31,9.86
49.857265,4.763955,0.01,-0.57,1.3,9.85
49.857265,4.763955,0.01,-0.57,1.3,9.85
49.857264,4.763956,0.0,-0.6,1.33,9.86
49.857264,4.763956,0.0,-0.59,1.31,9.87
49.857264,4.763957,0.01,-0.57,1.3,9.84
49.857264,4.763957,0.01,-0.57,1.32,9.86
49.857263,4.763958,0.0,-0.61,1.31,9.88
49.857263,4.763958,0.0,-0.59,1.31,9.91
49.857263,4.763959,0.01,-0.58,1.3,9.88
49.857263,4.763959,0.01,-0.58,1.33,9.87
49.857263,4.76396,0.01,-0.57,1.29,9.85
49.857263,4.76396,0.01,-0.58,1.3,9.84
49.857262,4.763961,0.0,-0.58,1.3,9.87
49.857262,4.763962,0.0,-0.59,1.32,9.87
49.857262,4.763962,0.0,-0.59,1.3,9.88
49.857262,4.763964,0.0,-0.6,1.29,9.87
49.857262,4.763964,0.0,-0.59,1.29,9.87
49.857261,4.763964,0.0,-0.62,1.32,9.87
49.857261,4.763964,0.0,-0.6,1.29,9.87
49.857261,4.763966,0.01,-0.59,1.3,9.87
49.857261,4.763966,0.01,-0.58,1.31,9.88
49.857261,4.763966,0.01,-0.58,1.3,9.89
49.857261,4.763966,0.01,-0.58,1.29,9.86
49.857261,4.763967,0.0,-0.58,1.29,9.88
49.857261,4.763967,0.0,-0.59,1.31,9.87
49.85726,4.763968,0.01,-0.57,1.3,9.88
49.85726,4.763968,0.01,-0.58,1.3,9.85
49.85726,4.76397,0.0,-0.82,1.26,9.71
49.85726,4.76397,0.0,-0.66,1.37,9.91
49.857259,4.763971,0.01,-0.64,1.31,9.93
49.857259,4.763971,0.01,-0.57,1.26,9.82
49.857256,4.763978,0.04,-0.57,1.32,9.87
49.857256,4.763978,0.04,-0.5,1.43,10.3
49.857255,4.763981,0.01,-0.67,1.3,10.05
49.857255,4.763981,0.01,-0.6,1.25,9.93
49.857253,4.763984,0.01,-0.65,1.19,9.86
49.857253,4.763984,0.01,-0.61,1.32,9.81
49.857252,4.763986,0.0,-0.57,1.29,9.93
49.857252,4.763986,0.0,-0.58,1.32,9.89
49.857252,4.763987,0.01,-0.62,1.34,9.87
49.857252,4.763987,0.01,-0.6,1.29,9.86
49.857251,4.76399,0.05,-0.57,1.31,9.88
49.857251,4.76399,0.05,-0.57,1.3,9.87
49.85725,4.763993,0.01,-0.59,1.31,9.86
49.85725,4.763993,0.01,-0.58,1.31,9.85
49.857249,4.763994,0.0,-0.6,1.31,9.88
49.857248,4.763996,0.01,-0.58,1.31,9.87
49.857248,4.763996,0.01,-0.59,1.29,9.87
49.857248,4.763997,0.01,-0.56,1.32,9.87
49.857248,4.763997,0.01,-0.58,1.31,9.87
49.857247,4.763998,0.01,-0.59,1.32,9.92
49.857247,4.763998,0.01,-0.6,1.3,9.89
49.857247,4.763998,0.01,-0.74,1.28,9.81
49.857247,4.763998,0.01,-0.6,1.25,9.93
49.857246,4.763999,0.01,-0.62,1.29,9.87
49.857246,4.763999,0.01,-0.68,1.27,9.83
49.857246,4.764,0.0,-0.68,1.33,9.95
49.857246,4.764,0.0,-0.7,1.29,9.91
49.857245,4.764001,0.0,-0.48,1.29,9.82
49.857245,4.764001,0.0,-0.62,1.31,9.94
49.857245,4.764002,0.01,-0.69,1.29,9.87
49.857245,4.764002,0.01,-0.48,1.33,9.87
49.857244,4.764004,0.0,-0.61,1.33,9.93
49.857244,4.764004,0.0,-0.53,1.27,9.81
49.857244,4.764005,0.01,-0.53,1.31,9.77
49.857244,4.764005,0.01,-0.68,1.33,9.94
49.857244,4.764006,0.0,-0.48,1.29,9.76
49.857244,4.764006,0.0,-0.51,1.34,9.94
49.857243,4.764007,0.0,-0.73,1.35,9.95
49.857243,4.764007,0.0,-0.47,1.26,9.81
49.857243,4.764007,0.01,-0.7,1.31,9.87
49.857243,4.764007,0.01,-0.72,1.29,9.84
49.857242,4.764009,0.01,-0.59,1.26,9.78
49.857242,4.764009,0.01,-0.71,1.35,9.95
49.857241,4.76401,0.01,-0.59,1.26,9.78
49.857241,4.76401,0.01,-0.66,1.29,9.82
49.857241,4.764011,0.0,-0.55,1.33,9.94
49.857241,4.764011,0.0,-0.66,1.25,9.78
49.85724,4.764013,0.01,-0.45,1.27,9.82
49.857239,4.764014,0.01,-0.44,1.3,9.87
49.857239,4.764014,0.01,-0.67,1.29,9.8
49.857239,4.764015,0.0,-0.5,1.32,9.84
49.857239,4.764015,0.0,-0.63,1.3,9.97
49.857238,4.764016,0.0,-0.52,1.24,9.75
49.857238,4.764016,0.0,-0.45,1.31,9.84
49.857238,4.764016,0.0,-0.51,1.31,9.9
49.857238,4.764016,0.0,-0.65,1.28,9.76
49.857237,4.764017,0.0,-0.58,1.32,9.89
49.857237,4.764017,0.0,-0.48,1.36,9.84
49.857237,4.764018,0.01,-0.72,1.34,9.9
49.857237,4.764018,0.01,-0.48,1.35,9.81
49.857236,4.764019,0.0,-0.58,1.28,9.81
49.857236,4.764019,0.0,-0.6,1.3,9.9
49.857236,4.76402,0.0,-0.59,1.3,9.83
49.857236,4.76402,0.0,-0.66,1.32,9.9
49.857235,4.764021,0.01,-0.71,1.29,9.85
49.857235,4.764021,0.01,-0.5,1.29,9.88
49.857235,4.764022,0.0,-0.56,1.31,9.92
49.857235,4.764022,0.0,-0.63,1.28,9.83
49.857234,4.764023,0.0,-0.57,1.29,9.85
49.857234,4.764023,0.0,-0.61,1.31,9.91
49.857234,4.764024,0.01,-0.59,1.28,9.82
49.857234,4.764024,0.01,-0.61,1.34,9.92
49.857233,4.764025,0.01,-0.52,1.31,9.9
49.857233,4.764025,0.01,-0.66,1.3,9.78
49.857232,4.764026,0.01,-0.53,1.29,9.89
49.857232,4.764026,0.01,-0.52,1.29,9.82
49.857232,4.764027,0.01,-0.61,1.32,9.92
49.857232,4.764027,0.01,-0.54,1.29,9.8
49.857232,4.764028,0.0,-0.66,1.31,9.89
49.857232,4.764028,0.0,-0.66,1.29,9.79
49.857231,4.764029,0.02,-0.5,1.31,9.9
49.857231,4.764029,0.02,-0.67,1.34,9.95
49.85723,4.76403,0.0,-0.69,1.32,9.87
49.857229,4.764031,0.0,-0.48,1.29,9.85
49.857229,4.764031,0.0,-0.67,1.32,9.92
49.857229,4.764032,0.0,-0.58,1.31,9.83
49.857229,4.764032,0.0,-0.66,1.27,9.81
49.857228,4.764033,0.0,-0.5,1.33,9.92
49.857228,4.764033,0.0,-0.67,1.25,9.83
49.857228,4.764034,0.0,-0.68,1.28,9.82
49.857228,4.764034,0.0,-0.53,1.33,9.92
49.857227,4.764036,0.01,-0.73,1.28,9.84
49.857227,4.764036,0.01,-0.68,1.26,9.77
49.857227,4.764036,0.01,-0.53,1.34,9.9
49.857227,4.764036,0.01,-0.59,1.37,9.94
49.857226,4.764037,0.0,-0.64,1.3,9.9
49.857226,4.764037,0.0,-0.51,1.32,9.81
49.857226,4.764038,0.01,-0.72,1.32,9.89
49.857226,4.764038,0.01,-0.45,1.3,9.84
49.857225,4.764039,0.0,-0.6,1.29,9.81
49.857225,4.764039,0.0,-0.55,1.35,9.93
49.857224,4.76404,0.0,-0.65,1.27,9.82
49.857224,4.76404,0.0,-0.68,1.28,9.82
49.857224,4.764041,0.01,-0.52,1.36,9.9
49.857224,4.764041,0.01,-0.58,1.31,9.84
49.857223,4.764042,0.01,-0.61,1.3,9.84
49.857223,4.764042,0.01,-0.61,1.34,9.87
49.857223,4.764043,0.01,-0.6,1.34,9.83
49.857223,4.764043,0.01,-0.64,1.3,9.85
49.857222,4.764045,0.0,-0.57,1.32,9.87
49.857222,4.764045,0.0,-0.53,1.34,9.93
49.857222,4.764045,0.0,-0.61,1.3,9.8
49.857222,4.764045,0.0,-0.6,1.29,9.85
49.857221,4.764046,0.0,-0.62,1.31,9.83
49.857221,4.764046,0.0,-0.57,1.28,9.85
49.85722,4.764047,0.01,-0.56,1.35,9.94
49.85722,4.764047,0.01,-0.59,1.36,9.88
49.85722,4.764048,0.01,-0.63,1.28,9.83
49.85722,4.764048,0.01,-0.59,1.32,9.9
49.85722,4.764048,0.0,-0.61,1.29,9.86
49.857219,4.764049,0.0,-0.65,1.3,9.84
49.857219,4.764049,0.0,-0.58,1.33,9.87
49.857218,4.76405,0.0,-0.6,1.35,9.86
49.857218,4.76405,0.0,-0.6,1.31,9.86
49.857218,4.764051,0.01,-0.61,1.32,9.84
49.857218,4.764051,0.01,-0.6,1.32,9.87
49.857217,4.764052,0.0,-0.59,1.3,9.84
49.857217,4.764052,0.0,-0.6,1.32,9.89
49.857216,4.764053,0.0,-0.6,1.31,9.86
49.857216,4.764053,0.0,-0.58,1.32,9.88
49.857216,4.764054,0.01,-0.6,1.3,9.86
49.857216,4.764054,0.01,-0.59,1.32,9.89
49.857215,4.764055,0.0,-0.57,1.33,9.86
49.857215,4.764055,0.0,-0.56,1.31,9.85
49.857215,4.764056,0.0,-0.58,1.32,9.87
49.857215,4.764056,0.0,-0.61,1.31,9.87
49.857214,4.764057,0.01,-0.6,1.28,9.84
49.857214,4.764057,0.01,-0.6,1.29,9.93
49.857214,4.764058,0.01,-0.6,1.32,9.87
49.857214,4.764058,0.01,-0.56,1.34,9.89
49.857213,4.764059,0.01,-0.54,1.32,9.94
49.857213,4.764059,0.01,-0.59,1.34,9.89
49.857212,4.76406,0.0,-0.62,1.32,9.86
49.857212,4.76406,0.0,-0.63,1.26,9.84
49.857212,4.76406,0.01,-0.48,1.51,10.99
49.857212,4.76406,0.01,-0.59,1.36,9.81
49.857211,4.764063,0.01,-0.61,1.3,9.89
49.857211,4.764063,0.01,-0.49,1.33,9.84
49.857211,4.764065,0.01,-0.68,1.26,9.91
49.857211,4.764065,0.01,-0.61,1.31,9.85
49.857211,4.764066,0.0,-0.62,1.32,9.85
49.857211,4.764066,0.0,-0.66,1.3,9.89
49.85721,4.764066,0.01,-0.58,1.32,9.86
49.85721,4.764066,0.01,-0.61,1.32,9.87
49.85721,4.764067,0.01,-0.58,1.31,9.86
49.85721,4.764067,0.01,-0.58,1.31,9.85
49.85721,4.764068,0.01,-0.61,1.34,9.84
49.85721,4.764068,0.01,-0.59,1.33,9.88
49.85721,4.764069,0.01,-0.68,1.24,9.9
49.85721,4.76407,0.01,-0.45,1.24,9.83
49.85721,4.76407,0.01,-0.78,1.37,9.78
49.85721,4.764072,0.01,-0.43,1.36,9.75
49.85721,4.764072,0.01,-0.65,1.2,10.06
49.85721,4.764073,0.01,-0.57,1.46,9.77
49.85721,4.764073,0.01,-0.68,1.32,9.93
49.857209,4.764074,0.01,-0.52,1.42,9.83
49.857209,4.764074,0.01,-0.45,1.38,9.74
49.857209,4.764075,0.01,-0.65,1.43,9.98
49.857209,4.764075,0.01,-0.55,1.44,9.97
49.857209,4.764076,0.01,-0.59,1.39,9.85
49.857209,4.764076,0.01,-0.56,1.37,9.75
49.857209,4.764077,0.02,-0.34,1.15,9.85
49.857209,4.764077,0.02,-0.61,1.34,9.86
49.857209,4.764077,0.0,-0.56,1.33,9.88
49.857209,4.764077,0.0,-0.46,1.41,9.9
49.857209,4.764078,0.0,-0.61,1.32,9.82
49.857209,4.764078,0.0,-0.43,1.35,9.84
49.857209,4.764079,0.0,-0.59,1.28,9.84
49.857209,4.764079,0.0,-0.53,1.34,9.88
49.857209,4.76408,0.0,-0.55,1.38,9.86
49.857209,4.76408,0.0,-0.57,1.33,9.84
49.857208,4.764081,0.01,-0.61,1.33,9.87
49.857208,4.764081,0.01,-0.58,1.3,9.89
49.857208,4.764082,0.01,-0.55,1.33,9.84
49.857208,4.764082,0.01,-0.64,1.44,9.8
49.857208,4.764082,0.01,-0.64,1.26,9.81
49.857208,4.764082,0.01,-0.54,1.36,9.88
49.857208,4.764083,0.0,-0.59,1.33,9.84
49.857208,4.764083,0.0,-0.56,1.33,9.87
49.857208,4.764084,0.0,-0.57,1.35,9.85
49.857208,4.764084,0.0,-0.57,1.35,9.86
49.857208,4.764084,0.01,-0.59,1.34,9.86
49.857208,4.764084,0.01,-0.58,1.34,9.89
49.857208,4.764085,0.01,-0.56,1.36,9.85
49.857208,4.764085,0.01,-0.58,1.34,9.87
49.857208,4.764085,0.0,-0.59,1.36,9.87
49.857208,4.764085,0.0,-0.58,1.36,9.86
49.857207,4.764086,0.0,-0.57,1.33,9.85
49.857207,4.764086,0.0,-0.56,1.35,9.85
49.857207,4.764086,0.0,-0.59,1.36,9.88
49.857207,4.764087,0.01,-0.57,1.36,9.85
49.857207,4.764087,0.01,-0.57,1.36,9.86
49.857207,4.764088,0.01,-0.57,1.32,9.82
49.857207,4.764088,0.01,-0.57,1.34,9.86
49.857207,4.764089,0.01,-0.58,1.35,9.85
49.857207,4.764089,0.01,-0.57,1.38,9.86
49.857206,4.76409,0.01,-0.57,1.38,9.85
49.857206,4.76409,0.01,-0.57,1.35,9.85
49.857206,4.764091,0.02,-0.58,1.37,9.88
49.857206,4.764091,0.02,-0.59,1.36,9.86
49.857205,4.764094,0.01,-0.58,1.33,9.82
49.857205,4.764094,0.01,-0.57,1.34,9.87
49.857205,4.764095,0.02,-0.54,1.32,9.85
49.857205,4.764095,0.02,-0.55,1.35,9.85
49.857204,4.764098,0.03,-0.55,1.36,9.86
49.857204,4.764098,0.03,-0.56,1.36,9.85
49.857203,4.764102,0.02,-0.57,1.36,9.85
49.857203,4.764102,0.02,-0.57,1.36,9.87
49.857202,4.764104,0.01,-0.57,1.35,9.87
49.857202,4.764104,0.01,-0.55,1.36,9.88
49.857202,4.764105,0.02,-0.57,1.37,9.87
49.857202,4.764105,0.02,-0.55,1.37,9.88
49.857201,4.764108,0.02,-0.59,1.35,9.89
49.857201,4.764108,0.02,-0.57,1.35,9.85
49.8572,4.764109,0.01,-0.56,1.36,9.84
49.8572,4.764109,0.01,-0.59,1.36,9.84
49.8572,4.76411,0.0,-0.57,1.36,9.84
49.8572,4.76411,0.0,-0.59,1.37,9.85
49.857199,4.764112,0.0,-0.59,1.32,9.85
49.857199,4.764112,0.0,-0.58,1.38,9.87
49.857199,4.764113,0.01,-0.57,1.33,9.88
49.857199,4.764113,0.01,-0.57,1.32,9.9
49.857198,4.764115,0.02,-0.56,1.34,9.86
49.857198,4.764115,0.02,-0.6,1.35,9.86
49.857198,4.764115,0.01,-0.57,1.36,9.86
49.857197,4.764116,0.01,-0.57,1.35,9.84
49.857197,4.764116,0.01,-0.55,1.36,9.89
49.857197,4.764117,0.02,-0.57,1.34,9.87
49.857197,4.764117,0.02,-0.56,1.34,9.89
49.857196,4.76412,0.02,-0.57,1.36,9.86
49.857196,4.76412,0.02,-0.56,1.35,9.84
49.857196,4.764122,0.01,-0.58,1.36,9.85
49.857196,4.764122,0.01,-0.57,1.35,9.86
49.857196,4.764123,0.0,-0.56,1.33,9.86
49.857196,4.764123,0.0,-0.57,1.35,9.86
49.857195,4.764124,0.01,-0.55,1.34,9.82
49.857195,4.764124,0.01,-0.57,1.37,9.87
49.857195,4.764127,0.01,-0.56,1.35,9.85
49.857195,4.764127,0.01,-0.54,1.36,9.84
49.857195,4.764128,0.01,-0.59,1.33,9.83
49.857195,4.764128,0.01,-0.59,1.35,9.85
49.857195,4.764129,0.0,-0.57,1.35,9.85
49.857195,4.764129,0.0,-0.55,1.35,9.87
49.857194,4.76413,0.02,-0.56,1.36,9.88
49.857194,4.76413,0.02,-0.56,1.34,9.84
49.857194,4.764132,0.02,-0.56,1.36,9.87
49.857194,4.764132,0.02,-0.55,1.37,9.89
49.857194,4.764133,0.02,-0.58,1.36,9.87
49.857194,4.764133,0.02,-0.58,1.33,9.89
49.857194,4.764135,0.03,-0.57,1.35,9.86
49.857194,4.764135,0.03,-0.59,1.34,9.82
49.857194,4.764136,0.01,-0.56,1.36,9.88
49.857194,4.764136,0.01,-0.57,1.36,9.87
49.857194,4.764137,0.01,-0.57,1.36,9.84
49.857194,4.764137,0.01,-0.57,1.36,9.86
49.857194,4.764137,0.02,-0.56,1.34,9.84
49.857194,4.764137,0.02,-0.6,1.36,9.81
49.857194,4.764139,0.01,-0.61,1.36,9.82
49.857194,4.764139,0.01,-0.55,1.36,9.82
49.857194,4.764141,0.02,-0.58,1.36,9.89
49.857194,4.764141,0.02,-0.26,1.39,9.59
49.857194,4.764142,0.0,-0.68,2.55,9.69
49.857194,4.764142,0.0,-1.5,1.13,10.04
49.857194,4.764143,0.01,-1.44,1.18,9.99
49.857194,4.764143,0.01,-0.53,1.8,9.67
49.857194,4.764143,0.01,-0.91,1.61,9.8
49.857193,4.764144,0.02,-0.45,1.13,10.12
49.857193,4.764144,0.02,-1.13,1.98,9.56
49.857194,4.764145,0.01,-0.79,2.25,10.04
49.857194,4.764145,0.01,-1.12,1.74,9.82
49.857194,4.764146,0.06,-0.52,1.52,10.02
49.857194,4.764146,0.06,-1.13,1.55,9.35
49.857194,4.764147,0.05,-1.73,1.24,9.95
49.857194,4.764147,0.05,-1.1,1.59,9.18
49.857195,4.764148,0.17,-1.21,1.78,9.48
49.857195,4.764148,0.17,-0.27,2.38,8.98
49.857195,4.764144,0.45,-0.6,0.65,10.47
49.857195,4.764144,0.45,0.09,1.65,9.88
49.857194,4.764133,0.74,0.08,1.5,10.08
49.857192,4.764123,0.85,-1.23,1.51,10.51
49.857188,4.764114,0.93,-0.65,2.35,11.03
49.857188,4.764114,0.93,-1.61,1.01,8.75
49.857187,4.764105,1.0,-0.15,2.28,10.4
49.857187,4.764105,1.0,-0.6,2.07,10.3
49.857187,4.764091,1.08,-2.06,1.16,10.13
49.857187,4.764091,1.08,-1.59,2.0,9.06
49.857184,4.764064,1.32,-1.85,1.18,10.15
49.857184,4.764064,1.32,-1.98,1.21,10.26
49.85717,4.764024,1.61,-1.71,0.55,9.83
49.85717,4.764024,1.61,-2.54,-0.68,9.97
49.857146,4.763983,1.8,-2.59,-0.71,8.5
49.857146,4.763983,1.8,-2.91,-0.61,8.96
49.857118,4.763967,1.93,-2.82,0.54,10.36
49.857118,4.763967,1.93,-0.28,0.96,8.53
49.857092,4.76398,2.03,-0.82,1.07,10.02
49.857092,4.76398,2.03,-1.85,1.92,10.53
49.85707,4.764016,2.14,-1.35,1.56,9.87
49.85707,4.764016,2.14,-1.53,0.77,9.48
49.857037,4.764083,2.3,-0.78,1.24,11.05
49.857037,4.764083,2.3,-2.76,0.46,8.96
49.857007,4.764144,2.47,-1.16,1.48,10.01
49.857007,4.764144,2.47,-2.74,0.45,8.63
49.856976,4.76421,2.65,-1.43,1.94,10.15
49.856976,4.76421,2.65,-0.49,1.26,9.99
49.856956,4.764279,2.85,0.47,1.76,10.41
49.856956,4.764279,2.85,-1.45,0.58,9.38
49.856939,4.764356,3.05,-1.32,-0.3,9.81
49.856939,4.764356,3.05,-3.3,0.38,9.36
49.856926,4.76443,3.23,-2.85,0.49,9.4
49.856927,4.764503,3.37,-2.67,0.01,9.32
49.856927,4.764503,3.37,-1.16,0.93,9.9
49.856942,4.764558,3.45,-0.12,0.54,9.79
49.856942,4.764558,3.45,-1.51,-0.31,11.48
49.856962,4.764591,3.42,-0.68,-0.46,11.33
49.856962,4.764591,3.42,-0.93,0.78,8.14
49.856971,4.764609,3.29,-1.21,1.34,8.38
49.856971,4.764609,3.29,-1.13,1.49,8.81
49.856973,4.764616,1.95,-1.78,0.95,9.24
49.856973,4.764616,1.95,-1.3,2.08,10.27
49.856974,4.76462,1.34,-0.09,3.14,10.26
49.856974,4.76462,1.34,-1.92,0.97,9.35
49.856977,4.764626,1.02,-1.58,2.08,8.61
49.856977,4.764626,1.02,-1.5,2.75,10.07
49.856981,4.764636,1.04,-0.69,2.95,10.05
49.856981,4.764636,1.04,-0.94,3.28,9.45
49.85698,4.764666,1.42,-2.04,2.36,10.3
49.85698,4.764666,1.42,-1.63,2.74,9.67
49.856964,4.764713,2.25,-1.12,2.53,9.48
49.856964,4.764713,2.25,-0.11,1.42,10.5
49.856934,4.76477,3.14,-0.46,1.16,10.02
49.856934,4.76477,3.14,-1.23,1.71,9.74
49.856901,4.764835,3.81,-0.82,2.52,10.78
49.856901,4.764835,3.81,-1.69,2.32,10.08
49.856867,4.764903,4.33,-2.14,2.04,8.32
49.856867,4.764903,4.33,-0.22,1.68,9.84
49.856826,4.764981,7.59,0.71,1.71,11.06
49.856826,4.764981,7.59,-0.1,1.37,8.97
49.856772,4.765076,9.3,-2.22,1.79,8.71
49.856772,4.765076,9.3,-2.55,1.58,9.62
49.856712,4.765181,10.03,-0.78,0.78,9.51
49.856712,4.765181,10.03,-1.54,0.37,9.5
49.856647,4.76529,10.7,-0.48,1.65,9.93
49.856647,4.76529,10.7,-1.99,1.38,11.25
49.856579,4.765399,10.86,-1.4,1.81,8.08
49.856579,4.765399,10.86,-0.23,1.58,8.91
49.856506,4.765513,11.85,-0.55,1.57,11.99
49.856506,4.765513,11.85,-1.78,1.3,8.71
49.856425,4.765633,12.73,0.13,0.45,10.34
49.856337,4.76576,13.02,-1.41,2.44,8.91
49.856337,4.76576,13.02,-0.64,1.26,9.97
49.856246,4.765885,13.05,-0.56,0.98,9.69
49.856246,4.765885,13.05,-0.63,2.31,11.92
49.856156,4.766013,13.18,-0.94,1.01,10.99
49.856156,4.766013,13.18,-1.19,0.09,7.03
49.856069,4.76614,13.23,-0.29,1.54,9.03
49.856069,4.76614,13.23,-1.14,1.8,10.37
49.855982,4.766265,13.42,-1.74,1.27,9.29
49.855982,4.766265,13.42,-0.8,0.55,10.66
49.855891,4.76639,13.51,-1.77,0.62,10.71
49.855891,4.76639,13.51,-0.2,1.26,11.89
49.8558,4.766518,13.45,-0.71,1.9,9.96
49.8558,4.766518,13.45,-1.26,-0.22,10.28
49.855709,4.766643,13.22,-1.16,1.25,9.63
49.855709,4.766643,13.22,-2.85,1.32,8.51
49.855621,4.766768,13.01,-2.23,0.47,8.3
49.855621,4.766768,13.01,-0.21,0.48,10.57
49.855533,4.76689,12.9,-2.56,1.5,8.53
49.855533,4.76689,12.9,-2.1,0.88,10.16
49.855448,4.767011,12.82,-0.28,0.0,12.58
49.855448,4.767011,12.82,-1.45,1.43,8.09
49.855363,4.767134,12.85,0.14,1.65,12.44
49.855363,4.767134,12.85,-1.1,0.95,9.91
49.855278,4.767257,12.9,-1.32,1.43,11.23
49.855278,4.767257,12.9,-1.7,2.46,5.17
49.855194,4.76738,12.97,-0.58,0.74,9.11
49.855194,4.76738,12.97,-0.44,1.02,9.65
49.855109,4.767502,12.95,-1.26,0.6,11.43
49.855109,4.767502,12.95,-0.77,1.58,10.22
49.855026,4.767623,12.98,0.5,2.99,10.5
49.855026,4.767623,12.98,-1.33,0.91,9.25
49.85494,4.767747,13.07,-1.82,1.79,9.7
49.85494,4.767747,13.07,-1.92,1.58,9.25
49.85486,4.767871,13.2,-1.29,4.19,10.0
49.85486,4.767871,13.2,-0.56,0.92,8.36
49.854773,4.767996,13.53,1.31,1.63,9.08
49.854683,4.768123,13.15,-1.5,0.74,10.64
49.854683,4.768123,13.15,-0.34,0.99,10.63
49.854597,4.768247,12.87,-0.71,0.87,9.01
49.854597,4.768247,12.87,-1.21,-0.93,11.22
49.854511,4.768367,12.97,-2.09,0.93,8.91
49.854511,4.768367,12.97,-0.97,1.5,11.29
49.854424,4.768492,13.19,-0.59,-0.06,11.61
49.854424,4.768492,13.19,-0.09,1.34,12.83
49.854336,4.768615,12.69,-0.75,-0.31,11.06
49.854336,4.768615,12.69,-0.54,0.44,11.3
49.854254,4.768733,12.26,-0.65,0.58,11.09
49.854254,4.768733,12.26,-0.72,0.83,8.82
49.854174,4.768845,11.45,-0.78,0.91,9.73
49.854174,4.768845,11.45,-1.42,0.85,10.73
49.8541,4.768952,11.14,0.04,0.75,8.98
49.8541,4.768952,11.14,-0.33,1.27,9.57
49.854025,4.769055,10.85,0.44,1.98,10.76
49.854025,4.769055,10.85,0.91,2.55,8.78
49.853952,4.769153,10.54,1.53,2.2,9.43
49.853952,4.769153,10.54,1.98,2.4,8.71
49.85387,4.769226,10.38,2.48,2.82,10.61
49.85387,4.769226,10.38,1.75,2.84,8.26
49.853775,4.769263,10.31,1.48,3.62,9.65
49.853775,4.769263,10.31,0.31,2.55,11.78
49.853662,4.769256,11.33,-0.03,2.34,9.84
49.853662,4.769256,11.33,-1.22,2.74,12.85
49.853555,4.769191,12.04,-0.32,2.33,10.77
49.853555,4.769191,12.04,-1.5,0.98,7.35
49.853456,4.769104,12.3,-1.22,1.94,11.53
49.853456,4.769104,12.3,-1.54,0.92,10.19
49.853349,4.769017,12.75,-0.54,1.51,11.18
49.853349,4.769017,12.75,-1.11,1.73,8.91
49.853243,4.768924,12.83,-1.76,1.72,4.99
49.853243,4.768924,12.83,-0.17,1.34,8.32
49.853138,4.768822,12.68,-2.01,0.0,12.62
49.853138,4.768822,12.68,0.19,1.47,12.05
49.853041,4.768714,12.25,0.25,0.42,8.07
49.853041,4.768714,12.25,-0.47,1.5,9.66
49.852942,4.768621,11.76,0.83,1.47,10.47
49.852942,4.768621,11.76,0.39,1.28,10.25
49.852857,4.768534,11.27,-0.72,0.87,9.96
49.852771,4.768454,11.07,-0.22,1.31,9.76
49.852771,4.768454,11.07,-0.11,1.71,10.97
49.852688,4.768374,11.04,-1.78,1.69,9.9
49.852688,4.768374,11.04,-0.39,2.1,9.52
49.852604,4.768297,11.14,-1.51,0.66,9.08
49.852604,4.768297,11.14,0.15,1.61,11.02
49.852518,4.768219,10.97,-0.56,1.7,10.07
49.852518,4.768219,10.97,-0.1,0.69,12.15
49.852435,4.768135,10.82,0.22,1.29,8.71
49.852435,4.768135,10.82,-0.44,1.31,8.78
49.852348,4.768054,11.41,-0.26,0.64,10.07
49.852348,4.768054,11.41,0.87,0.78,10.33
49.852258,4.767972,11.48,-1.5,0.68,10.18
49.852258,4.767972,11.48,-0.92,0.75,9.52
49.852167,4.76789,11.49,-0.9,0.26,10.16
49.852167,4.76789,11.49,-1.12,0.04,11.03
49.852076,4.767809,11.57,-1.12,0.61,9.01
49.852076,4.767809,11.57,0.09,0.64,12.7
49.851987,4.767725,11.29,-0.42,0.93,10.67
49.851987,4.767725,11.29,0.67,-0.46,8.87
49.851903,4.767646,10.58,-0.62,0.1,11.47
49.851903,4.767646,10.58,-2.05,1.05,9.88
49.851827,4.767577,9.24,-0.27,-1.02,8.42
49.851827,4.767577,9.24,-0.94,-0.39,11.83
49.851758,4.767516,8.03,-0.93,1.68,9.27
49.851758,4.767516,8.03,-2.58,1.49,8.52
49.851699,4.767469,7.05,-0.08,1.03,9.73
49.851699,4.767469,7.05,-0.63,0.4,11.35
49.851647,4.767421,6.25,-0.61,0.72,9.3
49.851647,4.767421,6.25,-0.25,2.9,8.19
49.851606,4.767373,5.65,0.57,2.82,10.16
49.851606,4.767373,5.65,-1.72,2.78,10.09
49.85157,4.767307,6.4,-1.15,2.53,8.79
49.85157,4.767307,6.4,-1.56,2.3,9.46
49.851528,4.76724,7.25,-1.46,0.18,9.06
49.851528,4.76724,7.25,-0.23,1.81,9.79
49.851483,4.767169,6.94,-0.29,2.0,10.53
49.851483,4.767169,6.94,-1.24,1.54,11.13
49.851438,4.767089,7.4,-1.65,2.0,10.19
49.851438,4.767089,7.4,-0.6,1.5,9.35
49.851393,4.767007,7.63,-0.86,0.37,11.07
49.85135,4.766927,6.94,-1.11,0.69,9.1
49.85135,4.766927,6.94,-0.78,1.48,8.35
49.851326,4.766834,6.32,-0.44,1.33,8.53
49.851326,4.766834,6.32,-1.24,1.92,10.79
49.851302,4.76675,6.35,-1.87,2.3,9.16
49.851302,4.76675,6.35,0.53,1.07,9.99
49.851274,4.76667,6.01,-1.36,0.18,9.05
49.851274,4.76667,6.01,-2.22,0.81,9.31
49.851249,4.766602,5.47,-2.04,0.96,9.57
49.851249,4.766602,5.47,-2.98,0.7,9.99
49.851222,4.766551,5.2,-3.76,0.56,9.83
49.851222,4.766551,5.2,-3.29,0.88,8.69
49.851185,4.766509,5.37,-3.73,1.41,10.15
49.851185,4.766509,5.37,-3.16,1.06,9.29
49.851134,4.766516,6.19,-1.37,1.64,9.69
49.851134,4.766516,6.19,-3.52,0.97,9.82
49.851079,4.766561,7.15,-1.63,2.15,9.93
49.851079,4.766561,7.15,-0.11,3.89,12.16
49.851033,4.766627,7.48,-1.01,3.24,9.32
49.851033,4.766627,7.48,-1.31,3.0,10.23
49.850978,4.766704,8.08,-0.63,2.56,12.49
49.850978,4.766704,8.08,0.75,3.61,11.47
49.850915,4.766777,8.4,-1.6,3.23,9.79
49.850915,4.766777,8.4,0.06,1.27,10.01
49.850839,4.766858,10.08,0.96,0.35,6.9
49.850839,4.766858,10.08,0.26,1.9,10.3
49.850752,4.766922,10.35,0.2,2.35,10.92
49.850752,4.766922,10.35,-0.31,1.77,9.52
49.850658,4.766978,10.04,1.11,1.34,8.6
49.850658,4.766978,10.04,-1.38,1.7,11.68
49.850566,4.767029,9.64,0.14,0.78,8.16
49.850566,4.767029,9.64,-0.45,1.52,10.08
49.850474,4.767066,9.62,-2.15,0.83,10.58
49.850474,4.767066,9.62,-0.68,0.74,9.55
49.850384,4.767092,9.34,-1.8,1.06,8.98
49.850384,4.767092,9.34,-1.11,2.07,8.33
49.850295,4.767118,9.11,-0.41,1.49,11.17
49.850295,4.767118,9.11,-0.35,1.36,9.76
49.850212,4.767148,8.99,0.1,1.44,8.62
49.850134,4.767183,8.67,-0.37,-0.38,9.77
49.850134,4.767183,8.67,-0.09,0.98,11.49
49.850064,4.767226,6.96,-1.02,0.09,7.98
49.850064,4.767226,6.96,-1.6,1.05,8.38
49.850005,4.767253,5.63,-0.01,0.87,9.48
49.850005,4.767253,5.63,-0.19,0.83,9.07
49.849963,4.767271,4.39,-0.56,0.65,10.3
49.849963,4.767271,4.39,-0.74,0.48,10.31
49.849938,4.76728,3.37,-0.46,1.36,9.06
49.849938,4.76728,3.37,-0.55,1.5,8.89
49.849913,4.767291,2.78,-0.99,0.67,9.33
49.849913,4.767291,2.78,-0.05,1.92,11.04
49.849886,4.767303,2.81,-1.13,2.69,8.73
49.849886,4.767303,2.81,-1.9,3.04,9.82
49.849859,4.767317,3.49,-2.76,2.81,10.15
49.849859,4.767317,3.49,-1.6,2.6,10.08
49.849829,4.767338,4.91,-0.3,1.24,8.33
49.849829,4.767338,4.91,-1.1,1.11,10.14
49.849796,4.767364,5.5,-2.21,1.85,9.63
49.849796,4.767364,5.5,-2.71,2.82,10.39
49.849754,4.767412,6.73,-1.67,2.89,10.76
49.849754,4.767412,6.73,-1.82,3.8,11.9
49.8497,4.767478,7.2,-0.62,3.22,11.55
49.8497,4.767478,7.2,-2.12,2.29,10.0
49.849639,4.76755,8.23,-1.3,0.49,10.37
49.849639,4.76755,8.23,0.4,1.43,8.8
49.849568,4.767632,9.33,0.7,1.82,10.98
49.849568,4.767632,9.33,1.47,2.21,9.54
49.849497,4.767709,9.26,0.1,2.64,10.81
49.849497,4.767709,9.26,1.51,2.66,11.08
49.849425,4.767784,9.32,1.59,3.46,11.01
49.849425,4.767784,9.32,1.44,3.24,9.35
49.849342,4.767833,9.27,0.61,3.44,10.72
49.849342,4.767833,9.27,0.17,3.26,12.14
49.849244,4.767851,9.83,-0.9,1.83,9.02
49.849244,4.767851,9.83,-2.64,2.67,8.27
49.849099,4.767815,11.61,-0.17,2.21,8.45
49.849099,4.767815,11.61,-0.25,2.27,8.7
49.848974,4.767748,12.37,-1.99,2.26,9.94
49.848853,4.767671,12.95,-2.17,3.7,8.77
49.848853,4.767671,12.95,0.13,1.9,12.68
49.848736,4.767583,12.74,-1.88,1.34,10.22
49.848736,4.767583,12.74,-0.73,4.17,10.04
49.848628,4.767501,12.85,-1.58,1.79,8.04
49.848628,4.767501,12.85,-1.19,2.6,10.46
49.848514,4.767426,13.2,0.29,1.5,10.47
49.848514,4.767426,13.2,-1.27,-0.04,13.08
49.848407,4.76736,12.12,-2.16,2.08,7.72
49.848407,4.76736,12.12,-2.03,-0.2,10.08
49.848309,4.767297,11.38,-3.55,0.49,7.7
49.848309,4.767297,11.38,-2.54,2.21,9.72
49.848215,4.767239,11.38,-2.51,1.81,10.64
49.848215,4.767239,11.38,-2.73,1.65,7.31
49.848107,4.767209,12.02,-2.24,1.91,11.09
49.848107,4.767209,12.02,-2.84,1.59,9.88
49.847997,4.767196,12.62,-2.0,1.67,9.13
49.847997,4.767196,12.62,-3.7,1.17,7.6
49.84789,4.76722,12.45,-1.78,2.22,9.62
49.84789,4.76722,12.45,-3.13,0.65,9.05
49.847777,4.767259,13.11,-0.23,0.34,10.29
49.847777,4.767259,13.11,-0.57,2.31,9.78
49.847662,4.767334,12.93,0.07,2.03,6.65
49.847662,4.767334,12.93,-0.24,1.26,11.69
49.847555,4.767409,13.18,-0.09,2.46,9.92
49.847555,4.767409,13.18,0.65,1.35,10.92
49.847443,4.767482,13.4,-1.29,1.67,9.22
49.847443,4.767482,13.4,-2.99,2.82,12.29
49.84733,4.767556,13.34,-1.99,1.66,9.31
49.84733,4.767556,13.34,-0.75,2.3,8.28
49.847219,4.767629,13.27,-2.97,1.37,9.07
49.847219,4.767629,13.27,-2.18,1.94,8.15
49.847109,4.767701,13.11,-2.42,1.67,8.0
49.847109,4.767701,13.11,0.64,2.55,12.19
49.846997,4.767772,13.13,-1.0,2.23,9.5
49.846997,4.767772,13.13,0.01,1.97,7.47
49.846888,4.767845,13.22,-0.96,2.01,12.3
49.846888,4.767845,13.22,-0.05,2.6,11.74
49.846776,4.767921,13.13,-0.06,2.24,9.01
49.846776,4.767921,13.13,-1.97,2.28,9.24
49.846665,4.767994,13.29,-0.04,2.82,10.05
49.846665,4.767994,13.29,-1.5,1.52,9.1
49.846551,4.768068,13.62,-2.13,3.01,10.02
49.846551,4.768068,13.62,-0.77,2.78,9.29
49.84643,4.768138,13.88,-2.39,1.02,11.12
49.84631,4.76821,14.01,-0.77,1.51,7.71
49.84631,4.76821,14.01,-1.67,0.86,7.49
49.846196,4.768278,13.51,0.08,1.58,9.11
49.846196,4.768278,13.51,0.29,2.18,9.8
49.846085,4.768345,13.46,-1.6,2.24,14.4
49.846085,4.768345,13.46,0.35,1.6,9.63
49.845971,4.768403,13.52,-1.51,2.89,10.24
49.845971,4.768403,13.52,-1.72,0.82,10.34
49.845843,4.768455,14.41,1.05,2.18,5.44
49.845843,4.768455,14.41,-1.25,0.45,8.9
49.845712,4.768497,14.38,-1.02,0.9,9.6
49.845712,4.768497,14.38,-2.12,0.75,10.49
49.845581,4.768529,14.1,-1.72,0.85,10.12
49.845581,4.768529,14.1,-0.74,1.15,9.01
49.845454,4.768551,13.21,-1.42,1.65,12.05
49.845454,4.768551,13.21,-2.01,2.3,9.61
49.845341,4.768564,13.08,0.08,1.92,12.07
49.845341,4.768564,13.08,-3.01,2.6,9.83
49.845227,4.768576,13.14,-0.68,2.65,12.8
49.845227,4.768576,13.14,-2.32,1.75,9.88
49.845115,4.768588,13.18,-1.32,1.03,9.85
49.845115,4.768588,13.18,-2.44,2.72,7.17
49.844999,4.768601,13.21,-1.5,1.04,9.39
49.844999,4.768601,13.21,-0.38,1.42,11.1
49.844883,4.768616,13.52,-2.02,1.29,11.57
49.844883,4.768616,13.52,-0.13,2.91,9.5
49.844764,4.768632,13.66,-1.18,2.5,9.15
49.844764,4.768632,13.66,-1.45,1.85,9.95
49.844647,4.768646,13.66,-1.62,2.0,10.21
49.844647,4.768646,13.66,-1.14,2.2,8.51
49.844529,4.768663,13.67,-0.37,1.92,10.35
49.844529,4.768663,13.67,0.23,1.17,9.48
49.844409,4.768677,13.65,-1.29,1.01,10.04
49.844409,4.768677,13.65,0.14,1.74,9.67
49.844293,4.768687,13.87,0.42,1.56,9.3
49.844293,4.768687,13.87,-1.05,1.63,8.18
49.844175,4.768692,13.52,-0.24,2.3,10.38
49.844175,4.768692,13.52,-1.66,0.49,10.18
49.844058,4.768696,13.48,-1.95,1.03,8.26
49.844058,4.768696,13.48,-0.76,1.99,9.28
49.843937,4.768697,13.44,-1.17,1.47,8.06
49.843818,4.7687,13.37,0.71,0.3,8.53
49.843818,4.7687,13.37,-0.94,2.48,11.04
49.8437,4.7687,13.3,-2.9,1.12,9.61
49.8437,4.7687,13.3,-2.6,1.67,10.16
49.843583,4.768703,13.19,-1.19,1.84,8.53
49.843583,4.768703,13.19,-1.48,2.9,9.09
49.843468,4.76871,13.27,-1.27,1.2,8.27
49.843468,4.76871,13.27,-1.18,1.56,10.42
49.843353,4.768721,13.42,-2.21,2.22,11.38
49.843353,4.768721,13.42,-0.99,0.86,10.6
49.843235,4.768736,13.32,-0.39,0.35,11.35
49.843235,4.768736,13.32,-0.31,0.82,10.71
49.843121,4.768755,12.54,-3.07,1.19,11.07
49.843121,4.768755,12.54,-2.35,2.84,10.57
49.843011,4.768775,12.24,-2.75,1.56,14.94
49.843011,4.768775,12.24,-1.14,1.8,10.21
49.842904,4.768794,12.22,-1.01,1.32,9.49
49.842904,4.768794,12.22,-1.22,1.92,10.7
49.842797,4.768811,12.34,0.99,0.85,10.1
49.842797,4.768811,12.34,0.18,0.47,6.28
49.842686,4.768822,12.21,1.67,1.58,5.55
49.842686,4.768822,12.21,-0.07,2.82,11.32
49.842577,4.768817,11.69,2.17,2.72,10.89
49.842577,4.768817,11.69,2.02,3.11,9.8
49.842474,4.768784,11.53,2.66,3.62,10.78
49.842474,4.768784,11.53,2.34,3.53,8.36
49.842379,4.768719,10.61,2.93,3.74,13.25
49.842379,4.768719,10.61,1.93,2.8,10.75
49.842311,4.768578,11.5,2.98,4.52,11.89
49.842311,4.768578,11.5,2.75,3.52,10.21
49.842278,4.768405,11.55,2.0,3.41,11.46
49.842278,4.768405,11.55,2.23,2.98,9.91
49.842287,4.768235,11.69,1.99,2.54,10.37
49.842287,4.768235,11.69,1.21,2.35,10.98
49.842331,4.768078,12.43,1.37,3.63,9.68
49.842331,4.768078,12.43,-0.04,2.37,10.29
49.842406,4.767936,12.78,-1.34,2.84,8.44
49.842406,4.767936,12.78,-1.43,2.67,9.13
49.842498,4.767809,13.36,-0.56,2.5,8.64
49.842498,4.767809,13.36,-0.65,2.36,8.81
49.842593,4.767676,13.95,-0.98,2.96,9.75
49.842692,4.767538,14.4,-1.26,2.25,10.85
49.842692,4.767538,14.4,-1.89,2.98,9.47
49.842796,4.767395,15.25,-0.75,1.6,9.69
49.842796,4.767395,15.25,-1.23,1.85,8.86
49.842904,4.767244,15.44,-1.91,1.83,7.99
49.842904,4.767244,15.44,-0.04,2.0,8.92
49.843016,4.767088,15.87,-0.71,2.17,9.07
49.843016,4.767088,15.87,-0.38,2.19,9.51
49.843127,4.766929,16.19,-0.68,2.36,9.9
49.843127,4.766929,16.19,-0.01,2.29,8.83
49.843238,4.766779,16.09,-0.71,2.83,10.01
49.843238,4.766779,16.09,-0.95,2.71,10.11
49.843345,4.766633,15.67,-1.68,2.4,10.35
49.843345,4.766633,15.67,-1.21,2.15,7.38
49.843465,4.766491,16.0,-1.76,2.54,8.83
49.843465,4.766491,16.0,-1.5,2.88,9.93
49.843591,4.766349,15.93,-1.22,2.07,10.19
49.843591,4.766349,15.93,-1.01,2.58,10.64
49.84372,4.766208,16.62,-2.37,1.49,10.63
49.84372,4.766208,16.62,-0.88,0.91,8.78
49.84385,4.766057,16.64,-1.05,1.95,9.61
49.84385,4.766057,16.64,0.03,1.34,7.38
49.843983,4.765914,16.5,0.63,1.32,9.8
49.843983,4.765914,16.5,-1.55,0.98,9.72
49.844113,4.76577,16.46,0.1,1.4,10.63
49.844113,4.76577,16.46,-0.54,1.02,8.6
49.844243,4.765633,16.06,-1.24,1.38,9.92
49.844243,4.765633,16.06,-1.19,0.44,8.77
49.844364,4.7655,15.26,-0.01,1.24,13.57
49.844364,4.7655,15.26,-0.27,0.55,9.54
49.844478,4.765378,14.38,-0.23,0.8,10.2
49.844478,4.765378,14.38,-0.77,1.36,11.48
49.844584,4.765265,13.41,-0.95,0.5,9.62
49.844584,4.765265,13.41,-2.1,1.96,7.63
49.844682,4.765163,12.48,-1.55,1.46,10.69
49.844682,4.765163,12.48,-0.02,1.24,10.98
49.844771,4.765067,11.26,-1.31,2.04,8.1
49.844771,4.765067,11.26,-0.65,1.67,10.29
49.844855,4.764977,10.83,-1.52,2.34,13.47
49.844855,4.764977,10.83,-2.61,2.85,8.48
49.844934,4.76488,11.17,-2.22,2.81,11.57
49.844934,4.76488,11.17,-2.49,2.25,9.7
49.845014,4.764772,11.52,-3.15,1.32,8.0
49.845089,4.764651,11.52,-3.98,1.47,10.42
49.845089,4.764651,11.52,-2.53,1.38,8.66
49.845133,4.764505,10.84,-4.72,1.22,10.07
49.845133,4.764505,10.84,-3.81,1.23,7.49
49.845144,4.764361,10.28,-3.69,1.11,10.11
49.845144,4.764361,10.28,-3.43,1.3,9.76
49.8451,4.764192,12.05,-4.68,0.79,8.77
49.8451,4.764192,12.05,-2.84,1.81,9.37
49.845018,4.764039,12.41,-1.8,1.66,9.18
49.845018,4.764039,12.41,0.18,2.6,8.38
49.844909,4.763924,13.0,-0.2,2.88,9.63
49.844909,4.763924,13.0,0.16,3.29,9.9
49.844797,4.763816,13.64,0.53,3.02,9.51
49.844797,4.763816,13.64,-0.09,3.45,10.3
49.844685,4.763711,13.78,0.39,3.31,9.94
49.844685,4.763711,13.78,0.34,2.92,10.56
49.844575,4.76358,14.83,0.05,1.24,8.94
49.844575,4.76358,14.83,-1.16,0.79,10.19
49.844469,4.763438,15.22,-0.08,1.63,8.44
49.844469,4.763438,15.22,-1.32,1.92,10.64
49.84436,4.763288,15.58,-0.67,1.81,8.58
49.84436,4.763288,15.58,1.4,2.69,9.66
49.844255,4.763133,15.63,-2.27,2.56,8.75
49.844255,4.763133,15.63,-0.69,2.38,10.08
49.844148,4.762974,16.26,-0.2,1.88,10.66
49.844148,4.762974,16.26,-1.14,2.4,8.25
49.844038,4.762813,16.01,-0.14,3.04,9.69
49.844038,4.762813,16.01,-0.34,2.23,10.4
49.84393,4.762654,16.21,-0.62,2.1,9.53
49.84393,4.762654,16.21,-1.23,2.22,10.36
49.843819,4.762493,16.92,-0.26,2.74,9.17
49.843819,4.762493,16.92,-1.26,2.3,11.25
49.843699,4.762322,17.84,-0.83,2.86,9.12
49.843699,4.762322,17.84,-1.01,2.68,10.36
49.84358,4.762147,18.03,-1.05,2.54,9.89
49.84358,4.762147,18.03,-0.89,1.92,10.39
49.843459,4.761967,18.44,-2.79,2.65,9.62
49.843459,4.761967,18.44,-1.35,2.15,10.07
49.843337,4.761779,18.7,-0.79,2.49,10.24
49.843337,4.761779,18.7,-0.15,2.72,8.35
49.843221,4.761579,19.01,-1.03,1.48,9.97
49.843221,4.761579,19.01,-0.47,2.44,8.55
49.843102,4.761382,19.46,-2.13,2.38,9.94
49.842982,4.761182,19.72,-0.17,2.54,10.54
49.842982,4.761182,19.72,0.08,2.32,7.69
49.842864,4.760981,20.13,1.12,2.3,9.22
49.842864,4.760981,20.13,0.52,2.75,8.45
49.842741,4.760771,20.45,1.72,1.35,5.85
49.842741,4.760771,20.45,0.81,0.61,8.07
49.842628,4.760545,20.02,-0.47,2.16,8.12
49.842628,4.760545,20.02,-0.07,1.15,9.5
49.842539,4.760296,20.35,1.86,1.16,7.29
49.842539,4.760296,20.35,0.47,0.2,9.64
49.842472,4.760038,20.19,-0.54,1.0,10.98
49.842472,4.760038,20.19,-1.58,0.2,10.46
49.842411,4.759779,19.99,-1.38,1.97,10.06
49.842411,4.759779,19.99,-1.9,0.51,9.86
49.842348,4.759519,20.44,-1.42,0.37,10.21
49.842348,4.759519,20.44,-2.35,-0.33,9.74
49.842278,4.75925,20.38,-3.72,0.57,8.95
49.842278,4.75925,20.38,-1.4,0.23,11.21
49.842194,4.758997,20.36,-3.01,0.22,9.13
49.842194,4.758997,20.36,-3.97,0.19,11.27
49.842108,4.758758,19.76,-2.18,1.14,11.11
49.842108,4.758758,19.76,-1.24,0.18,10.56
49.841989,4.758555,19.67,1.34,0.53,11.03
49.841989,4.758555,19.67,-0.61,0.7,11.03
49.841849,4.758379,19.64,0.32,0.87,10.35
49.841849,4.758379,19.64,2.44,1.1,10.67
49.841723,4.75818,19.1,3.16,1.78,10.67
49.841723,4.75818,19.1,2.28,1.22,9.56
49.841625,4.757967,19.11,3.08,0.67,11.92
49.841625,4.757967,19.11,0.64,1.41,9.64
49.841557,4.757724,18.89,-0.59,1.72,9.93
49.841557,4.757724,18.89,-2.04,1.37,10.23
49.841501,4.757473,19.32,-0.2,1.84,11.06
49.841501,4.757473,19.32,-0.57,1.02,10.99
49.841451,4.757212,19.75,-1.03,1.33,11.54
49.841451,4.757212,19.75,-0.11,0.22,9.6
49.8414,4.756943,20.12,0.14,1.14,11.27
49.8414,4.756943,20.12,-1.52,1.11,8.81
49.841343,4.756685,19.7,-0.91,0.89,9.31
49.841343,4.756685,19.7,1.83,1.48,11.07
49.841283,4.756433,19.46,1.04,1.46,10.38
49.841226,4.756179,19.54,-0.88,0.85,8.96
49.841226,4.756179,19.54,-1.13,0.92,9.88
49.841179,4.755923,19.32,1.08,0.62,11.97
49.841179,4.755923,19.32,0.2,1.29,9.45
49.841149,4.755663,18.78,-0.98,-0.11,9.03
49.841149,4.755663,18.78,0.52,0.76,8.07
49.841131,4.755401,18.39,-1.08,0.57,8.39
49.841131,4.755401,18.39,-2.25,0.67,7.04
49.841117,4.755147,18.29,-3.36,0.98,9.45
49.841117,4.755147,18.29,-3.56,-0.2,10.87
49.841087,4.754908,17.73,-3.82,0.98,8.95
49.841087,4.754908,17.73,-4.46,-0.13,10.83
49.841034,4.754669,17.77,-4.65,-0.17,10.88
49.841034,4.754669,17.77,-3.54,1.0,9.8
49.840942,4.754461,17.88,-2.29,-0.15,6.18
49.840942,4.754461,17.88,-1.59,0.97,10.95
49.840828,4.754279,17.9,-0.51,1.86,10.86
49.840828,4.754279,17.9,-1.11,0.9,11.38
49.840705,4.754112,18.12,0.55,0.21,7.83
49.840705,4.754112,18.12,-0.17,1.4,8.16
49.840583,4.753945,18.04,-1.3,-0.12,11.93
49.840583,4.753945,18.04,0.38,0.53,8.69
49.840461,4.753777,18.07,-0.33,0.93,8.28
49.840461,4.753777,18.07,-0.29,0.87,7.7
49.840341,4.753596,18.35,0.26,2.98,10.59
49.840341,4.753596,18.35,0.87,2.17,8.41
49.840229,4.753406,18.88,0.46,0.77,7.51
49.840229,4.753406,18.88,0.34,0.57,8.5
49.840118,4.753204,19.29,0.57,-0.38,8.61
49.840118,4.753204,19.29,-0.87,0.48,10.47
49.840011,4.75299,19.1,-0.49,1.2,9.32
49.840011,4.75299,19.1,-1.23,1.28,11.84
49.839912,4.752774,18.78,0.35,1.46,9.96
49.839912,4.752774,18.78,-0.62,0.5,10.51
49.839821,4.752556,18.73,-0.49,0.69,8.65
49.839821,4.752556,18.73,-0.17,1.02,10.36
49.839744,4.752332,18.66,-0.69,0.09,9.25
49.839744,4.752332,18.66,-1.13,0.32,10.39
49.839668,4.752103,18.46,-1.23,0.27,10.63
49.839668,4.752103,18.46,-0.79,0.51,10.38
49.839595,4.751874,18.28,-1.23,0.34,9.76
49.839595,4.751874,18.28,-0.82,0.52,9.12
49.839518,4.751655,17.95,-0.17,1.58,10.1
49.839518,4.751655,17.95,-0.9,1.14,9.94
49.839434,4.751439,17.6,-0.94,0.68,10.19
49.839337,4.751239,18.25,-2.13,0.9,10.91
49.839337,4.751239,18.25,-1.49,1.02,10.12
49.839218,4.751044,18.91,-3.03,1.13,8.0
49.839218,4.751044,18.91,-0.45,0.99,10.08
49.839091,4.750864,19.56,-1.67,0.72,7.63
49.839091,4.750864,19.56,-2.06,1.06,11.9
49.838957,4.750699,19.4,-0.81,1.18,9.15
49.838957,4.750699,19.4,-0.99,0.95,9.84
49.838817,4.750544,20.16,0.4,1.73,11.09
49.838817,4.750544,20.16,0.71,1.73,12.56
49.838651,4.750369,20.52,2.66,1.52,9.41
49.838651,4.750369,20.52,1.0,1.0,9.8
49.838501,4.750191,20.23,1.16,0.43,11.26
49.838501,4.750191,20.23,0.61,1.27,9.37
49.838365,4.750004,20.3,-1.06,0.37,9.01
49.838365,4.750004,20.3,-0.27,2.09,12.32
49.83825,4.749792,20.06,-1.62,0.46,7.57
49.83825,4.749792,20.06,-2.01,0.32,11.46
49.838152,4.749569,19.94,0.01,0.67,8.72
49.838152,4.749569,19.94,-0.22,1.02,11.03
49.838044,4.749359,20.1,-1.2,1.28,10.84
49.838044,4.749359,20.1,-0.89,1.42,11.06
49.837921,4.749157,20.26,-1.15,1.13,10.99
49.837921,4.749157,20.26,1.02,1.75,9.38
49.837765,4.748978,20.64,-0.01,1.6,9.06
49.837765,4.748978,20.64,-0.01,1.46,10.66
49.837616,4.748797,21.03,0.9,0.63,10.55
49.837616,4.748797,21.03,0.04,0.67,9.02
49.837468,4.748611,20.85,-0.27,0.45,9.06
49.837468,4.748611,20.85,-1.08,-0.15,8.98
49.837327,4.748417,20.69,0.2,0.45,8.48
49.837327,4.748417,20.69,-0.95,0.26,7.63
49.837187,4.748228,20.45,-2.37,0.31,10.96
49.837187,4.748228,20.45,-1.24,0.74,9.1
49.837047,4.748045,20.13,-0.99,1.81,8.53
49.837047,4.748045,20.13,0.49,0.86,9.28
49.836914,4.747866,19.75,-0.55,0.85,12.07
49.836914,4.747866,19.75,-0.23,1.54,9.02
49.836777,4.747692,19.56,-0.44,1.95,11.13
49.836777,4.747692,19.56,0.03,1.56,10.98
49.836643,4.747518,19.32,0.79,0.58,11.02
49.836506,4.747354,19.17,-0.1,2.44,11.24
49.836506,4.747354,19.17,-0.2,1.85,12.17
49.836356,4.747188,19.27,0.22,1.13,13.45
49.836356,4.747188,19.27,0.89,1.32,9.27
49.836206,4.747031,18.95,-1.5,0.45,9.36
49.836206,4.747031,18.95,-0.11,0.47,9.14
49.836068,4.746881,18.89,-1.27,1.32,9.87
49.836068,4.746881,18.89,-1.57,1.25,8.33
49.835927,4.746735,18.83,-0.05,1.07,10.79
49.835927,4.746735,18.83,-1.24,1.12,9.5
49.835778,4.746604,19.36,-1.48,1.59,9.28
49.835778,4.746604,19.36,0.46,-0.16,9.82
49.835618,4.746498,19.67,-0.24,0.78,9.83
49.835618,4.746498,19.67,-0.6,1.39,10.07
49.835461,4.7464,19.68,-0.13,1.66,9.83
49.835461,4.7464,19.68,-1.3,1.85,9.76
49.8353,4.746292,19.53,0.87,1.47,7.69
49.8353,4.746292,19.53,-0.89,0.96,9.84
49.835141,4.746188,19.34,-0.6,1.44,11.2
49.835141,4.746188,19.34,-1.34,0.91,11.37
49.834986,4.746088,19.0,0.23,0.8,10.37
49.834986,4.746088,19.0,-0.68,1.6,9.36
49.834821,4.745982,19.33,-1.13,0.47,10.41
49.834821,4.745982,19.33,0.26,0.07,10.3
49.83465,4.745875,19.8,-1.59,0.51,8.98
49.83465,4.745875,19.8,-1.5,0.74,8.6
49.834482,4.745787,19.83,-1.03,0.88,8.71
49.834482,4.745787,19.83,-0.32,-0.19,9.73
49.834315,4.745701,19.87,0.13,0.49,10.73
49.834315,4.745701,19.87,-0.52,1.34,10.98
49.834138,4.745639,19.63,-1.15,0.71,10.62
49.834138,4.745639,19.63,-2.78,0.95,9.0
49.833976,4.745572,18.72,-1.09,1.17,9.03
49.833976,4.745572,18.72,-0.36,0.56,9.34
49.833811,4.745505,18.55,-0.11,1.69,10.86
49.833811,4.745505,18.55,0.78,1.02,7.78
49.833647,4.745455,17.63,0.93,1.14,10.85
49.833647,4.745455,17.63,0.23,1.52,9.86
49.833471,4.745396,18.01,-1.82,0.17,9.46
49.833471,4.745396,18.01,-0.96,0.49,10.09
49.833315,4.745313,19.18,-0.26,1.24,9.67
49.833134,4.745274,19.7,-0.74,0.64,9.0
49.833134,4.745274,19.7,-0.66,1.78,10.57
49.83294,4.745248,20.07,0.2,0.9,9.99
49.83294,4.745248,20.07,-0.06,1.21,11.43
49.832746,4.745223,20.09,-1.98,1.33,8.33
49.832746,4.745223,20.09,-0.6,1.66,8.97
49.832562,4.745196,19.2,-1.35,1.95,13.17
49.832562,4.745196,19.2,-0.54,1.95,9.47
49.832377,4.745161,19.68,-0.7,0.34,11.03
49.832377,4.745161,19.68,-1.22,0.69,9.98
49.832189,4.745145,19.84,-0.38,0.41,9.87
49.832189,4.745145,19.84,-0.76,1.05,10.77
49.832003,4.745158,20.16,-1.09,0.33,9.15
49.832003,4.745158,20.16,0.31,1.45,12.07
49.831833,4.745182,19.93,0.77,2.39,12.11
49.831833,4.745182,19.93,0.45,2.12,10.61
49.831657,4.74518,19.9,0.34,1.48,11.87
49.831657,4.74518,19.9,-1.76,0.77,10.9
49.831465,4.745157,20.1,0.45,1.32,11.06
49.831465,4.745157,20.1,-0.32,1.95,9.19
49.831273,4.745095,19.81,-0.58,1.01,10.29
49.831273,4.745095,19.81,-1.02,0.92,10.31
49.831084,4.745037,19.63,-2.28,0.68,11.72
49.831084,4.745037,19.63,-0.78,1.21,10.58
49.83091,4.744983,20.08,-2.63,1.46,8.49
49.83091,4.744983,20.08,-1.92,1.27,10.13
49.830725,4.744945,20.32,-0.78,1.44,10.24
49.830725,4.744945,20.32,-2.01,1.06,9.32
49.830533,4.744938,20.53,0.79,0.62,9.46
49.830533,4.744938,20.53,-0.37,0.78,10.41
49.830359,4.744958,20.64,-1.34,0.82,9.38
49.830359,4.744958,20.64,-0.1,0.56,11.52
49.830185,4.744977,20.24,0.87,0.93,9.11
49.830185,4.744977,20.24,-0.21,1.05,10.79
49.830011,4.744972,20.01,-0.49,1.32,10.62
49.830011,4.744972,20.01,1.47,2.01,8.03
49.829828,4.744942,19.61,-0.34,1.72,11.61
49.829828,4.744942,19.61,-0.4,0.97,10.82
49.829652,4.744872,19.68,1.23,1.25,9.98
49.829652,4.744872,19.68,-1.01,1.64,9.56
49.829469,4.744784,19.47,-0.11,0.66,10.03
49.82928,4.744704,19.75,-0.12,0.99,10.37
49.82928,4.744704,19.75,-0.92,1.0,10.52
49.829101,4.744627,19.73,-1.94,0.55,8.47
49.829101,4.744627,19.73,-0.99,0.83,8.4
49.828931,4.744556,19.97,-0.8,0.56,8.9
49.828931,4.744556,19.97,-0.34,1.51,7.83
49.828759,4.744467,20.0,-1.15,1.58,10.74
49.828759,4.744467,20.0,-1.34,0.9,10.88
49.828588,4.744375,20.69,0.02,0.66,10.18
49.828588,4.744375,20.69,-0.41,0.5,9.34
49.828411,4.744303,20.36,-0.23,1.25,11.28
49.828411,4.744303,20.36,0.75,1.2,10.93
49.828236,4.744229,20.38,-1.84,0.5,8.4
49.828236,4.744229,20.38,-0.24,1.12,10.42
49.828062,4.744159,20.05,-1.18,0.57,8.86
49.828062,4.744159,20.05,-1.01,0.87,9.89
49.827882,4.744103,19.83,-3.27,0.34,9.53
49.827882,4.744103,19.83,-2.55,0.11,9.5
49.827706,4.744094,20.05,0.73,1.47,10.49
49.827706,4.744094,20.05,0.82,0.73,11.38
49.827528,4.744109,19.39,-0.41,1.44,10.32
49.827528,4.744109,19.39,0.66,1.2,9.45
49.827348,4.744119,19.79,-1.94,0.67,9.81
49.827348,4.744119,19.79,0.48,0.59,9.14
49.827176,4.744076,19.87,0.8,1.25,9.97
49.827176,4.744076,19.87,0.01,0.75,11.54
49.826995,4.744016,19.78,0.93,1.02,8.46
49.826995,4.744016,19.78,-0.09,0.98,10.3
49.826813,4.743947,19.36,-1.95,1.2,9.72
49.826813,4.743947,19.36,0.17,1.09,9.82
49.826641,4.743895,19.31,0.21,1.26,11.81
49.826641,4.743895,19.31,-2.17,1.36,10.66
49.826457,4.743848,20.12,0.96,1.65,11.32
49.826457,4.743848,20.12,-1.61,0.95,8.48
49.82628,4.743839,20.53,-0.33,1.76,10.14
49.82628,4.743839,20.53,-0.04,1.06,11.77
49.826099,4.74382,20.5,1.11,0.95,9.7
49.826099,4.74382,20.5,-0.58,1.08,12.02
49.825907,4.743769,20.3,-0.23,-0.18,8.42
49.825907,4.743769,20.3,-1.54,1.06,11.77
49.825718,4.743687,20.44,0.03,-0.47,10.75
49.825718,4.743687,20.44,0.23,1.66,11.2
49.82552,4.74361,20.14,-1.7,0.31,11.59
49.825332,4.743528,19.79,0.21,0.65,9.08
49.825332,4.743528,19.79,-0.85,1.32,8.09
49.825165,4.743449,19.51,-0.08,0.38,10.34
49.825165,4.743449,19.51,0.06,1.4,8.47
49.824999,4.743373,19.17,-1.54,1.32,11.23
49.824999,4.743373,19.17,-0.72,0.97,9.73
49.824829,4.743296,19.26,-1.2,0.57,8.62
49.824829,4.743296,19.26,-1.75,-0.13,10.59
49.824666,4.743222,19.2,-1.15,0.05,11.0
49.824666,4.743222,19.2,0.7,1.25,10.87
49.82451,4.743161,18.58,0.43,1.72,12.5
49.82451,4.743161,18.58,-0.04,0.3,5.92
49.824349,4.743109,17.87,-0.38,0.31,9.58
49.824349,4.743109,17.87,-2.8,1.01,8.97
49.82419,4.743066,18.19,0.56,0.62,10.04
49.82419,4.743066,18.19,-0.02,-0.36,10.44
49.824029,4.743031,18.49,-1.03,1.11,10.62
49.824029,4.743031,18.49,0.37,0.91,8.85
49.82387,4.743001,18.01,0.76,1.23,10.52
49.82387,4.743001,18.01,0.85,0.16,11.96
49.823708,4.742966,18.2,-1.96,1.77,7.34
49.823708,4.742966,18.2,-0.12,-0.11,7.37
49.823538,4.742914,18.21,-1.43,0.99,8.24
49.823538,4.742914,18.21,-1.16,0.53,10.08
49.823371,4.742879,17.66,-1.24,0.8,11.29
49.823371,4.742879,17.66,-0.92,0.99,10.97
49.823201,4.742848,18.0,0.1,1.19,10.06
49.823201,4.742848,18.0,-0.85,1.27,9.64
49.823031,4.742811,18.19,0.13,0.95,8.06
49.823031,4.742811,18.19,0.08,0.31,7.82
49.822878,4.742763,17.92,-0.8,0.11,10.11
49.822878,4.742763,17.92,-0.89,0.57,10.71
49.82272,4.742704,17.86,0.23,1.0,9.43
49.82272,4.742704,17.86,-0.33,0.5,10.91
49.82256,4.742642,17.26,0.23,1.52,9.31
49.82256,4.742642,17.26,1.67,1.21,14.4
49.822411,4.742583,16.96,-0.08,0.81,9.81
49.822411,4.742583,16.96,-0.32,1.42,9.39
49.822256,4.742516,16.6,-0.93,1.13,10.88
49.822256,4.742516,16.6,-1.32,1.36,8.68
49.822106,4.742452,16.51,-0.43,0.6,10.75
49.82196,4.742379,16.26,-0.38,1.62,12.18
49.82196,4.742379,16.26,-0.78,0.72,7.57
49.82182,4.74231,16.09,1.0,1.28,10.5
49.82182,4.74231,16.09,-1.02,1.32,10.95
49.821694,4.742237,15.84,-0.41,0.31,8.53
49.821694,4.742237,15.84,-1.2,1.38,9.07
49.821566,4.742171,15.45,-0.54,1.12,9.66
49.821566,4.742171,15.45,-0.86,0.19,9.95
49.821439,4.742116,15.06,-0.91,1.02,10.71
49.821439,4.742116,15.06,-0.14,1.36,13.03
49.821308,4.742062,14.6,0.44,0.78,10.43
49.821308,4.742062,14.6,-1.0,1.06,11.44
49.821181,4.742009,14.28,-0.91,1.49,12.45
49.821181,4.742009,14.28,0.91,0.69,11.09
49.821055,4.74196,14.08,-0.13,0.16,9.04
49.821055,4.74196,14.08,-0.76,0.31,9.93
49.820922,4.741906,13.68,-0.49,1.17,9.37
49.820922,4.741906,13.68,-0.91,1.24,10.5
49.820796,4.741856,13.49,0.08,0.83,9.94
49.820796,4.741856,13.49,-1.28,0.97,9.94
49.820675,4.741806,13.14,-1.05,0.98,9.65
49.820675,4.741806,13.14,-0.0,1.35,10.88
49.820566,4.741748,12.69,-0.22,0.76,7.58
49.820566,4.741748,12.69,-0.13,1.43,10.99
49.820466,4.741698,12.49,-0.03,1.09,10.12
49.820466,4.741698,12.49,-0.54,1.9,10.23
49.820363,4.74165,12.51,-0.75,-0.11,11.66
49.820363,4.74165,12.51,-0.75,1.9,9.02
49.820259,4.741611,12.2,-2.37,1.97,10.92
49.820259,4.741611,12.2,-1.13,0.92,9.91
49.820152,4.741566,12.76,-0.97,1.51,9.82
49.820152,4.741566,12.76,-1.14,1.41,9.84
49.820038,4.741517,13.28,-0.59,1.02,10.69
49.820038,4.741517,13.28,-1.13,1.22,8.46
49.819925,4.74147,13.0,-0.3,0.91,8.75
49.819925,4.74147,13.0,-0.19,1.27,10.3
49.819811,4.741418,12.88,0.43,0.94,10.57
49.819811,4.741418,12.88,-0.93,1.21,9.09
49.819698,4.741369,12.99,-0.99,-0.29,11.44
49.819698,4.741369,12.99,-1.72,0.96,9.35
49.819588,4.741319,12.47,-0.84,1.02,11.18
49.819588,4.741319,12.47,-0.6,1.48,10.77
49.819488,4.741285,12.68,-1.36,1.96,8.61
49.819378,4.741231,12.9,-1.47,2.55,7.39
49.819378,4.741231,12.9,-2.47,3.75,16.54
49.819265,4.741173,13.21,-0.45,1.43,11.54
49.819265,4.741173,13.21,-0.67,1.93,9.46
49.819147,4.74111,13.57,-0.35,2.15,8.99
49.819147,4.74111,13.57,-1.69,1.41,9.31
49.819029,4.741046,13.79,-0.25,1.15,9.71
49.819029,4.741046,13.79,-1.24,1.33,8.74
49.818912,4.74098,13.45,-1.8,1.0,9.46
49.818912,4.74098,13.45,-0.73,0.94,10.57
49.818797,4.740918,13.48,-1.1,1.05,10.23
49.818797,4.740918,13.48,-2.55,1.12,7.04
49.81868,4.740857,13.85,-1.12,1.9,9.37
49.81868,4.740857,13.85,-0.91,1.82,8.1
49.818559,4.740799,14.31,-0.23,1.25,9.39
49.818559,4.740799,14.31,-1.05,1.08,10.73
49.818443,4.740743,13.94,-2.04,0.15,9.85
49.818443,4.740743,13.94,-0.94,1.52,9.96
49.818323,4.74069,13.34,-1.33,1.17,7.85
49.818323,4.74069,13.34,-0.57,1.36,10.49
49.818206,4.740639,13.25,-1.37,0.79,8.88
49.818206,4.740639,13.25,-1.07,1.72,10.19
49.818092,4.740595,13.13,-0.23,2.07,10.93
49.818092,4.740595,13.13,-0.64,0.87,9.7
49.817979,4.74055,13.32,-0.61,1.02,6.44
49.817979,4.74055,13.32,-2.46,0.14,10.76
49.817865,4.740517,12.85,-0.32,0.81,12.38
49.817865,4.740517,12.85,-0.07,0.55,12.72
49.817756,4.74047,12.25,-2.08,1.59,9.46
49.817756,4.74047,12.25,-1.51,1.75,9.95
49.817651,4.740429,12.17,-2.28,1.08,10.21
49.817651,4.740429,12.17,-0.56,2.55,8.94
49.817544,4.740389,12.56,-1.06,1.96,8.17
49.817544,4.740389,12.56,-1.0,0.4,12.94
49.817434,4.740348,12.8,-0.17,0.44,7.84
49.817434,4.740348,12.8,1.22,-0.26,11.14
49.817324,4.740309,12.15,0.0,-0.32,10.09
49.817324,4.740309,12.15,-0.95,-0.24,9.82
49.817223,4.740276,10.45,-0.16,0.46,12.45
49.817223,4.740276,10.45,1.58,0.02,11.32
49.817137,4.740245,8.99,-1.29,0.31,9.6
49.817064,4.740222,7.41,-1.14,0.24,12.26
49.817064,4.740222,7.41,-0.86,-0.22,9.62
49.817011,4.740202,5.8,0.81,-1.24,12.02
49.817011,4.740202,5.8,-0.11,0.51,10.24
49.81697,4.740184,4.71,-1.01,0.57,8.84
49.81697,4.740184,4.71,-1.01,-0.17,11.03
49.816937,4.740169,3.4,-0.83,-0.63,10.8
49.816937,4.740169,3.4,0.1,-1.12,8.68
49.816937,4.740169,0.0,-0.64,0.31,11.14
49.816937,4.740169,0.0,-0.97,0.57,8.65
49.816937,4.740169,0.0,-0.65,0.14,9.22
49.816937,4.740169,0.0,-0.7,1.42,9.41
49.816937,4.740169,0.0,-1.21,1.27,10.28
49.816937,4.740169,0.0,-1.02,1.48,9.39
49.816937,4.740169,0.0,-0.85,1.47,9.32
49.816937,4.740169,0.0,-0.98,1.42,10.46
49.816937,4.740169,0.0,-0.72,1.59,9.62
49.816937,4.740169,0.0,-1.0,1.31,9.75
49.816937,4.740169,0.0,-0.72,1.42,10.36
49.816937,4.740169,0.0,-1.26,0.91,8.8
49.816937,4.740169,0.0,-1.27,1.36,9.13
49.816937,4.740169,0.0,-1.02,1.51,9.77
49.816937,4.740169,0.0,-1.14,1.32,10.19
49.816937,4.740169,0.0,-1.47,0.97,10.12
49.816937,4.740169,0.0,-1.03,1.24,9.9
49.816937,4.740169,0.0,-1.48,1.04,10.17
49.816937,4.740169,0.0,-0.98,1.42,10.09
49.816937,4.740169,0.0,-0.54,1.04,10.43
49.816937,4.740169,0.0,-1.18,1.29,9.78
49.816937,4.740169,0.0,-0.89,1.36,10.16
49.816937,4.740169,0.0,-1.19,1.24,10.01
49.816937,4.740169,0.0,-1.24,0.86,9.64
49.816937,4.740169,0.0,-0.62,1.58,8.67
49.816937,4.740169,0.0,-1.3,1.22,9.92
49.816937,4.740169,0.0,-1.02,1.38,9.42
49.816937,4.740169,0.0,-0.56,1.61,10.21
49.816937,4.740169,0.0,-1.22,1.29,9.93
49.816937,4.740169,0.0,-1.3,1.2,9.84
49.816937,4.740169,0.0,-0.97,1.23,10.15
49.816937,4.740169,0.0,-0.97,1.82,9.68
49.816937,4.740169,0.0,-0.82,1.32,10.73
49.816937,4.740169,0.0,-0.75,1.55,9.41
49.816937,4.740169,0.0,-0.97,1.54,9.98
49.816937,4.740169,0.0,-0.61,1.69,9.7
49.816937,4.740169,0.0,-1.32,1.16,9.69
49.816937,4.740169,0.0,-7.01,1.89,9.56
49.816937,4.740169,0.0,-1.39,1.11,9.8
49.816937,4.740169,0.0,-1.57,1.52,9.59
49.816937,4.740169,0.0,1.16,-0.72,10.41
49.816937,4.740169,0.0,5.03,0.55,7.88
49.816937,4.740169,0.0,6.0,0.97,7.48
49.816937,4.740169,0.0,6.96,0.87,7.24
49.816937,4.740169,0.0,7.16,1.05,6.24
49.816937,4.740169,0.0,-1.63,1.92,12.89
49.816937,4.740169,0.0,-0.95,1.57,10.11
49.816937,4.740169,0.0,-1.0,1.6,9.9
49.816937,4.740169,0.0,-1.04,1.5,9.6
49.816937,4.740169,0.0,-0.87,1.32,9.9
49.816937,4.740169,0.0,-1.45,1.29,9.96
49.816937,4.740169,0.0,-0.98,1.38,9.61
49.816937,4.740169,0.0,-1.14,1.33,9.98
49.816937,4.740169,0.0,-1.41,1.58,9.48
49.816937,4.740169,0.0,-1.31,1.2,10.25
49.816937,4.740169,0.0,-0.81,1.79,10.59
49.816937,4.740169,0.0,-0.9,1.37,9.58
49.816937,4.740169,0.0,-1.0,1.34,9.68
49.816937,4.740169,0.0,-1.43,1.03,9.96
49.816937,4.740169,0.0,-0.46,1.42,10.02
49.816937,4.740169,0.0,-1.49,1.56,9.88
49.816937,4.740169,0.0,-1.49,1.48,9.69
49.816937,4.740169,0.0,-1.37,1.65,10.0
49.816937,4.740169,0.0,-1.01,1.57,9.96
49.816937,4.740169,0.0,-1.0,1.6,9.39
49.816937,4.740169,0.0,-1.13,1.58,9.53
49.816937,4.740169,0.0,-0.89,1.6,9.97
49.816937,4.740169,0.0,-1.31,1.48,10.06
49.816937,4.740169,0.0,-1.14,1.41,9.56
49.816937,4.740169,0.0,-1.02,1.52,9.53
49.816937,4.740169,0.0,-0.91,1.42,9.61
49.816937,4.740169,0.0,-1.46,1.47,9.85
49.816937,4.740169,0.0,-0.94,1.67,9.96
49.816937,4.740169,0.0,-0.99,1.49,10.31
49.816937,4.740169,0.0,-0.79,1.59,9.96
49.816937,4.740169,0.0,-1.23,1.56,9.83
49.816937,4.740169,0.0,-0.85,1.59,9.96
49.816937,4.740169,0.0,-1.11,1.44,9.89
49.816937,4.740169,0.0,-1.07,1.52,9.69
49.816937,4.740169,0.0,-0.99,1.64,9.79
49.816937,4.740169,0.0,-1.24,1.42,9.69
49.816937,4.740169,0.0,-1.46,1.47,9.87
49.816937,4.740169,0.0,-1.6,1.4,9.95
49.816937,4.740169,0.0,-1.01,1.6,9.6
49.816937,4.740169,0.0,-1.16,1.53,9.73
49.816937,4.740169,0.0,-1.15,1.48,9.85
49.816937,4.740169,0.0,-1.32,1.46,9.76
49.816937,4.740169,0.0,-0.96,1.62,9.88
49.816937,4.740169,0.0,-1.04,1.58,9.68
49.816937,4.740169,0.0,-1.04,1.48,10.05
49.816937,4.740169,0.0,-1.25,1.44,9.66
49.816937,4.740169,0.0,-0.94,1.66,9.92
49.816937,4.740169,0.0,-1.32,1.46,9.91
49.816937,4.740169,0.0,-1.19,1.38,9.64
49.816937,4.740169,0.0,-1.1,1.57,9.98
49.816937,4.740169,0.0,-1.5,1.48,9.84
49.816937,4.740169,0.0,-1.13,1.46,9.53
49.816937,4.740169,0.0,-1.02,1.63,10.31
49.816937,4.740169,0.0,-0.94,1.7,10.04
49.816937,4.740169,0.0,-1.31,1.39,9.83
49.816937,4.740169,0.0,-1.22,1.51,9.48
49.816937,4.740169,0.0,-1.18,1.44,9.85
49.816937,4.740169,0.0,-1.14,1.62,10.07
49.816937,4.740169,0.0,-1.06,1.68,9.9
49.816937,4.740169,0.0,-1.69,1.41,9.83
49.816937,4.740169,0.0,-1.1,1.52,9.62
49.816937,4.740169,0.0,-0.86,1.5,9.92
49.816937,4.740169,0.0,-1.54,1.43,10.1
49.816937,4.740169,0.0,-1.09,1.45,9.68
49.816937,4.740169,0.0,-1.42,1.36,9.84
49.816937,4.740169,0.0,-1.43,1.65,9.8
49.816937,4.740169,0.0,-0.89,1.72,9.96
49.816937,4.740169,0.0,-1.13,1.35,9.85
49.816937,4.740169,0.0,-1.26,1.62,9.65
49.816937,4.740169,0.0,-1.39,1.52,9.81
49.816937,4.740169,0.0,-0.96,1.62,10.1
49.816937,4.740169,0.0,-0.93,1.66,9.8
49.816937,4.740169,0.0,-1.11,1.58,9.85
49.816937,4.740169,0.0,-1.25,1.5,9.92
49.816937,4.740169,0.0,-1.13,1.4,9.79
49.816937,4.740169,0.0,-0.88,1.02,8.95
49.816937,4.740169,0.0,-1.24,1.32,9.61
49.816937,4.740169,0.0,-1.06,1.65,9.44
49.816937,4.740169,0.0,-1.12,1.43,9.82
49.816937,4.740169,0.0,-1.13,1.45,9.97
49.816937,4.740169,0.0,-0.9,1.66,9.81
49.816937,4.740169,0.0,-1.08,1.47,9.45
49.816937,4.740169,0.0,-1.26,1.61,9.75
49.816937,4.740169,0.0,-0.99,1.54,9.57
49.816937,4.740169,0.0,-1.25,1.52,9.91
49.816937,4.740169,0.0,-1.12,1.75,9.66
49.816937,4.740169,0.0,-1.18,1.46,9.89
49.816937,4.740169,0.0,-1.36,1.44,9.8
49.816937,4.740169,0.0,-1.13,1.47,9.77
49.816937,4.740169,0.0,-1.48,1.55,9.88
49.816937,4.740169,0.0,-1.07,1.49,9.71
49.816937,4.740169,0.0,-1.33,1.33,9.78
49.816937,4.740169,0.0,-1.05,1.44,9.9
49.816937,4.740169,0.0,-0.86,1.48,9.71
49.816937,4.740169,0.0,-1.0,1.55,9.79
49.816937,4.740169,0.0,-0.8,1.53,9.71
49.816937,4.740169,0.0,-1.58,1.2,9.72
49.816937,4.740169,0.0,-1.7,1.28,9.83
49.816937,4.740169,0.0,-1.14,1.39,9.91
49.816937,4.740169,0.0,-0.91,1.45,9.67
49.816937,4.740169,0.0,-0.92,1.4,9.82
49.816937,4.740169,0.0,-1.24,1.6,9.77
49.816937,4.740169,0.0,-0.67,1.66,9.66
49.816937,4.740169,0.0,-1.06,1.75,10.0
49.816937,4.740169,0.0,-1.13,1.6,9.8
49.816937,4.740169,0.0,-1.31,1.51,9.94
49.816937,4.740169,0.0,-1.6,1.13,9.65
49.816937,4.740169,0.0,-1.37,1.31,10.16
49.816937,4.740169,0.0,-1.75,2.16,9.66
49.816937,4.740169,0.0,-1.57,2.81,9.9
49.816937,4.740169,0.0,-1.66,2.68,9.35
49.816937,4.740169,0.0,-2.03,3.17,8.85
49.816903,4.740136,1.14,-3.24,3.8,8.61
49.816903,4.740136,1.14,-2.18,3.18,8.26
49.816878,4.740126,3.74,-1.77,3.35,8.7
49.816878,4.740126,3.74,-0.75,2.86,10.11
49.816832,4.740112,5.81,-0.55,1.51,10.79
49.816832,4.740112,5.81,-2.02,1.47,9.69
49.816776,4.740094,6.12,-1.89,2.59,8.5
49.816716,4.740068,7.21,-2.56,2.51,9.53
49.816716,4.740068,7.21,-2.25,2.67,9.5
49.816643,4.740041,8.67,-2.9,1.77,8.97
49.816643,4.740041,8.67,-2.24,2.12,9.57
49.81656,4.740019,9.44,-1.03,0.78,11.4
49.81656,4.740019,9.44,-1.63,0.85,10.06
49.816466,4.740006,10.41,-1.78,2.13,9.54
49.816466,4.740006,10.41,-2.34,2.6,9.06
49.816365,4.740001,11.22,-1.07,2.34,7.62
49.816365,4.740001,11.22,-1.32,0.33,3.57
49.816251,4.740001,12.41,-2.24,1.56,11.69
49.816251,4.740001,12.41,-1.67,0.24,11.03
49.816134,4.739997,12.89,-0.97,2.15,10.47
49.816134,4.739997,12.89,-0.7,1.25,10.68
49.816015,4.739993,13.26,-0.82,1.42,10.99
49.816015,4.739993,13.26,-1.64,1.75,7.27
49.815895,4.739993,13.56,-0.68,0.95,9.98
49.815895,4.739993,13.56,-3.32,0.66,9.33
49.815773,4.739991,13.59,-1.78,0.22,10.92
49.815773,4.739991,13.59,-0.23,1.58,10.81
49.815652,4.739988,14.19,-1.58,1.54,9.75
49.815652,4.739988,14.19,-1.02,0.99,9.89
49.815528,4.739983,13.52,-1.65,1.27,8.09
49.815528,4.739983,13.52,-1.99,1.39,10.29
49.815405,4.739982,13.63,-1.05,0.75,7.93
49.815405,4.739982,13.63,-0.59,0.01,9.6
49.815281,4.739985,13.67,-2.3,1.83,10.46
49.815281,4.739985,13.67,-1.16,1.17,8.68
49.815162,4.739998,13.2,0.24,2.25,9.14
49.815162,4.739998,13.2,-1.49,1.61,8.85
49.815042,4.740006,13.31,1.17,1.6,10.21
49.815042,4.740006,13.31,1.54,1.92,10.27
49.814922,4.740009,13.33,1.3,1.63,12.68
49.814922,4.740009,13.33,-0.63,1.04,9.53
49.814799,4.73999,13.38,-0.84,1.24,8.31
49.814799,4.73999,13.38,-2.63,1.59,10.55
49.814685,4.739939,13.01,-0.58,1.22,10.02
49.814685,4.739939,13.01,-1.98,0.43,8.12
49.814581,4.739868,12.34,-2.36,0.41,11.36
49.814581,4.739868,12.34,-0.57,1.36,9.56
49.814476,4.739803,12.47,-1.42,0.88,9.55
49.814372,4.739741,12.26,-0.36,1.46,9.28
49.814372,4.739741,12.26,-0.52,1.17,8.01
49.814269,4.739682,12.16,-0.85,1.8,10.52
49.814269,4.739682,12.16,-1.54,0.24,8.51
49.814168,4.739622,12.05,-1.2,1.09,10.88
49.814168,4.739622,12.05,-0.98,1.92,9.6
49.814066,4.73957,12.01,-1.97,1.6,9.29
49.814066,4.73957,12.01,-0.76,0.55,9.79
49.813966,4.73952,11.63,-0.84,0.22,9.01
49.813966,4.73952,11.63,-0.82,1.31,8.83
49.813866,4.739472,11.54,-1.02,1.47,10.64
49.813866,4.739472,11.54,-0.26,1.13,9.73
49.813768,4.739427,10.94,-1.13,0.77,10.11
49.813768,4.739427,10.94,-1.36,0.31,10.47
49.813676,4.739382,10.68,-0.77,0.82,10.22
49.813676,4.739382,10.68,-0.17,0.53,9.39
49.813587,4.739341,10.2,0.02,0.09,10.52
49.813587,4.739341,10.2,-0.24,-0.7,8.52
49.813503,4.739306,8.98,-0.97,0.55,10.1
49.813503,4.739306,8.98,-0.37,1.31,11.09
49.813426,4.739275,8.33,0.26,2.46,9.47
49.813426,4.739275,8.33,0.43,2.26,9.15
49.813351,4.739241,8.28,-0.09,2.75,9.79
49.813351,4.739241,8.28,-0.73,1.04,9.18
49.813278,4.73919,8.78,-2.34,0.36,9.62
49.813278,4.73919,8.78,-3.67,-0.16,9.86
49.813209,4.73914,7.92,-2.84,-0.19,8.97
49.813209,4.73914,7.92,-3.35,1.3,10.56
49.813135,4.739115,8.29,-2.13,0.82,9.1
49.813135,4.739115,8.29,0.57,2.91,9.37
49.813056,4.739134,9.17,0.24,3.48,10.59
49.813056,4.739134,9.17,-0.74,2.55,10.54
49.812965,4.739161,10.34,-1.41,1.4,8.86
49.812965,4.739161,10.34,-1.98,2.43,10.0
49.812862,4.73917,11.3,-2.58,2.65,10.59
49.812862,4.73917,11.3,-0.97,2.78,9.34
49.812751,4.739185,12.71,-1.3,1.93,9.45
49.812751,4.739185,12.71,-2.16,0.79,9.94
49.812631,4.739205,13.49,-1.78,0.89,10.16
49.812631,4.739205,13.49,-1.74,0.87,9.52
49.81251,4.739227,13.15,-1.36,1.46,9.42
49.81251,4.739227,13.15,-1.47,2.26,11.77
49.812394,4.739251,13.31,-2.37,1.75,9.02
49.812278,4.739285,13.59,-2.12,2.01,10.96
49.812278,4.739285,13.59,-1.55,1.93,8.95
49.812149,4.739324,14.96,-3.92,3.15,7.85
49.812149,4.739324,14.96,-1.95,2.64,10.19
49.812022,4.739397,15.27,-0.37,1.07,10.39
49.812022,4.739397,15.27,-0.06,1.88,12.75
49.811889,4.739488,15.91,-0.03,2.74,8.37
49.811889,4.739488,15.91,-0.38,2.37,11.0
49.811753,4.739583,16.17,-1.36,2.21,10.36
49.811753,4.739583,16.17,-2.16,1.61,7.82
49.811605,4.739672,17.54,-2.13,3.43,12.29
49.811605,4.739672,17.54,-1.77,1.67,10.22
49.811447,4.739772,18.3,0.08,2.21,8.18
49.811447,4.739772,18.3,-0.93,1.66,11.02
49.811283,4.73987,18.78,0.74,2.51,12.01
49.811283,4.73987,18.78,-0.59,1.58,9.1
49.811112,4.739982,20.02,-1.66,1.57,9.09
49.811112,4.739982,20.02,-1.53,1.56,11.19
49.810937,4.740093,20.54,-0.78,0.27,10.6
49.810937,4.740093,20.54,-1.04,0.68,10.69
49.81076,4.740203,20.43,-1.24,1.41,9.5
49.81076,4.740203,20.43,-0.79,1.11,9.62
49.810581,4.740315,20.89,-1.63,1.42,9.21
49.810581,4.740315,20.89,-0.64,1.54,10.44
49.810403,4.740432,21.52,-1.24,1.91,7.55
49.810403,4.740432,21.52,-2.28,0.9,7.56
49.810219,4.740561,21.92,-1.06,1.22,9.95
49.810219,4.740561,21.92,-0.64,1.85,10.54
49.810041,4.74069,21.51,-0.54,0.32,10.43
49.810041,4.74069,21.51,-1.31,0.06,10.55
49.809868,4.74082,20.94,-0.25,1.33,10.0
49.809868,4.74082,20.94,0.82,0.33,7.4
49.809697,4.740952,21.02,-2.61,-0.29,9.17
49.809697,4.740952,21.02,0.13,0.42,12.96
49.809528,4.741086,21.15,-0.25,2.18,11.62
49.809528,4.741086,21.15,-0.95,0.34,10.4
49.80936,4.741233,21.28,-0.83,1.37,8.21
49.80936,4.741233,21.28,-0.62,0.85,12.77
49.809195,4.741394,21.19,-1.32,0.62,9.66
49.809039,4.741562,21.23,-0.12,1.62,10.86
49.809039,4.741562,21.23,-0.1,2.56,10.49
49.808879,4.741735,21.44,-0.73,1.14,8.88
49.808879,4.741735,21.44,-0.62,2.0,10.67
49.808718,4.7419,21.52,-0.55,1.91,10.94
49.808718,4.7419,21.52,0.5,1.45,8.5
49.808552,4.742059,21.3,0.2,2.67,10.25
49.808552,4.742059,21.3,0.49,2.56,8.82
49.808387,4.742199,21.21,-0.75,1.96,8.39
49.808387,4.742199,21.21,0.31,2.52,8.32
49.808216,4.742315,21.19,-0.98,1.34,8.95
49.808216,4.742315,21.19,-0.63,1.92,10.18
49.808039,4.742423,21.63,-0.46,2.08,13.88
49.808039,4.742423,21.63,-2.02,1.65,5.96
49.807854,4.742538,22.01,-0.99,1.71,10.05
49.807854,4.742538,22.01,-2.12,0.42,9.86
49.807669,4.742659,22.44,-0.29,2.56,10.2
49.807669,4.742659,22.44,-0.32,2.72,9.61
49.807488,4.74278,22.5,-1.61,1.42,10.4
49.807488,4.74278,22.5,0.52,1.06,10.08
49.807301,4.742901,22.86,-2.26,2.05,10.66
49.807301,4.742901,22.86,-0.58,2.26,11.88
49.807112,4.743032,23.17,-1.17,1.61,10.36
49.807112,4.743032,23.17,-1.92,1.82,10.4
49.80691,4.743182,23.45,-1.31,1.56,11.08
49.80691,4.743182,23.45,-0.39,1.96,10.34
49.806706,4.743329,23.63,0.69,2.41,8.54
49.806706,4.743329,23.63,-0.12,0.75,10.02
49.806508,4.743467,23.56,0.79,1.79,10.98
49.806508,4.743467,23.56,-2.06,1.81,8.19
49.806318,4.743593,23.35,-2.83,0.68,8.83
49.806318,4.743593,23.35,-1.53,1.35,9.35
49.806131,4.743725,23.37,-1.59,1.66,10.2
49.806131,4.743725,23.37,-1.5,0.8,12.42
49.80594,4.743867,23.13,-2.07,2.52,10.88
49.80594,4.743867,23.13,-0.47,1.77,8.04
49.80576,4.744,23.12,-2.4,2.07,9.78
49.80576,4.744,23.12,-0.97,2.4,9.05
49.805576,4.744141,23.23,-1.17,2.14,8.57
49.805576,4.744141,23.23,-0.07,3.06,10.11
49.805389,4.744288,23.29,-0.22,1.83,7.95
49.805389,4.744288,23.29,-1.49,1.07,10.29
49.805205,4.744437,23.46,0.12,1.4,9.18
49.805205,4.744437,23.46,-0.76,2.13,9.86
49.805016,4.744586,23.61,-0.41,1.57,7.76
49.804819,4.744724,23.56,-0.59,2.62,9.55
49.804819,4.744724,23.56,0.01,1.49,11.84
49.804624,4.744841,23.07,-1.02,1.62,10.46
49.804624,4.744841,23.07,-1.5,2.86,10.19
49.804427,4.74496,23.32,-2.07,2.24,9.47
49.804427,4.74496,23.32,-1.69,1.34,9.88
49.804234,4.745094,23.35,-0.64,1.28,8.73
49.804234,4.745094,23.35,-3.59,1.05,9.54
49.804042,4.745243,23.74,-2.8,1.1,10.59
49.804042,4.745243,23.74,-2.15,0.52,10.62
49.803862,4.74541,23.71,-2.64,1.46,8.61
49.803862,4.74541,23.71,-1.94,0.58,11.32
49.803678,4.745588,23.93,0.08,1.76,10.05
49.803678,4.745588,23.93,-0.91,1.06,10.65
49.803489,4.745766,24.08,-2.53,2.2,10.91
49.803489,4.745766,24.08,-2.34,0.1,6.9
49.803301,4.745942,24.01,-0.47,2.27,9.9
49.803301,4.745942,24.01,-0.67,1.69,10.47
49.803115,4.746117,24.02,-1.69,2.6,9.19
49.803115,4.746117,24.02,-1.9,2.36,9.65
49.802925,4.746288,24.24,-2.06,1.73,11.22
49.802925,4.746288,24.24,0.15,1.21,4.04
49.802734,4.746455,24.29,-0.11,1.72,10.68
49.802734,4.746455,24.29,-0.42,2.94,11.95
49.802549,4.746616,24.08,-0.36,3.43,11.22
49.802549,4.746616,24.08,1.52,2.56,9.94
49.802346,4.746759,24.13,-2.58,2.08,8.4
49.802346,4.746759,24.13,-0.94,1.81,10.79
49.802144,4.74688,24.03,-0.74,2.32,9.79
49.802144,4.74688,24.03,-0.8,0.64,9.07
49.801937,4.746985,24.04,-1.8,0.83,9.18
49.801937,4.746985,24.04,-0.3,-0.15,7.75
49.801737,4.747096,23.34,-2.29,1.64,6.87
49.801737,4.747096,23.34,-1.33,1.51,9.48
49.801546,4.747191,22.81,-1.37,1.04,8.36
49.801546,4.747191,22.81,-1.02,1.12,8.77
49.801362,4.74731,22.62,-0.19,1.69,11.83
49.801362,4.74731,22.62,-0.2,1.28,12.39
49.801167,4.747441,22.71,-1.08,1.72,8.67
49.800977,4.747558,22.57,0.65,1.77,11.11
49.800977,4.747558,22.57,-0.57,2.89,10.85
49.800797,4.747647,22.64,-1.48,1.91,9.79
49.800797,4.747647,22.64,-1.53,2.52,8.43
49.800614,4.747744,22.66,-0.02,1.35,8.99
49.800614,4.747744,22.66,-2.38,2.39,9.55
49.800429,4.747846,22.58,-2.9,1.13,9.06
49.800429,4.747846,22.58,-0.49,1.69,9.46
49.800245,4.747956,22.63,-2.49,1.28,11.35
49.800245,4.747956,22.63,-1.53,0.48,9.54
49.800057,4.748091,22.29,-1.71,1.4,8.09
49.800057,4.748091,22.29,-1.31,1.01,8.66
49.799853,4.74823,22.12,0.45,2.1,9.38
49.799853,4.74823,22.12,-0.06,1.82,10.83
49.79966,4.748368,21.95,0.93,2.63,11.32
49.79966,4.748368,21.95,-1.61,2.0,11.39
49.799487,4.748482,22.06,-0.02,2.24,10.73
49.799487,4.748482,22.06,-2.11,0.83,8.67
49.799301,4.74857,22.24,0.47,1.35,7.42
49.799301,4.74857,22.24,-1.76,1.41,10.39
49.799119,4.748653,22.14,-0.57,1.11,7.02
49.799119,4.748653,22.14,-1.24,2.95,8.72
49.798928,4.748728,21.89,-2.53,1.96,5.87
49.798928,4.748728,21.89,-2.13,1.74,9.23
49.798744,4.748786,22.02,-1.58,1.8,9.22
49.798744,4.748786,22.02,-1.35,1.89,10.99
49.798551,4.748879,22.3,-1.34,1.66,12.09
49.798551,4.748879,22.3,0.18,0.65,8.19
49.798362,4.748948,21.62,-0.85,1.41,10.37
49.798362,4.748948,21.62,-0.54,2.81,11.02
49.798175,4.749035,21.2,-1.68,1.37,8.47
49.798175,4.749035,21.2,-1.53,2.19,9.68
49.797998,4.749114,21.12,-1.97,2.23,8.59
49.797998,4.749114,21.12,-1.04,2.27,11.0
49.797816,4.749196,21.06,-1.93,1.24,9.06
49.797816,4.749196,21.06,-2.12,0.73,9.42
49.797642,4.749276,21.04,-1.99,1.36,10.41
49.797642,4.749276,21.04,0.34,1.2,9.64
49.797465,4.74935,21.05,-1.11,1.18,12.3
49.797465,4.74935,21.05,0.15,1.78,8.47
49.79728,4.749421,20.28,0.65,2.92,10.57
49.79728,4.749421,20.28,1.51,3.78,9.16
49.797105,4.749479,20.04,-0.58,1.55,8.35
49.796915,4.749532,20.37,-0.55,1.91,9.95
49.796915,4.749532,20.37,0.0,2.29,9.06
49.796734,4.749548,20.87,-0.53,2.07,11.78
49.796734,4.749548,20.87,-0.01,2.98,9.31
49.796558,4.749531,21.11,0.25,2.81,8.63
49.796558,4.749531,21.11,2.35,2.2,11.14
49.79638,4.749464,21.33,0.44,1.87,9.86
49.79638,4.749464,21.33,0.28,2.15,11.34
49.796207,4.749381,21.57,0.23,0.91,9.29
49.796207,4.749381,21.57,0.25,0.87,11.32
49.796016,4.749278,21.08,-0.12,1.61,9.62
49.796016,4.749278,21.08,-0.1,3.06,10.75
49.795843,4.749152,21.32,0.31,1.95,9.57
49.795843,4.749152,21.32,1.58,3.13,8.26
49.795676,4.749002,21.67,0.68,1.15,11.43
49.795676,4.749002,21.67,0.88,1.11,9.05
49.795521,4.748829,21.11,-0.12,1.76,8.45
49.795521,4.748829,21.11,3.02,1.29,11.79
49.795374,4.748625,20.73,0.46,1.44,10.83
49.795374,4.748625,20.73,0.56,2.17,9.09
49.795248,4.74841,20.27,-0.04,0.44,11.29
49.795248,4.74841,20.27,0.29,1.29,10.82
49.795139,4.748188,20.39,-0.45,1.97,9.97
49.795139,4.748188,20.39,-0.42,1.92,9.99
49.795033,4.747956,20.52,0.89,1.2,10.97
49.795033,4.747956,20.52,0.73,1.07,7.88
49.794939,4.747716,20.38,1.51,2.32,12.02
49.794939,4.747716,20.38,-0.4,2.08,8.42
49.794845,4.747484,20.13,-0.41,0.57,10.78
49.794845,4.747484,20.13,-0.65,2.17,10.26
49.79476,4.747243,19.87,-1.76,0.81,9.64
49.79476,4.747243,19.87,0.77,1.43,11.98
49.794697,4.746991,19.68,0.06,1.53,10.16
49.794697,4.746991,19.68,0.32,0.64,10.76
49.794662,4.746736,19.73,2.61,2.32,9.69
49.794662,4.746736,19.73,-0.57,2.13,10.18
49.794639,4.746479,20.1,-2.13,2.43,7.46
49.794639,4.746479,20.1,-2.03,0.61,9.0
49.794631,4.746199,20.82,0.82,2.29,11.71
49.794631,4.746199,20.82,-0.3,1.95,10.27
49.794625,4.745912,21.2,-1.0,1.49,9.95
49.794625,4.745912,21.2,-0.47,0.91,9.73
49.794619,4.745617,21.81,0.25,1.8,10.46
49.794609,4.7453,22.2,-0.81,-0.03,10.57
49.794609,4.7453,22.2,-0.9,0.77,9.82
49.794595,4.74499,22.33,-1.59,1.47,8.51
49.794595,4.74499,22.33,-1.59,0.62,10.94
49.794583,4.744673,22.28,-0.01,1.34,11.83
49.794583,4.744673,22.28,-1.18,0.99,9.76
49.794566,4.744358,22.1,-1.38,-0.4,11.19
49.794566,4.744358,22.1,-0.23,1.27,11.12
49.794556,4.744054,21.8,-0.37,0.48,9.6
49.794556,4.744054,21.8,-0.65,0.33,13.04
49.794542,4.743749,21.45,-0.17,0.23,9.27
49.794542,4.743749,21.45,0.17,0.77,12.1
49.794525,4.743447,21.12,-1.29,0.42,8.41
49.794525,4.743447,21.12,-0.24,1.69,10.96
49.794504,4.743156,20.95,0.48,-0.14,9.63
49.794504,4.743156,20.95,0.64,1.63,7.92
49.794488,4.742866,20.75,0.0,1.06,9.07
49.794488,4.742866,20.75,1.58,1.45,10.85
49.794485,4.74258,20.65,1.24,2.65,13.31
49.794485,4.74258,20.65,-0.44,1.37,9.48
49.794503,4.742304,20.75,-0.75,1.94,9.53
49.794503,4.742304,20.75,1.72,2.38,16.65
49.794534,4.742035,20.8,-0.95,0.38,9.06
49.794534,4.742035,20.8,-1.25,1.37,9.42
49.794572,4.741761,20.84,-2.5,1.09,9.44
49.794572,4.741761,20.84,-1.03,1.95,11.59
49.794604,4.741473,21.3,-1.75,1.17,9.77
49.794604,4.741473,21.3,-2.91,0.19,9.67
49.794634,4.741175,21.63,-2.37,0.17,10.74
49.794634,4.741175,21.63,-1.89,0.44,9.27
49.794655,4.740869,22.34,-1.27,0.2,12.02
49.794655,4.740869,22.34,-2.24,1.3,9.4
49.794653,4.740549,22.58,-1.88,1.65,8.13
49.794653,4.740549,22.58,-3.14,0.06,12.16
49.794631,4.740226,23.04,-1.75,0.67,9.66
49.794631,4.740226,23.04,-1.26,0.49,9.41
49.794599,4.739898,23.66,-3.29,1.33,11.83
49.794599,4.739898,23.66,-2.43,-0.09,9.87
49.794562,4.739572,24.1,-3.09,0.25,10.6
49.794562,4.739572,24.1,-2.97,0.48,11.98
49.794508,4.739252,23.68,-2.69,0.34,8.41
49.794508,4.739252,23.68,-2.79,0.79,6.8
49.794432,4.738947,23.93,-1.39,0.23,9.52
49.794337,4.738663,23.71,-2.3,0.26,9.28
49.794337,4.738663,23.71,-0.04,0.01,9.5
49.794238,4.738384,23.49,0.01,0.1,11.9
49.794238,4.738384,23.49,-0.03,1.04,10.71
49.794141,4.738098,23.16,0.3,0.74,12.62
49.794141,4.738098,23.16,-1.03,0.47,10.67
49.794039,4.737807,22.66,-0.64,0.5,8.13
49.794039,4.737807,22.66,-1.14,1.06,9.76
49.793943,4.737523,22.29,0.03,1.35,10.85
49.793943,4.737523,22.29,-0.89,1.0,10.04
49.793844,4.737252,21.94,-0.23,0.63,11.34
49.793844,4.737252,21.94,-0.23,-0.24,6.78
49.793745,4.736993,21.77,-0.71,0.43,7.04
49.793745,4.736993,21.77,-0.5,1.06,9.57
49.793623,4.736756,21.83,-1.04,0.66,9.73
49.793623,4.736756,21.83,-1.02,1.56,8.87
49.793511,4.736509,21.79,-1.37,0.68,9.39
49.793511,4.736509,21.79,-0.88,0.23,9.28
49.793403,4.736252,21.93,-0.6,0.78,8.87
49.793403,4.736252,21.93,-0.68,1.31,8.98
49.793286,4.735998,21.91,-1.29,0.24,8.35
49.793286,4.735998,21.91,-0.53,0.76,10.44
49.793177,4.73574,22.07,-1.94,1.27,10.35
49.793177,4.73574,22.07,-0.78,0.19,9.73
49.793071,4.735473,22.22,-0.23,0.9,9.73
49.793071,4.735473,22.22,-0.2,0.73,11.94
49.792965,4.735215,22.24,-0.22,-0.17,9.2
49.792965,4.735215,22.24,0.57,0.12,9.44
49.792856,4.734962,22.06,0.03,0.68,11.31
49.792856,4.734962,22.06,-0.03,0.24,11.63
49.792748,4.734708,21.93,-1.09,0.68,10.91
49.792748,4.734708,21.93,-0.63,1.14,10.25
49.79264,4.734457,21.82,0.27,0.94,10.12
49.79264,4.734457,21.82,-1.22,1.53,11.72
49.792529,4.734208,21.9,-1.58,0.85,9.79
49.792529,4.734208,21.9,-0.1,0.97,11.4
49.792423,4.733954,21.97,-1.79,0.58,7.88
49.792423,4.733954,21.97,-0.8,-0.01,10.59
49.792315,4.733702,21.86,-1.09,-0.32,12.82
49.792315,4.733702,21.86,-1.75,0.56,10.67
49.792199,4.733445,21.66,-3.55,0.51,10.16
49.792075,4.733209,21.5,-3.69,0.15,8.83
49.792075,4.733209,21.5,-2.63,1.47,11.19
49.791945,4.732996,21.28,-2.64,0.2,10.84
49.791945,4.732996,21.28,-3.19,-0.13,8.04
49.791805,4.732823,21.39,-1.6,1.47,10.2
49.791805,4.732823,21.39,-2.79,1.0,8.35
49.791633,4.732675,21.56,-1.07,1.75,9.21
49.791633,4.732675,21.56,-0.96,0.61,9.32
49.791445,4.732544,21.39,-0.14,1.57,10.34
49.791445,4.732544,21.39,-0.41,0.62,10.61
49.791273,4.732399,20.95,-0.43,2.13,10.13
49.791273,4.732399,20.95,0.86,2.31,9.12
49.791104,4.732252,20.51,1.47,2.31,10.57
49.791104,4.732252,20.51,0.77,2.43,10.67
49.790953,4.732092,20.51,1.28,2.49,10.53
49.790953,4.732092,20.51,1.4,1.97,10.64
49.790815,4.731908,20.54,1.5,2.38,10.28
49.790815,4.731908,20.54,-0.3,2.52,10.58
49.790687,4.731705,20.74,-0.47,2.22,8.85
49.790687,4.731705,20.74,0.57,2.35,9.46
49.790572,4.73148,20.73,-2.27,1.84,9.99
49.790572,4.73148,20.73,-1.21,1.44,9.76
49.79047,4.731236,20.73,-1.47,1.24,10.27
49.79047,4.731236,20.73,-1.29,1.91,9.65
49.790374,4.730984,20.64,-2.44,1.67,10.13
49.790374,4.730984,20.64,-0.83,2.28,10.33
49.790277,4.730735,20.53,-1.7,1.44,9.51
49.790277,4.730735,20.53,-0.59,1.37,9.92
49.790181,4.730492,20.4,-1.27,1.29,9.62
49.790181,4.730492,20.4,-1.62,1.34,11.0
49.790083,4.730252,20.18,-1.19,2.26,8.26
49.790083,4.730252,20.18,-0.0,2.12,9.18
49.789991,4.730013,19.96,-2.42,1.45,10.02
49.789991,4.730013,19.96,-1.42,1.06,10.72
49.789899,4.729778,19.75,-0.51,1.59,10.1
49.789899,4.729778,19.75,-1.3,1.63,9.44
49.789807,4.729549,19.29,-1.99,2.18,9.34
49.789807,4.729549,19.29,-1.73,1.09,9.93
49.789714,4.729331,18.95,-2.54,0.62,9.16
49.789714,4.729331,18.95,-3.79,0.48,10.92
49.789612,4.729128,18.55,-3.88,0.3,9.7
49.789612,4.729128,18.55,-2.0,0.57,7.52
49.789507,4.728934,18.14,-1.8,1.35,9.29
49.789375,4.728779,18.11,-1.52,1.31,9.12
49.789375,4.728779,18.11,-1.06,1.92,10.05
49.789229,4.728662,17.98,-0.71,1.95,9.62
49.789229,4.728662,17.98,-1.37,1.73,10.24
49.789086,4.728545,17.77,-2.03,1.73,10.4
49.789086,4.728545,17.77,-1.26,1.45,9.99
49.788942,4.728427,17.62,-0.97,0.75,10.54
49.788942,4.728427,17.62,-2.23,1.13,7.02
49.7888,4.728319,17.36,0.19,2.48,10.39
49.7888,4.728319,17.36,-1.14,1.41,8.63
49.78866,4.728208,17.67,-1.52,1.9,10.21
49.78866,4.728208,17.67,-1.33,0.45,10.36
49.788522,4.728092,17.34,-1.05,1.16,9.71
49.788522,4.728092,17.34,-0.26,0.73,9.54
49.788388,4.727975,16.93,-1.57,0.04,7.63
49.788388,4.727975,16.93,-0.42,0.75,10.18
49.788258,4.727863,16.08,-0.73,1.33,8.35
49.788258,4.727863,16.08,-0.53,1.28,10.56
49.788137,4.727755,15.31,-0.94,0.18,10.62
49.788137,4.727755,15.31,-0.13,0.66,9.66
49.788022,4.727651,14.44,-0.17,1.17,8.56
49.788022,4.727651,14.44,0.18,1.07,11.13
49.787914,4.72755,13.7,-0.53,1.29,9.1
49.787914,4.72755,13.7,0.06,0.9,9.38
49.787816,4.727443,13.15,-0.85,1.43,8.65
49.787816,4.727443,13.15,0.73,0.33,14.47
49.787725,4.727331,12.59,0.29,2.33,15.23
49.787725,4.727331,12.59,-0.21,2.71,9.4
49.787646,4.727205,12.84,-0.07,2.86,10.17
49.787646,4.727205,12.84,-2.22,1.82,8.97
49.787567,4.727066,13.89,0.2,1.01,10.52
49.787567,4.727066,13.89,-1.75,0.27,8.54
49.787489,4.72692,13.63,-0.66,0.98,9.51
49.787489,4.72692,13.63,-1.69,1.25,9.85
49.787414,4.726763,13.77,-2.0,0.21,12.39
49.787414,4.726763,13.77,2.48,1.15,13.95
49.787334,4.726614,14.06,-1.92,1.62,10.25
49.787334,4.726614,14.06,-1.19,0.14,10.25
49.787242,4.726472,14.23,-0.29,1.42,11.55
49.787242,4.726472,14.23,-0.41,1.76,10.62
49.787155,4.726334,13.83,0.03,0.86,9.52
49.787075,4.726195,13.53,-0.58,1.1,10.95
49.787075,4.726195,13.53,-1.36,1.28,8.83
49.786999,4.726054,13.16,-1.83,1.39,8.44
49.786999,4.726054,13.16,-1.49,2.28,10.04
49.786926,4.725906,13.38,-0.9,1.02,10.67
49.786926,4.725906,13.38,-2.2,0.39,9.5
49.786865,4.725751,12.89,-1.53,1.33,10.98
49.786865,4.725751,12.89,-1.25,0.92,9.53
49.786808,4.725596,13.04,-1.51,0.98,10.6
49.786808,4.725596,13.04,-2.66,0.77,5.96
49.786752,4.725436,12.97,-2.55,0.93,8.71
49.786752,4.725436,12.97,-2.57,1.71,8.96
49.786693,4.725282,12.97,-1.85,0.99,6.36
49.786693,4.725282,12.97,-1.17,2.06,9.33
49.786638,4.725124,12.91,-1.8,0.54,9.44
49.786638,4.725124,12.91,-1.06,0.68,9.44
49.786583,4.724967,12.81,-1.22,0.92,9.97
49.786583,4.724967,12.81,-2.15,0.7,5.25
49.786522,4.724817,12.56,-1.6,0.74,11.3
49.786522,4.724817,12.56,-0.57,1.58,13.46
49.786462,4.72467,12.3,-0.72,0.25,10.62
49.786462,4.72467,12.3,-1.04,2.14,9.33
49.786404,4.724529,12.28,-1.82,2.23,9.51
49.786404,4.724529,12.28,-2.7,1.19,10.32
49.786348,4.724378,12.61,-1.39,0.5,9.66
49.786348,4.724378,12.61,0.0,1.21,7.32
49.786294,4.724226,12.14,-1.05,0.4,10.04
49.786294,4.724226,12.14,2.57,1.65,8.86
49.786243,4.724085,11.41,0.32,1.72,3.43
49.786243,4.724085,11.41,1.82,3.86,11.17
49.786199,4.72395,10.81,0.71,2.43,8.55
49.786199,4.72395,10.81,-0.42,2.37,10.64
49.786188,4.723797,11.91,-0.53,2.85,9.05
49.786188,4.723797,11.91,-0.86,2.57,10.68
49.786211,4.723623,12.29,-2.04,1.74,9.96
49.786211,4.723623,12.29,-2.23,1.02,8.97
49.786224,4.72345,12.25,-1.19,1.88,10.69
49.786224,4.72345,12.25,-0.97,1.66,8.26
49.786252,4.72328,12.33,-0.33,-0.43,9.75
49.786252,4.72328,12.33,-0.69,1.12,9.74
49.786267,4.723117,11.8,-1.32,0.7,9.47
49.786267,4.723117,11.8,-0.6,1.2,7.75
49.786279,4.722961,11.1,-0.26,0.51,9.74
49.786279,4.722961,11.1,-2.05,0.57,8.83
49.786298,4.722815,10.34,-1.14,-0.36,11.15
49.786316,4.722681,9.36,0.08,0.07,10.23
49.786316,4.722681,9.36,-0.28,-0.61,10.37
49.786331,4.722561,8.33,0.1,-0.3,10.94
49.786331,4.722561,8.33,-1.35,-0.17,10.5
49.786335,4.722449,6.97,-0.51,-1.08,10.42
49.786335,4.722449,6.97,-0.1,0.12,11.2
49.786338,4.722358,5.77,-0.56,0.46,8.97
49.786338,4.722358,5.77,-0.83,1.03,8.67
49.786339,4.722285,5.21,-0.9,-0.77,9.14
49.786339,4.722285,5.21,-0.43,0.27,10.92
49.786344,4.722219,4.09,-0.66,0.97,11.66
49.786344,4.722219,4.09,-0.79,0.71,9.16
49.786349,4.722165,3.8,0.03,0.53,9.66
49.786349,4.722165,3.8,-0.59,1.63,10.66
49.786353,4.722117,3.92,-0.94,2.51,9.65
49.786353,4.722117,3.92,-0.93,2.6,9.93
49.786361,4.722058,5.18,-1.39,1.09,9.66
49.786361,4.722058,5.18,-0.65,2.26,8.71
49.786369,4.721976,5.41,0.28,1.91,10.12
49.786369,4.721976,5.41,0.91,3.2,9.79
49.786378,4.721897,6.0,-0.91,1.84,9.69
49.786378,4.721897,6.0,-1.14,0.32,9.46
49.786406,4.721817,6.26,-0.8,0.85,9.52
49.786406,4.721817,6.26,-2.42,-0.04,9.53
49.78643,4.721741,6.0,-3.14,0.6,9.85
49.78643,4.721741,6.0,-3.73,-0.13,9.19
49.786436,4.721666,5.82,-3.87,-0.3,8.83
49.786436,4.721666,5.82,-4.62,-0.38,10.93
49.786412,4.721586,6.25,-3.81,0.29,10.69
49.786412,4.721586,6.25,-3.71,0.43,8.94
49.786361,4.721518,6.7,-1.13,1.3,9.93
49.786361,4.721518,6.7,-1.24,2.34,10.77
49.786284,4.721506,7.43,0.27,1.41,9.83
49.786284,4.721506,7.43,1.19,1.73,9.7
49.786205,4.721527,7.36,1.58,0.97,9.02
49.786205,4.721527,7.36,2.02,1.84,9.89
49.786133,4.721532,7.16,1.15,2.95,10.49
49.786133,4.721532,7.16,0.5,2.27,10.21
49.786069,4.721505,7.49,-2.16,0.82,7.2
49.786069,4.721505,7.49,-0.98,2.11,10.27
49.786004,4.721451,8.65,-2.18,1.83,9.74
49.785937,4.721381,9.59,-1.5,1.97,10.41
49.785937,4.721381,9.59,-0.86,1.13,10.99
49.785863,4.721307,10.15,0.35,1.06,10.26
49.785863,4.721307,10.15,-1.65,1.77,10.5
49.785786,4.72123,10.31,-0.48,1.18,7.89
49.785786,4.72123,10.31,-0.88,1.14,8.69
49.785706,4.721149,10.83,-0.64,0.86,7.19
49.785706,4.721149,10.83,-1.06,0.61,9.57
49.785626,4.721064,10.91,-2.26,0.91,11.31
49.785626,4.721064,10.91,-1.18,0.9,10.07
49.785545,4.720973,11.15,-0.54,0.91,7.7
49.785545,4.720973,11.15,-0.7,1.1,8.78
49.785467,4.720886,11.4,-1.95,0.83,11.77
49.785467,4.720886,11.4,-0.48,1.02,11.16
49.785379,4.720793,11.7,-0.6,0.67,9.68
49.785379,4.720793,11.7,-1.45,0.55,8.94
49.78529,4.720707,11.95,-0.28,0.59,9.27
49.78529,4.720707,11.95,-1.47,0.92,9.73
49.785198,4.720617,11.99,-0.93,1.5,11.1
49.785198,4.720617,11.99,-0.97,1.03,9.02
49.78511,4.720521,12.02,-1.05,1.1,9.77
49.78511,4.720521,12.02,-1.21,1.55,9.8
49.785021,4.720419,12.2,0.05,0.9,10.41
49.785021,4.720419,12.2,0.27,0.67,10.55
49.784933,4.72031,12.38,-0.43,0.99,11.39
49.784933,4.72031,12.38,0.45,1.02,13.21
49.784843,4.720194,12.3,0.0,1.59,10.4
49.784843,4.720194,12.3,-0.01,2.09,11.04
49.78476,4.720074,12.17,0.58,1.35,10.03
49.78476,4.720074,12.17,-0.8,3.69,10.67
49.784686,4.71995,12.0,-1.03,1.32,9.61
49.784686,4.71995,12.0,-1.04,1.09,10.21
49.784627,4.719808,12.14,-1.07,0.86,10.59
49.784627,4.719808,12.14,-0.44,1.03,10.51
49.784575,4.719654,12.37,-0.48,0.21,10.03
49.784575,4.719654,12.37,-1.48,1.13,7.51
49.784519,4.719503,12.18,-0.62,0.67,9.18
49.784519,4.719503,12.18,-1.74,0.47,10.82
49.784461,4.71936,11.87,-1.12,0.91,9.78
49.784461,4.71936,11.87,-1.09,1.24,9.65
49.784406,4.719219,11.66,-0.63,1.76,9.23
49.784406,4.719219,11.66,-0.85,0.82,11.2
49.784354,4.719079,11.66,-0.17,0.55,10.93
49.784302,4.718938,11.79,-1.36,1.28,10.44
49.784302,4.718938,11.79,-0.41,0.94,6.83
49.78425,4.718787,12.21,0.81,1.66,16.18
49.78425,4.718787,12.21,-0.9,1.37,11.31
49.784198,4.718629,12.51,-1.44,0.68,8.46
49.784198,4.718629,12.51,-0.81,0.95,10.51
49.784146,4.71847,12.82,-0.18,0.65,9.2
49.784146,4.71847,12.82,-1.26,0.93,8.96
49.784096,4.718312,13.14,-2.38,-0.58,10.85
49.784096,4.718312,13.14,-0.84,1.39,10.97
49.784044,4.718149,13.35,-2.35,0.81,10.98
49.784044,4.718149,13.35,-1.22,-0.43,9.57
49.783993,4.717978,13.67,-1.13,0.48,14.79
49.783993,4.717978,13.67,-0.43,0.3,11.15
49.783937,4.717808,13.57,-0.73,0.55,9.69
49.783937,4.717808,13.57,-0.58,-0.53,8.87
49.783877,4.717643,13.42,-0.18,-0.12,9.53
49.783877,4.717643,13.42,0.37,1.57,12.66
49.783819,4.717484,13.12,0.84,1.28,10.39
49.783819,4.717484,13.12,0.36,2.32,9.14
49.783762,4.717323,13.09,-0.53,1.98,13.28
49.783762,4.717323,13.09,0.65,0.68,10.15
49.783718,4.717162,13.29,-0.63,1.6,11.07
49.783718,4.717162,13.29,0.58,1.35,10.62
49.783685,4.716972,13.15,-0.54,-0.71,15.59
49.783685,4.716972,13.15,-2.43,1.47,8.53
49.783654,4.716779,13.03,-1.74,0.23,8.53
49.783654,4.716779,13.03,-1.24,0.79,10.52
49.783631,4.716596,12.9,-1.35,-0.26,8.87
49.783631,4.716596,12.9,-0.7,0.25,9.23
49.783605,4.716418,12.74,-1.1,0.79,11.5
49.783605,4.716418,12.74,-0.2,0.17,8.94
49.783576,4.716247,12.72,-0.34,-1.06,9.2
49.783576,4.716247,12.72,-1.32,0.31,12.74
49.783548,4.716084,12.35,-2.08,-0.58,9.2
49.783548,4.716084,12.35,-0.79,0.16,9.05
49.783516,4.715929,11.73,-1.96,-0.11,6.98
49.783516,4.715929,11.73,-0.35,-0.06,7.91
49.783475,4.715786,11.29,-0.73,-0.12,8.96
49.783475,4.715786,11.29,0.23,-0.52,10.67
49.783435,4.71565,11.1,-3.68,-0.03,7.51
49.783392,4.715514,11.09,-1.46,0.34,10.53
49.783392,4.715514,11.09,-1.91,-1.45,9.77
49.783344,4.715383,11.05,-1.47,0.73,9.95
49.783344,4.715383,11.05,-2.29,0.36,8.08
49.783282,4.715261,10.83,-0.72,0.74,11.81
49.783282,4.715261,10.83,-1.97,0.27,8.53
49.783211,4.715152,10.85,-2.03,0.69,9.93
49.783211,4.715152,10.85,-2.09,-0.11,12.13
49.783134,4.71505,10.93,-2.99,0.28,9.84
49.783134,4.71505,10.93,-2.58,0.59,6.97
49.783045,4.714982,10.89,-2.82,-0.82,9.28
49.783045,4.714982,10.89,-1.4,-0.79,9.09
49.782942,4.714961,10.83,-1.86,-0.36,12.4
49.782942,4.714961,10.83,-3.05,-0.51,6.88
49.782845,4.714977,10.56,-2.7,0.43,8.84
49.782845,4.714977,10.56,-1.46,-0.1,9.31
49.782753,4.715021,10.4,-0.55,1.06,11.4
49.782753,4.715021,10.4,0.12,2.41,10.65
49.782692,4.715109,10.5,-1.49,0.07,9.04
49.782692,4.715109,10.5,-1.76,1.47,8.93
49.782618,4.715196,10.3,-1.22,1.31,11.09
49.782618,4.715196,10.3,0.11,0.71,7.63
49.782545,4.715274,10.39,-0.94,1.9,7.86
49.782545,4.715274,10.39,-0.74,0.74,9.28
49.782475,4.715339,10.09,-1.98,1.05,8.91
49.782475,4.715339,10.09,-0.47,1.06,9.04
49.782393,4.715401,10.05,-0.18,1.53,8.73
49.782393,4.715401,10.05,0.17,1.83,11.09
49.782305,4.715461,9.88,-2.19,1.01,13.25
49.782305,4.715461,9.88,-1.1,0.94,7.98
49.782225,4.715519,9.72,-1.65,0.78,10.64
49.782225,4.715519,9.72,-0.39,0.55,9.79
49.782143,4.715574,9.6,-0.8,0.62,10.0
49.782143,4.715574,9.6,-0.62,0.9,12.05
49.782058,4.715629,9.48,0.91,1.15,9.56
49.782058,4.715629,9.48,-0.51,1.44,9.6
49.781977,4.715673,9.35,0.12,2.48,11.89
49.781977,4.715673,9.35,0.7,1.47,9.69
49.781898,4.715687,9.4,-0.43,1.66,10.89
49.78182,4.71569,8.94,-0.04,1.59,10.0
49.78182,4.71569,8.94,-0.85,1.46,8.13
49.781742,4.715675,9.24,-1.38,1.09,9.56
49.781742,4.715675,9.24,-1.35,1.92,10.44
49.781655,4.715667,9.87,-2.66,0.73,8.31
49.781655,4.715667,9.87,-1.16,1.66,10.5
49.781553,4.715652,9.94,-0.75,1.42,10.58
49.781553,4.715652,9.94,-1.65,0.49,9.75
49.781456,4.715643,9.6,-1.43,0.22,9.85
49.781456,4.715643,9.6,-0.48,1.76,9.88
49.781369,4.715636,9.02,1.01,0.59,15.62
49.781369,4.715636,9.02,-0.62,-0.54,10.86
49.781292,4.715635,7.8,-0.75,0.33,9.02
49.781292,4.715635,7.8,-0.25,-0.13,10.3
49.781228,4.715628,6.76,-0.28,0.12,10.32
49.781228,4.715628,6.76,1.03,-1.6,11.05
49.781176,4.71562,5.12,0.63,-1.35,9.72
49.781176,4.71562,5.12,0.61,-1.45,9.83
49.781147,4.715605,2.6,-0.24,-0.37,9.23
49.781147,4.715605,2.6,-0.68,0.66,10.54
49.781147,4.715605,0.0,-0.78,0.98,8.68
49.781147,4.715605,0.0,-0.99,1.31,9.33
49.781147,4.715605,0.0,-0.56,1.17,9.37
49.781147,4.715605,0.0,-1.19,1.96,9.03
49.781147,4.715605,0.0,-1.18,2.29,9.8
49.781147,4.715605,0.0,-1.3,2.39,9.79
49.781141,4.715576,1.0,-0.74,2.61,10.0
49.781141,4.715576,1.0,-1.15,2.81,9.91
49.781131,4.715561,2.17,-0.47,3.28,10.03
49.781131,4.715561,2.17,-0.81,3.46,9.34
49.781113,4.715529,3.68,0.38,2.78,9.94
49.781113,4.715529,3.68,-0.21,2.99,10.3
49.781086,4.715486,4.69,-0.34,1.78,9.1
49.781086,4.715486,4.69,-0.91,0.61,7.17
49.781059,4.715426,5.18,-1.24,2.14,8.54
49.781059,4.715426,5.18,-1.16,2.12,8.49
49.781032,4.715355,5.03,-1.32,2.56,10.25
49.781032,4.715355,5.03,-2.83,-0.52,6.95
49.781005,4.715288,5.62,-3.09,-1.89,9.09
49.780977,4.715226,5.22,-3.63,0.65,9.68
49.780977,4.715226,5.22,-4.4,-0.78,8.42
49.780938,4.715189,4.62,-3.06,-0.99,10.1
49.780938,4.715189,4.62,-1.97,-0.25,9.29
49.780886,4.715187,5.93,-2.74,0.57,8.57
49.780886,4.715187,5.93,-3.08,0.58,9.98
49.780833,4.715227,6.44,-0.7,0.91,10.77
49.780833,4.715227,6.44,-1.67,-0.18,10.01
49.780786,4.715299,6.69,-0.89,1.18,10.25
49.780786,4.715299,6.69,-1.06,1.13,10.39
49.780744,4.715379,6.82,-0.02,1.92,9.25
49.780744,4.715379,6.82,1.07,1.87,10.01
49.7807,4.715453,6.95,0.69,1.03,9.16
49.7807,4.715453,6.95,1.15,2.37,10.11
49.78064,4.715516,7.71,1.06,1.75,8.97
49.78064,4.715516,7.71,-0.54,1.52,9.85
49.780567,4.715568,8.43,0.35,1.57,10.59
49.780567,4.715568,8.43,0.13,2.01,10.27
49.780487,4.715601,8.92,0.33,2.03,9.43
49.780487,4.715601,8.92,-0.82,0.92,10.27
49.780402,4.715628,9.43,-0.93,2.26,9.67
49.780402,4.715628,9.43,-2.14,1.69,13.6
49.780314,4.715654,9.99,-2.13,-0.33,8.94
49.780314,4.715654,9.99,0.1,0.61,10.17
49.78022,4.715678,10.61,-0.72,0.51,9.94
49.78022,4.715678,10.61,-1.81,0.56,10.25
49.780125,4.715707,10.76,-2.15,0.31,9.66
49.780125,4.715707,10.76,-1.82,-0.06,10.58
49.780028,4.715741,11.03,-1.21,1.06,9.77
49.780028,4.715741,11.03,-1.67,0.32,10.45
49.77993,4.715782,11.14,-0.91,-0.79,8.0
49.77993,4.715782,11.14,-2.55,1.18,9.84
49.779836,4.715836,11.04,-0.76,0.75,9.16
49.779836,4.715836,11.04,-1.04,0.17,10.04
49.779746,4.7159,11.09,0.07,0.69,9.48
49.779746,4.7159,11.09,-0.58,1.27,9.56
49.77966,4.715959,10.92,-0.31,0.22,10.56
49.77966,4.715959,10.92,-1.35,0.43,9.39
49.779569,4.716025,10.91,-0.53,0.0,7.89
49.779569,4.716025,10.91,-0.54,0.81,9.43
49.779482,4.71609,10.8,-0.9,-0.15,8.39
49.779396,4.716151,10.37,0.38,0.94,10.04
49.779396,4.716151,10.37,0.34,0.37,9.65
49.779313,4.716207,9.73,0.39,0.12,9.71
49.779313,4.716207,9.73,-0.21,-0.9,9.33
49.779233,4.716244,8.65,-0.71,0.21,12.44
49.779233,4.716244,8.65,-0.16,-0.3,10.02
49.779159,4.716271,8.02,1.79,0.44,9.65
49.779159,4.716271,8.02,-0.56,-1.54,10.44
49.779091,4.716285,6.92,-0.02,-0.87,10.12
49.779091,4.716285,6.92,-0.63,0.11,13.88
49.779035,4.716295,5.62,-0.5,-0.42,10.09
49.779035,4.716295,5.62,-0.98,0.72,10.32
49.778987,4.716302,5.03,-0.6,1.16,8.61
49.778987,4.716302,5.03,-0.69,0.82,10.36
49.778945,4.716309,4.46,0.15,-0.72,10.28
49.778945,4.716309,4.46,0.3,-0.6,9.88
49.778911,4.716317,2.93,0.01,-0.56,10.15
49.778911,4.716317,2.93,-0.65,0.04,10.44
49.778891,4.716322,1.61,0.11,-0.16,9.96
49.778891,4.716322,1.61,-0.26,-0.26,10.39
49.778891,4.716322,0.0,-0.39,0.41,9.25
49.778891,4.716322,0.0,-0.85,0.92,9.2
49.778891,4.716322,0.0,-0.34,0.57,9.13
49.778891,4.716322,0.0,-0.47,1.13,10.04
49.778891,4.716322,0.0,-1.03,0.45,10.17
49.778891,4.716322,0.0,-0.49,1.36,9.67
49.778891,4.716322,0.0,-0.6,0.93,9.51
49.778891,4.716322,0.0,-1.04,0.76,10.32
49.778891,4.716322,0.0,-0.59,1.08,9.74
49.778891,4.716322,0.0,-0.51,0.95,9.97
49.778891,4.716322,0.0,-1.02,0.95,10.21
49.778891,4.716322,0.0,-0.52,1.28,9.76
49.778891,4.716322,0.0,-0.75,1.13,8.37
49.778891,4.716322,0.0,-0.65,1.52,10.12
49.778891,4.716322,0.0,-0.45,1.34,10.19
49.778891,4.716322,0.0,-1.18,2.19,10.38
49.778891,4.716322,0.0,-0.56,2.6,9.62
49.778891,4.716322,0.0,-1.42,2.98,9.59
49.778884,4.71633,1.32,-1.54,2.99,9.69
49.778884,4.71633,1.32,-1.88,3.51,10.48
49.778862,4.716337,3.7,-1.47,2.48,10.53
49.778821,4.716348,5.24,-0.88,2.72,9.75
49.778821,4.716348,5.24,-3.17,1.99,10.37
49.778766,4.716367,6.62,-0.46,0.69,8.2
49.778766,4.716367,6.62,-0.72,2.16,8.18
49.778705,4.716396,7.0,-3.09,2.03,7.21
49.778705,4.716396,7.0,-1.67,2.28,10.09
49.778641,4.716439,7.77,-1.85,2.4,9.2
49.778641,4.716439,7.77,-2.34,1.84,9.34
49.778572,4.716495,9.29,-3.03,0.72,9.06
49.778572,4.716495,9.29,-1.96,0.72,8.84
49.778502,4.716579,10.01,-1.81,-0.49,7.21
49.778502,4.716579,10.01,-1.9,-0.53,9.4
49.778431,4.716682,10.45,-2.6,0.65,9.64
49.778431,4.716682,10.45,-1.69,1.44,9.18
49.778374,4.716792,10.07,-1.65,1.72,10.28
49.778374,4.716792,10.07,0.27,2.19,9.77
49.778326,4.716914,10.0,-2.75,2.02,9.81
49.778326,4.716914,10.0,-1.06,1.77,8.08
49.778273,4.717041,10.77,0.52,2.6,9.49
49.778273,4.717041,10.77,0.89,2.27,12.4
49.778215,4.717158,10.39,0.72,2.85,12.79
49.778215,4.717158,10.39,0.15,1.62,3.41
49.778146,4.717259,10.62,-0.99,2.6,9.47
49.778146,4.717259,10.62,1.42,1.93,13.21
49.778061,4.717344,11.36,-0.29,2.31,7.05
49.778061,4.717344,11.36,-0.2,3.28,12.45
49.777966,4.717414,11.88,0.9,3.18,7.15
49.777966,4.717414,11.88,1.18,2.59,8.06
49.777861,4.717475,12.06,2.62,2.37,10.05
49.777861,4.717475,12.06,1.75,3.55,8.28
49.777757,4.717521,12.14,-0.87,2.65,9.81
49.777757,4.717521,12.14,-1.77,3.93,11.48
49.777651,4.717541,11.59,-0.12,2.65,7.45
49.777651,4.717541,11.59,1.91,3.23,11.46
49.777545,4.717522,11.87,-0.55,2.76,14.6
49.777545,4.717522,11.87,1.12,2.88,5.44
49.777434,4.717482,12.35,-0.42,2.62,9.4
49.777434,4.717482,12.35,-0.65,2.58,7.51
49.777319,4.717421,12.35,-1.69,2.01,8.21
49.777319,4.717421,12.35,1.22,3.71,6.78
49.777217,4.717339,12.27,0.14,2.12,7.57
49.777124,4.717237,12.64,-2.43,3.83,11.09
49.777124,4.717237,12.64,-0.58,1.45,9.55
49.777034,4.717132,12.71,-0.22,1.02,11.48
49.777034,4.717132,12.71,-1.24,1.22,10.17
49.776944,4.717021,12.7,0.01,1.14,11.12
49.776944,4.717021,12.7,-0.66,0.47,8.14
49.776857,4.716913,11.87,-0.85,1.25,12.6
49.776857,4.716913,11.87,-3.28,0.91,8.6
49.776773,4.716818,10.78,1.36,1.06,13.1
49.776773,4.716818,10.78,0.59,1.46,11.08
49.776691,4.716726,9.97,0.44,1.62,9.32
49.776691,4.716726,9.97,0.3,2.85,8.93
49.776619,4.716637,9.46,0.87,1.97,12.47
49.776619,4.716637,9.46,0.71,3.2,9.79
49.77656,4.716534,9.07,1.36,3.26,7.53
49.77656,4.716534,9.07,1.27,3.33,10.36
49.776525,4.716406,9.75,-1.76,1.82,9.18
49.776525,4.716406,9.75,-0.33,2.01,9.95
49.776511,4.716245,10.29,-1.61,1.05,9.34
49.776511,4.716245,10.29,-1.2,-0.07,10.62
49.776506,4.716088,9.88,-1.67,-0.15,5.53
49.776506,4.716088,9.88,-2.74,0.78,8.57
49.776496,4.715949,8.87,-2.0,0.53,13.15
49.776496,4.715949,8.87,-3.64,0.5,11.66
49.776478,4.715835,8.48,-2.87,0.09,9.53
49.776478,4.715835,8.48,-4.34,0.07,9.98
49.776457,4.715729,8.12,-2.84,1.05,10.72
49.776457,4.715729,8.12,-5.0,0.16,10.07
49.776417,4.715633,8.04,-3.65,2.04,10.82
49.776417,4.715633,8.04,-3.03,2.88,5.9
49.776359,4.715562,8.5,-4.26,0.26,6.61
49.776359,4.715562,8.5,-2.54,2.28,14.73
49.776278,4.715559,9.4,-1.13,2.0,6.56
49.776278,4.715559,9.4,-1.1,1.19,11.35
49.776187,4.715569,9.83,-1.36,1.62,10.39
49.776187,4.715569,9.83,0.79,2.35,11.6
49.776096,4.715579,9.99,-1.7,2.35,16.23
49.776096,4.715579,9.99,-2.75,1.26,4.19
49.775987,4.715591,10.56,-1.58,0.25,9.53
49.775987,4.715591,10.56,-0.06,0.85,9.35
49.775875,4.715596,11.24,-1.7,1.81,3.38
49.77576,4.715602,11.19,-0.83,1.78,8.92
49.77576,4.715602,11.19,-1.42,0.04,8.92
49.775654,4.715607,10.7,-0.99,1.79,8.45
49.775654,4.715607,10.7,-0.2,1.18,12.88
49.775556,4.715618,10.24,0.21,0.57,9.65
49.775556,4.715618,10.24,0.03,0.52,9.14
49.775463,4.715626,9.38,-0.57,-0.74,8.73
49.775463,4.715626,9.38,0.87,0.52,8.68
49.775378,4.715627,8.4,-0.47,0.48,8.95
49.775378,4.715627,8.4,-0.51,0.43,9.57
49.775307,4.715624,6.62,-0.86,0.65,9.39
49.775307,4.715624,6.62,-1.01,0.23,9.24
49.775243,4.715623,6.25,-1.55,0.15,10.06
49.775243,4.715623,6.25,-0.41,0.57,8.02
49.77519,4.715623,4.8,-2.08,0.46,11.0
49.77519,4.715623,4.8,-1.57,0.1,9.82
49.775149,4.715621,3.76,-0.6,0.39,9.3
49.775149,4.715621,3.76,-0.87,0.03,10.12
49.775111,4.715613,3.03,-1.04,0.17,10.37
49.775111,4.715613,3.03,-0.7,-0.23,9.47
49.775077,4.715616,2.46,-0.71,-0.15,10.46
49.775077,4.715616,2.46,-0.74,0.35,9.5
49.775052,4.715615,1.69,-0.73,0.13,9.25
49.775052,4.715615,1.69,-0.73,1.03,10.13
49.775052,4.715615,0.0,-1.03,1.45,9.96
49.775052,4.715615,0.0,-0.45,0.91,9.76
49.775052,4.715615,0.0,-0.97,0.33,10.44
49.775052,4.715615,0.0,-0.95,1.17,9.77
49.775052,4.715615,0.0,-0.99,1.5,10.29
49.775052,4.715615,0.0,-1.28,1.07,10.42
49.775052,4.715615,0.0,-1.58,0.82,10.08
49.775052,4.715615,0.0,-1.36,1.0,9.69
49.775052,4.715615,0.0,-1.42,0.87,9.87
49.775052,4.715615,0.0,-1.29,1.17,9.95
49.775052,4.715615,0.0,-0.97,1.21,9.53
49.775052,4.715615,0.0,-1.03,1.65,10.13
49.775052,4.715615,0.0,-1.44,0.7,10.33
49.775052,4.715615,0.0,-0.95,0.8,9.56
49.775052,4.715615,0.0,-0.98,1.48,10.08
49.775052,4.715615,0.0,-1.17,1.21,10.14
49.775052,4.715615,0.0,-0.96,1.1,9.7
49.775052,4.715615,0.0,-1.14,1.33,9.84
49.775052,4.715615,0.0,-0.8,1.08,9.79
49.775052,4.715615,0.0,-1.16,2.07,9.54
49.775052,4.715615,0.0,-1.36,2.15,9.92
49.775052,4.715615,0.0,-1.64,1.86,9.45
49.775052,4.715615,0.0,-1.34,2.07,10.36
49.775026,4.715609,1.13,-0.71,1.36,10.02
49.775026,4.715609,1.13,-0.29,1.97,10.48
49.775009,4.715606,2.6,0.52,2.65,9.96
49.775009,4.715606,2.6,-1.05,3.46,9.72
49.774988,4.7156,3.32,-0.37,2.48,9.74
49.774988,4.7156,3.32,0.06,2.34,10.32
49.774949,4.715575,5.02,-0.28,2.49,9.74
49.774949,4.715575,5.02,0.81,2.22,9.76
49.774903,4.71553,5.71,0.63,2.09,10.24
49.774903,4.71553,5.71,-0.8,1.25,9.92
49.774864,4.715472,5.58,-0.55,2.89,10.22
49.774864,4.715472,5.58,0.33,3.39,9.6
49.77484,4.715384,6.41,0.14,3.53,10.07
49.77484,4.715384,6.41,0.27,2.32,9.88
49.774825,4.71528,7.59,1.04,2.88,9.7
49.774825,4.71528,7.59,-0.61,3.55,11.06
49.774826,4.71517,7.55,-0.66,2.3,9.59
49.774826,4.71517,7.55,-1.24,1.37,9.99
49.774842,4.71505,8.37,-1.6,0.98,9.12
49.774842,4.71505,8.37,-1.27,0.92,9.66
49.774874,4.714926,8.87,-1.04,0.99,9.73
49.774874,4.714926,8.87,0.83,1.0,9.23
49.774909,4.714813,7.86,0.16,1.06,10.11
49.774909,4.714813,7.86,-0.14,1.22,10.03
49.774931,4.714693,7.58,-0.32,1.28,10.59
49.774931,4.714693,7.58,1.21,1.89,12.12
49.774957,4.714586,7.32,0.36,1.36,9.03
49.774957,4.714586,7.32,0.93,1.79,10.26
49.774985,4.714487,6.84,-0.55,1.55,10.16
49.774985,4.714487,6.84,-1.0,0.5,9.07
49.775012,4.714397,6.39,-0.79,1.18,9.91
49.775012,4.714397,6.39,-1.26,1.88,9.56
49.775035,4.714316,5.64,-0.21,1.56,10.33
49.775035,4.714316,5.64,-0.94,1.48,9.94
49.775055,4.714246,5.04,-0.54,1.38,9.26
49.775073,4.714185,4.39,-0.3,1.49,9.9
49.775073,4.714185,4.39,-0.55,1.15,10.07
49.775088,4.714128,3.83,-0.03,0.88,9.86
49.775088,4.714128,3.83,0.2,1.03,10.16
49.775097,4.714081,3.34,0.22,1.33,10.63
49.775097,4.714081,3.34,0.23,0.75,10.76
49.775109,4.714041,2.56,-0.38,1.33,9.74
49.775109,4.714041,2.56,-0.17,0.77,10.73
49.775118,4.714012,1.98,-0.42,1.09,8.96
49.775118,4.714012,1.98,-0.12,0.46,10.64
49.775121,4.714001,1.22,-0.38,1.35,10.26
49.775121,4.714001,1.22,-0.18,1.26,10.08
49.775121,4.714001,0.0,-0.39,0.97,10.31
49.775121,4.714001,0.0,-0.23,1.43,10.95
49.775121,4.714001,0.0,-0.65,1.31,10.45
49.775121,4.714001,0.0,-0.46,1.16,9.83
49.775121,4.714001,0.0,-0.18,1.44,10.29
49.775121,4.714001,0.0,-0.83,1.47,9.73
49.775121,4.714001,0.0,-0.98,1.62,9.81
49.775121,4.714001,0.0,-0.84,1.26,10.14
49.775121,4.714001,0.0,-0.57,1.67,9.37
49.775121,4.714001,0.0,-1.42,1.79,9.63
49.775121,4.714001,0.0,-1.29,2.15,9.54
49.775121,4.714001,0.0,-0.86,2.92,10.71
49.775121,4.714001,0.0,-1.97,3.56,9.41
49.775121,4.714001,0.0,-1.67,3.43,9.39
49.775136,4.713968,1.35,-1.35,4.45,9.78
49.775136,4.713968,1.35,-0.74,2.34,9.57
49.775136,4.713968,0.0,-1.58,3.19,9.71
49.775136,4.713968,0.0,-1.13,2.08,9.91
49.77515,4.713913,1.98,-0.27,1.42,9.86
49.77515,4.713913,1.98,0.48,-0.06,10.27
49.775161,4.713848,3.46,0.69,0.98,10.37
49.775161,4.713848,3.46,-0.69,1.28,10.07
49.775174,4.713778,3.75,0.76,1.38,10.26
49.775174,4.713778,3.75,-2.24,2.39,9.32
49.775187,4.713703,3.88,-1.54,2.06,9.74
49.775187,4.713703,3.88,-1.79,3.55,8.4
49.775202,4.713631,4.46,-0.57,2.98,9.94
49.775202,4.713631,4.46,-0.6,2.42,10.9
49.775221,4.713544,5.56,-0.3,1.11,9.61
49.775242,4.713442,6.89,-0.53,0.96,11.57
49.775242,4.713442,6.89,-0.33,1.94,7.67
49.775261,4.713331,7.44,-1.72,3.96,10.4
49.775261,4.713331,7.44,-2.01,2.72,11.12
49.775283,4.713215,8.49,-1.08,2.92,9.64
49.775283,4.713215,8.49,0.02,0.68,8.74
49.775311,4.713089,8.87,-0.33,1.15,9.96
49.775311,4.713089,8.87,-0.59,2.43,9.99
49.775345,4.712972,8.8,-0.35,2.12,10.1
49.775345,4.712972,8.8,-1.33,0.11,9.96
49.775378,4.712855,8.29,0.2,1.55,9.99
49.775378,4.712855,8.29,-0.36,1.29,9.96
49.775397,4.712738,7.85,-0.23,0.59,9.57
49.775397,4.712738,7.85,-0.49,0.34,9.11
49.77542,4.712635,7.36,-0.4,-0.38,9.3
49.77542,4.712635,7.36,0.11,-1.17,10.48
49.775442,4.712549,5.67,1.57,-0.12,11.42
49.775442,4.712549,5.67,0.38,-0.82,9.58
49.775455,4.712495,2.96,0.67,0.66,10.44
49.775455,4.712495,2.96,-0.77,1.11,10.4
49.775464,4.712475,1.27,-0.93,1.05,10.09
49.775464,4.712475,1.27,-0.55,1.41,9.52
49.775464,4.712475,0.0,-0.5,2.89,9.64
49.775464,4.712475,0.0,-2.15,2.49,9.3
49.775467,4.712456,1.23,-1.85,2.31,9.24
49.775467,4.712456,1.23,-2.03,3.03,9.97
49.775473,4.712437,1.73,-2.14,2.33,8.82
49.775473,4.712437,1.73,-1.2,2.38,9.78
49.775475,4.712396,2.5,-2.24,1.4,9.75
49.775475,4.712396,2.5,-2.44,1.23,9.79
49.775473,4.712358,1.68,-2.52,1.23,9.04
49.775473,4.712358,1.68,-3.01,1.44,9.73
49.775473,4.712358,0.0,-2.9,1.51,9.68
49.775473,4.712358,0.0,-1.86,2.4,9.14
49.775463,4.712294,1.41,-1.94,3.2,11.2
49.775463,4.712294,1.41,-0.68,1.6,9.3
49.775414,4.712222,4.75,-1.69,1.17,11.81
49.775414,4.712222,4.75,-1.44,2.66,8.44
49.775344,4.71219,6.42,-1.63,2.42,9.37
49.775344,4.71219,6.42,-1.18,3.51,10.79
49.775263,4.712156,7.54,-1.39,2.6,9.63
49.775168,4.712122,8.17,-3.39,4.24,10.58
49.775168,4.712122,8.17,-0.09,2.96,11.24
49.775069,4.712065,9.5,0.94,2.36,6.01
49.775069,4.712065,9.5,1.0,1.24,11.75
49.774978,4.712008,9.35,0.15,1.64,9.11
49.774978,4.712008,9.35,2.41,1.18,11.03
49.774891,4.711936,9.17,-0.57,1.26,10.26
49.774891,4.711936,9.17,-1.24,1.28,10.42
49.774804,4.71187,8.84,0.01,0.85,7.29
49.774804,4.71187,8.84,-0.07,1.27,8.59
49.774721,4.711824,8.84,-1.2,1.02,9.59
49.774721,4.711824,8.84,-0.74,0.47,7.81
49.774641,4.711777,8.66,1.33,1.75,10.81
49.774641,4.711777,8.66,-1.19,1.89,11.27
49.774561,4.711736,8.55,-1.05,2.74,9.56
49.774561,4.711736,8.55,-0.0,1.81,8.37
49.774482,4.711691,8.74,-0.93,3.62,9.43
49.774482,4.711691,8.74,-0.24,1.17,11.02
49.774397,4.711647,9.36,-1.74,1.9,10.38
49.774397,4.711647,9.36,-0.74,1.97,9.07
49.774308,4.711606,9.86,-0.68,2.17,9.92
49.774308,4.711606,9.86,-0.28,2.17,10.1
49.774217,4.711567,10.24,-0.33,2.01,10.38
49.774217,4.711567,10.24,-1.23,0.99,10.09
49.774121,4.711528,10.55,-0.44,2.96,8.6
49.774121,4.711528,10.55,-0.12,1.39,10.99
49.774022,4.71149,10.81,0.12,1.04,9.45
49.774022,4.71149,10.81,1.08,0.23,8.03
49.773923,4.711451,10.97,-0.46,1.55,10.11
49.773923,4.711451,10.97,-0.06,1.64,9.71
49.773828,4.71141,10.75,-0.29,1.46,9.36
49.773828,4.71141,10.75,-0.03,1.65,10.97
49.773732,4.711369,10.68,-1.02,-0.34,10.79
49.773732,4.711369,10.68,-0.14,0.48,11.42
49.773642,4.711324,10.22,-0.92,0.23,7.17
49.773642,4.711324,10.22,0.64,1.32,11.71
49.773556,4.711281,9.91,0.22,0.77,9.74
49.773556,4.711281,9.91,-0.32,0.65,9.53
49.773469,4.711262,9.19,-0.45,1.27,10.84
49.773469,4.711262,9.19,-1.11,0.94,9.82
49.773387,4.711215,8.74,0.27,1.44,9.57
49.773312,4.711174,8.45,-1.24,1.53,9.88
49.773312,4.711174,8.45,0.39,1.56,9.86
49.773242,4.711133,7.83,-1.02,1.03,9.82
49.773242,4.711133,7.83,-0.93,1.65,9.93
49.773177,4.711094,7.52,-0.4,1.13,9.4
49.773177,4.711094,7.52,0.11,2.74,10.48
49.773115,4.71106,7.25,0.41,0.93,10.02
49.773115,4.71106,7.25,-1.17,0.95,10.73
49.773058,4.711026,6.9,-1.33,0.18,9.01
49.773058,4.711026,6.9,0.4,0.19,9.66
49.773003,4.710997,6.49,0.0,1.81,11.45
49.773003,4.710997,6.49,1.3,1.3,9.35
49.772947,4.71097,6.45,0.07,0.97,7.69
49.772947,4.71097,6.45,0.6,0.75,7.92
49.772895,4.710941,5.83,0.46,1.22,10.44
49.772895,4.710941,5.83,0.02,0.8,10.65
49.772848,4.710909,5.09,-0.65,0.93,9.98
49.772848,4.710909,5.09,-1.12,1.3,9.31
49.772805,4.710889,4.59,-0.34,1.51,10.09
49.772805,4.710889,4.59,-0.57,2.08,10.86
49.772764,4.710872,4.87,-1.94,3.89,8.07
49.772764,4.710872,4.87,-1.93,2.86,9.12
49.772716,4.71085,6.02,-0.45,3.67,10.29
49.772716,4.71085,6.02,-0.96,2.83,9.18
49.772654,4.710816,7.97,-1.15,1.75,10.64
49.772654,4.710816,7.97,-0.89,1.18,11.6
49.77258,4.710778,7.94,-1.1,2.88,9.54
49.77258,4.710778,7.94,0.79,2.74,9.38
49.772504,4.710734,8.81,0.11,2.38,10.66
49.772504,4.710734,8.81,-0.42,0.46,10.46
49.772428,4.71069,9.18,0.15,2.03,9.8
49.772428,4.71069,9.18,0.03,-0.36,13.4
49.772351,4.710653,8.89,-1.86,1.64,10.72
49.772351,4.710653,8.89,-0.29,0.62,9.39
49.772276,4.710631,8.64,-1.59,0.3,10.16
49.772276,4.710631,8.64,-0.3,1.88,10.11
49.772199,4.710607,8.57,-1.33,1.18,10.33
49.772199,4.710607,8.57,-0.3,0.99,9.21
49.772121,4.710583,8.53,-0.6,0.52,9.27
49.772121,4.710583,8.53,-2.38,-0.34,9.28
49.772041,4.710552,8.42,0.39,1.34,10.66
49.772041,4.710552,8.42,-1.74,0.03,9.67
49.771963,4.710506,8.21,0.35,1.45,10.88
49.771963,4.710506,8.21,-0.23,0.67,10.2
49.771887,4.710455,7.96,-0.26,0.98,10.36
49.771818,4.710407,7.75,-0.35,0.43,10.86
49.771818,4.710407,7.75,-0.39,-0.18,10.87
49.771755,4.710364,7.36,-0.62,0.62,9.23
49.771755,4.710364,7.36,-0.11,1.45,11.74
49.771691,4.71033,6.91,-0.8,0.23,8.86
49.771691,4.71033,6.91,0.11,0.42,9.76
49.771633,4.710299,6.65,-0.37,0.12,9.58
49.771633,4.710299,6.65,-1.3,0.69,9.62
49.771577,4.710265,6.43,-0.36,0.98,9.64
49.771577,4.710265,6.43,-1.6,-1.24,11.94
49.771524,4.710235,5.99,0.5,1.4,10.44
49.771524,4.710235,5.99,-0.46,1.11,10.45
49.771478,4.710203,5.72,1.51,1.85,11.56
49.771478,4.710203,5.72,1.18,0.41,10.59
49.771436,4.710178,5.03,-1.1,0.6,9.06
49.771436,4.710178,5.03,-0.36,0.89,9.13
49.771396,4.710155,4.4,-0.62,1.85,10.39
49.771396,4.710155,4.4,-0.59,-0.42,10.52
49.771362,4.710134,3.74,0.76,0.87,9.95
49.771362,4.710134,3.74,-0.6,0.31,9.84
49.771334,4.710118,2.68,-0.62,-0.47,9.35
49.771334,4.710118,2.68,-0.25,-0.3,9.38
49.771315,4.710106,1.5,0.03,0.14,10.62
49.771315,4.710106,1.5,0.19,-0.41,10.81
49.771315,4.710106,0.0,-0.72,1.31,10.8
49.771315,4.710106,0.0,-0.5,1.45,9.43
49.771315,4.710106,0.0,-0.46,1.08,9.27
49.771315,4.710106,0.0,-0.73,0.88,10.17
49.771315,4.710106,0.0,-0.37,1.08,9.34
49.771315,4.710106,0.0,-0.51,1.43,9.03
49.771315,4.710106,0.0,-0.4,0.98,8.93
49.771315,4.710106,0.0,-0.81,1.37,9.7
49.771315,4.710106,0.0,-0.4,1.38,9.25
49.771315,4.710106,0.0,-0.57,1.31,9.53
49.771315,4.710106,0.0,-0.59,1.54,10.15
49.771315,4.710106,0.0,-0.46,1.29,10.74
49.771315,4.710106,0.0,-0.64,0.94,10.46
49.771315,4.710106,0.0,-0.23,1.7,9.4
49.771315,4.710106,0.0,-0.69,0.79,10.17
49.771315,4.710106,0.0,-0.83,1.04,9.55
49.771315,4.710106,0.0,-0.54,1.01,9.26
49.771315,4.710106,0.0,-0.45,0.66,10.17
49.771315,4.710106,0.0,-0.46,0.99,10.55
49.771315,4.710106,0.0,-0.67,0.72,8.55
49.771315,4.710106,0.0,-0.66,1.03,10.18
49.771315,4.710106,0.0,-0.94,0.96,9.94
49.771315,4.710106,0.0,-0.78,1.14,9.49
49.771315,4.710106,0.0,-0.82,1.13,10.29
49.771315,4.710106,0.0,-0.67,1.04,9.53
49.771315,4.710106,0.0,-0.7,0.87,9.78
49.771315,4.710106,0.0,-0.74,0.84,10.08
49.771315,4.710106,0.0,-0.46,1.02,9.9
49.771315,4.710106,0.0,-0.59,1.26,10.44
49.771315,4.710106,0.0,-1.0,1.03,9.75
49.771315,4.710106,0.0,-0.38,1.17,10.64
49.771315,4.710106,0.0,-0.66,1.28,8.95
49.771315,4.710106,0.0,-0.54,0.62,10.57
49.771315,4.710106,0.0,-0.0,1.07,10.57
49.771315,4.710106,0.0,-0.41,1.14,9.64
49.771315,4.710106,0.0,-0.34,1.09,9.16
49.771315,4.710106,0.0,-0.68,1.09,10.8
49.771315,4.710106,0.0,-0.91,1.29,10.44
49.771315,4.710106,0.0,-0.51,1.55,9.34
49.771315,4.710106,0.0,-0.65,1.19,10.56
49.771315,4.710106,0.0,-0.58,0.78,10.08
49.771315,4.710106,0.0,-0.85,1.51,9.65
49.771315,4.710106,0.0,-0.9,0.55,9.71
49.771315,4.710106,0.0,-0.56,1.06,11.07
49.771315,4.710106,0.0,-0.32,1.3,10.93
49.771315,4.710106,0.0,-1.01,1.36,9.76
49.771315,4.710106,0.0,-0.9,0.92,9.65
49.771315,4.710106,0.0,-0.37,1.12,8.9
49.771315,4.710106,0.0,-0.45,1.13,11.01
49.771315,4.710106,0.0,-0.83,1.32,10.37
49.771315,4.710106,0.0,-0.61,0.65,10.39
49.771315,4.710106,0.0,-0.92,1.16,8.93
49.771315,4.710106,0.0,-0.69,0.96,10.92
49.771315,4.710106,0.0,-0.59,1.2,9.04
49.771315,4.710106,0.0,-0.63,1.44,9.72
49.771315,4.710106,0.0,-0.32,1.25,8.86
49.771315,4.710106,0.0,-0.62,1.12,9.06
49.771315,4.710106,0.0,-0.66,1.18,9.47
49.771315,4.710106,0.0,-0.99,1.1,10.26
49.771315,4.710106,0.0,-0.7,1.14,10.64
49.771315,4.710106,0.0,-0.59,1.31,10.82
49.771315,4.710106,0.0,-0.41,1.13,10.44
49.771315,4.710106,0.0,-0.84,1.06,9.94
49.771315,4.710106,0.0,-0.79,1.2,9.87
49.771315,4.710106,0.0,-0.46,1.1,10.06
49.771315,4.710106,0.0,-0.56,1.09,10.0
49.771315,4.710106,0.0,-0.79,1.17,9.95
49.771315,4.710106,0.0,-0.86,1.23,10.54
49.771315,4.710106,0.0,-0.72,1.34,9.83
49.771315,4.710106,0.0,-0.7,2.24,9.95
49.771315,4.710106,0.0,-1.34,2.56,10.18
49.771315,4.710106,0.0,-2.18,2.8,8.9
49.771315,4.710106,0.0,-0.82,1.75,9.8
49.771315,4.710106,0.0,-0.87,3.72,10.73
49.771277,4.710077,2.85,-1.33,2.24,9.84
49.771277,4.710077,2.85,-1.06,0.59,9.72
49.771246,4.710048,4.12,-0.9,1.3,8.48
49.771246,4.710048,4.12,-1.41,2.26,8.3
49.771208,4.71001,5.0,-0.92,2.51,10.5
49.771208,4.71001,5.0,-2.87,0.75,10.52
49.771164,4.709984,5.32,-2.61,0.5,9.39
49.771164,4.709984,5.32,-2.97,0.59,11.01
49.771109,4.709971,6.44,-2.97,0.26,10.48
49.771109,4.709971,6.44,-3.63,-0.46,8.65
49.77105,4.710001,6.19,-2.35,0.84,10.56
49.77105,4.710001,6.19,-2.37,1.02,9.84
49.770995,4.710057,6.7,-0.97,0.94,10.57
49.770995,4.710057,6.7,-1.69,0.24,9.84
49.770955,4.710149,7.48,-0.8,0.68,9.98
49.770955,4.710149,7.48,-0.88,0.6,9.77
49.770914,4.71024,7.11,-0.73,1.13,10.07
49.770914,4.71024,7.11,-0.49,0.94,10.19
49.770873,4.710327,7.2,-0.75,0.64,9.31
49.770873,4.710327,7.2,-0.62,0.63,10.74
49.770838,4.710413,7.07,-1.57,0.79,9.55
49.770838,4.710413,7.07,-1.09,1.09,10.69
49.770804,4.710497,7.06,-0.64,0.91,10.27
49.770768,4.71058,6.91,-0.76,0.41,9.59
49.770768,4.71058,6.91,-0.45,0.44,8.93
49.770733,4.710659,6.73,-2.15,0.29,8.76
49.770733,4.710659,6.73,0.38,0.38,9.93
49.770695,4.710732,6.26,-0.15,1.18,10.64
49.770695,4.710732,6.26,0.22,-1.2,10.15
49.770666,4.710792,5.42,0.14,-0.38,9.6
49.770666,4.710792,5.42,-0.49,0.14,10.18
49.770642,4.710839,4.66,-0.92,1.07,10.35
49.770642,4.710839,4.66,-0.77,0.27,9.27
49.770624,4.71088,4.05,0.25,0.03,10.33
49.770624,4.71088,4.05,-0.33,0.04,10.64
49.770608,4.710915,3.15,-0.58,-0.26,9.41
49.770608,4.710915,3.15,-0.38,0.02,9.84
49.770596,4.710942,2.18,-0.54,0.65,9.91
49.770596,4.710942,2.18,-0.67,0.84,9.42
49.770584,4.710969,1.73,-0.92,-0.48,10.88
49.770584,4.710969,1.73,-0.21,0.23,10.55
49.770584,4.710969,0.0,-0.02,-0.17,10.14
49.770584,4.710969,0.0,-1.09,0.37,9.97
49.770584,4.710969,0.0,-1.1,0.82,9.05
49.770584,4.710969,0.0,-0.77,0.58,10.29
49.770584,4.710969,0.0,-0.83,0.82,9.51
49.770584,4.710969,0.0,-0.67,0.89,10.02
49.770584,4.710969,0.0,-0.89,0.71,10.04
49.770584,4.710969,0.0,-0.86,0.72,9.86
49.770584,4.710969,0.0,-0.78,0.63,10.06
49.770584,4.710969,0.0,-0.85,1.23,10.05
49.770584,4.710969,0.0,-0.99,0.93,9.52
49.770584,4.710969,0.0,-0.99,0.81,9.32
49.770584,4.710969,0.0,-0.81,0.79,10.29
49.770584,4.710969,0.0,-1.15,0.75,9.8
49.770584,4.710969,0.0,-0.73,0.8,10.17
49.770584,4.710969,0.0,-0.85,0.68,9.96
49.770584,4.710969,0.0,-0.59,0.81,9.69
49.770584,4.710969,0.0,-1.12,0.76,9.78
49.770584,4.710969,0.0,-0.65,0.85,9.99
49.770584,4.710969,0.0,-0.94,0.98,9.36
49.770584,4.710969,0.0,-1.15,1.03,10.14
49.770584,4.710969,0.0,-1.37,0.93,9.98
49.770584,4.710969,0.0,-1.47,1.55,9.35
49.770584,4.710969,0.0,-1.06,2.73,9.85
49.770584,4.710969,0.0,-1.03,3.28,9.2
49.770558,4.711007,2.36,-0.51,3.18,9.61
49.770558,4.711007,2.36,-0.29,3.36,9.14
49.770522,4.711043,4.62,0.29,3.07,9.34
49.770522,4.711043,4.62,0.16,1.71,9.21
49.770474,4.711073,5.71,0.71,1.31,10.06
49.770474,4.711073,5.71,0.95,2.44,9.33
49.770409,4.711092,6.74,1.15,2.79,9.89
49.770409,4.711092,6.74,0.14,3.45,9.83
49.770337,4.71106,8.73,-0.33,3.33,8.76
49.770337,4.71106,8.73,0.46,3.09,8.83
49.77026,4.710983,10.41,-0.0,2.44,10.33
49.77026,4.710983,10.41,0.39,1.82,10.01
49.770181,4.710878,11.33,-0.8,2.94,10.29
49.770181,4.710878,11.33,-1.39,2.83,9.51
49.770102,4.710744,12.8,-0.35,3.04,8.84
49.770102,4.710744,12.8,0.2,3.66,10.95
49.77002,4.710592,14.56,-0.95,2.76,10.12
49.77002,4.710592,14.56,0.27,1.67,10.77
49.769933,4.710418,15.5,-0.49,0.84,10.04
49.769933,4.710418,15.5,0.69,1.11,11.46
49.769851,4.710235,15.9,1.31,2.75,8.93
49.769851,4.710235,15.9,-0.52,2.39,7.97
49.769768,4.710043,16.84,-2.38,1.98,8.03
49.769768,4.710043,16.84,-0.75,0.63,6.64
49.769678,4.709848,17.69,-0.89,0.39,9.27
49.769678,4.709848,17.69,-1.1,1.33,8.69
49.769588,4.709649,17.69,-1.68,1.11,9.68
49.769588,4.709649,17.69,-1.47,2.2,9.9
49.769492,4.709456,18.12,-1.53,1.6,10.34
49.769492,4.709456,18.12,-0.12,0.84,10.25
49.769384,4.709258,18.37,-1.18,0.84,10.06
49.769384,4.709258,18.37,-3.4,1.01,8.83
49.769273,4.709061,18.23,-1.29,0.0,10.67
49.769273,4.709061,18.23,-2.09,-0.14,9.56
49.769158,4.70887,18.29,-1.24,0.01,9.64
49.769158,4.70887,18.29,-0.57,1.15,7.07
49.769049,4.708683,18.21,-1.09,-0.21,8.22
49.769049,4.708683,18.21,-1.25,-0.27,7.79
49.768931,4.708511,18.06,-0.57,1.83,10.31
49.768931,4.708511,18.06,-2.11,1.02,9.29
49.768814,4.708341,17.98,-1.1,1.28,7.11
49.768814,4.708341,17.98,-1.81,1.84,11.64
49.76869,4.708171,18.16,0.64,1.47,10.3
49.76869,4.708171,18.16,-1.64,0.63,10.42
49.768562,4.70801,18.41,-0.83,-0.03,7.56
49.768429,4.707855,18.65,0.32,1.5,11.64
49.768429,4.707855,18.65,-1.82,1.11,7.8
49.768293,4.707701,18.91,-0.99,0.82,9.42
49.768293,4.707701,18.91,-1.84,0.94,8.19
49.768158,4.707557,19.0,-1.73,0.35,6.14
49.768158,4.707557,19.0,-2.8,0.85,7.27
49.76802,4.707412,19.24,-1.79,1.27,10.09
49.76802,4.707412,19.24,-1.62,0.97,10.07
49.767873,4.707266,19.41,-2.79,-0.77,8.78
49.767873,4.707266,19.41,0.38,1.18,11.8
49.767719,4.707127,19.38,-1.42,0.09,5.83
49.767719,4.707127,19.38,0.07,1.76,11.0
49.767568,4.70699,19.18,-0.57,2.02,10.9
49.767568,4.70699,19.18,-0.75,1.53,9.55
49.767417,4.70686,19.37,-0.71,1.19,7.52
49.767417,4.70686,19.37,-0.76,0.9,10.46
49.76726,4.70674,19.38,-0.49,1.21,10.32
49.76726,4.70674,19.38,-1.43,1.35,9.99
49.767099,4.706625,19.63,-1.43,1.39,9.78
49.767099,4.706625,19.63,-0.96,0.79,8.36
49.766934,4.70651,19.9,-1.12,0.71,10.35
49.766934,4.70651,19.9,0.06,1.91,11.51
49.766769,4.706393,20.03,-0.5,1.05,10.32
49.766769,4.706393,20.03,-1.16,0.84,9.15
49.766606,4.706275,20.05,-0.29,1.24,11.8
49.766606,4.706275,20.05,-0.63,0.99,10.14
49.766444,4.706156,19.91,-1.41,1.13,9.79
49.766444,4.706156,19.91,-1.09,0.81,8.87
49.766282,4.706038,19.97,0.4,1.26,11.84
49.766282,4.706038,19.97,-0.95,1.3,9.01
49.76612,4.705919,20.08,-0.99,1.29,10.55
49.76612,4.705919,20.08,-0.71,1.5,10.42
49.765956,4.705797,20.42,-0.65,0.79,5.29
49.765956,4.705797,20.42,0.34,1.01,10.0
49.765791,4.705673,20.81,-0.92,1.7,10.94
49.765791,4.705673,20.81,-1.11,2.02,10.3
49.765623,4.705547,21.03,-1.12,0.42,10.33
49.765623,4.705547,21.03,-0.92,0.84,7.43
49.765453,4.70542,20.74,-1.23,0.95,8.97
49.765453,4.70542,20.74,0.03,1.16,9.09
49.765284,4.705299,20.59,-1.91,0.42,9.38
49.765284,4.705299,20.59,-1.25,0.84,11.84
49.765115,4.70518,20.55,-0.64,0.9,9.9
49.765115,4.70518,20.55,-0.87,1.69,9.41
49.764949,4.705058,20.54,-0.78,0.82,9.12
49.764782,4.704936,20.51,-0.75,1.11,8.67
49.764782,4.704936,20.51,0.29,1.45,11.42
49.764615,4.704813,20.48,-0.55,1.24,11.59
49.764615,4.704813,20.48,-0.99,0.22,8.94
49.764451,4.704688,20.1,-0.47,1.01,10.69
49.764451,4.704688,20.1,-0.05,1.71,8.12
49.764288,4.704568,19.93,-1.22,1.53,10.08
49.764288,4.704568,19.93,-0.59,2.13,11.34
49.764123,4.704443,20.07,-0.54,2.38,10.94
49.764123,4.704443,20.07,-1.79,1.52,8.77
49.763959,4.704321,20.41,-0.14,1.34,8.56
49.763959,4.704321,20.41,-0.56,1.09,11.71
49.763791,4.704204,20.11,0.37,1.25,8.59
49.763791,4.704204,20.11,-1.09,1.22,10.05
49.763627,4.70409,19.87,-0.52,1.33,9.96
49.763627,4.70409,19.87,-0.79,0.96,9.14
49.763465,4.703975,19.7,-0.92,1.02,8.44
49.763465,4.703975,19.7,-0.65,1.3,12.46
49.763309,4.703858,19.47,-0.19,1.58,9.72
49.763309,4.703858,19.47,0.14,1.76,12.19
49.763156,4.703746,19.18,-2.07,1.22,9.87
49.763156,4.703746,19.18,-1.36,0.85,10.03
49.763,4.703631,19.18,-0.59,1.08,10.51
49.763,4.703631,19.18,-0.71,1.38,10.0
49.762844,4.703517,19.41,1.03,1.87,8.65
49.762844,4.703517,19.41,-2.18,1.51,9.19
49.762688,4.703403,19.23,-0.48,1.69,9.96
49.762688,4.703403,19.23,0.74,1.58,9.5
49.762527,4.703289,19.82,-0.63,1.64,8.7
49.762527,4.703289,19.82,-0.69,1.8,10.54
49.762361,4.703178,20.08,-0.64,1.24,10.52
49.762361,4.703178,20.08,-1.44,1.36,10.5
49.762193,4.703065,20.36,-1.32,1.39,10.98
49.762193,4.703065,20.36,-1.66,0.68,13.12
49.76202,4.702964,20.13,-0.99,0.13,9.61
49.76202,4.702964,20.13,-1.64,1.11,11.43
49.761846,4.702877,20.07,-1.73,1.05,9.31
49.761846,4.702877,20.07,-1.81,1.03,10.11
49.761684,4.702793,19.99,-1.76,0.8,10.82
49.761684,4.702793,19.99,-1.48,0.38,9.96
49.761516,4.702718,19.78,-0.84,0.57,8.95
49.761516,4.702718,19.78,-1.96,0.85,9.46
49.761347,4.702663,19.29,-0.34,1.27,11.08
49.761169,4.702634,19.14,-0.7,1.55,10.97
49.761169,4.702634,19.14,-1.3,1.2,8.01
49.761,4.702615,18.95,-1.28,1.16,10.97
49.761,4.702615,18.95,-0.29,0.78,8.81
49.76083,4.702598,18.57,-0.57,2.01,11.31
49.76083,4.702598,18.57,-2.07,0.57,10.34
49.76066,4.702584,18.55,-1.3,1.67,9.85
49.76066,4.702584,18.55,-1.81,1.04,8.79
49.760497,4.70258,18.38,-0.36,1.24,7.94
49.760497,4.70258,18.38,-0.05,2.03,9.55
49.760337,4.702584,18.06,-0.55,1.6,10.88
49.760337,4.702584,18.06,-1.33,1.5,9.85
49.760182,4.702585,18.11,-0.98,1.63,11.26
49.760182,4.702585,18.11,-2.38,1.28,9.46
49.760025,4.702584,18.11,-0.91,1.69,10.07
49.760025,4.702584,18.11,-1.23,1.63,11.33
49.759863,4.702588,18.23,-1.84,1.79,9.88
49.759863,4.702588,18.23,-0.79,1.36,9.05
49.759701,4.702592,18.36,-0.91,1.81,7.89
49.759701,4.702592,18.36,-2.12,2.07,9.17
49.759532,4.702594,18.57,-0.14,1.74,11.01
49.759532,4.702594,18.57,-1.92,1.27,10.73
49.759364,4.702598,18.78,-1.32,2.03,10.29
49.759364,4.702598,18.78,-2.28,1.52,11.73
49.759192,4.702603,19.16,-0.83,2.01,11.32
49.759192,4.702603,19.16,-1.72,1.58,8.67
49.759019,4.70261,19.4,-0.82,2.12,9.33
49.759019,4.70261,19.4,-0.51,1.22,11.18
49.758843,4.702613,19.56,-0.22,1.59,9.8
49.758843,4.702613,19.56,-1.42,1.63,7.58
49.758664,4.702614,19.72,-2.08,1.07,9.15
49.758664,4.702614,19.72,-1.74,0.5,9.09
49.758487,4.70262,19.79,-1.23,0.31,10.29
49.758487,4.70262,19.79,-0.57,1.44,10.55
49.758309,4.702624,19.46,-0.84,1.0,8.15
49.758309,4.702624,19.46,-0.79,1.34,10.62
49.758136,4.702632,19.16,-1.43,1.3,9.77
49.758136,4.702632,19.16,-0.79,1.83,10.0
49.757965,4.70264,19.14,-0.45,1.49,10.9
49.75779,4.702651,19.31,-2.57,1.41,8.71
49.75779,4.702651,19.31,-1.25,0.98,8.34
49.757614,4.702656,19.58,-1.21,1.6,10.92
49.757614,4.702656,19.58,-0.78,1.56,10.12
49.757436,4.702662,19.79,-1.29,1.67,8.7
49.757436,4.702662,19.79,-1.18,1.64,10.39
49.757254,4.702665,19.94,-1.52,0.82,9.13
49.757254,4.702665,19.94,-1.88,1.29,9.61
49.757073,4.702669,20.05,-0.9,1.47,10.96
49.757073,4.702669,20.05,-1.0,0.73,9.12
49.756892,4.702674,20.12,-0.58,1.56,11.62
49.756892,4.702674,20.12,-2.31,0.91,9.6
49.756709,4.702679,20.2,-2.93,1.29,9.86
49.756709,4.702679,20.2,-1.81,1.73,10.08
49.756533,4.702689,20.29,-1.19,1.41,10.92
49.756533,4.702689,20.29,-2.03,1.36,8.98
49.756353,4.702699,20.28,-0.92,1.45,8.43
49.756353,4.702699,20.28,-0.1,1.78,9.17
49.756172,4.702706,20.24,-0.0,1.41,9.8
49.756172,4.702706,20.24,-1.34,1.27,9.44
49.755988,4.70271,20.25,-1.16,1.36,10.07
49.755988,4.70271,20.25,-1.64,1.24,10.58
49.755806,4.702713,20.19,-0.86,1.74,9.17
49.755806,4.702713,20.19,-0.67,1.98,9.18
49.755625,4.702717,20.23,-3.09,1.17,10.12
49.755625,4.702717,20.23,-0.93,0.94,9.5
49.755442,4.70272,20.26,-0.44,0.38,10.53
49.755442,4.70272,20.26,-0.77,0.4,11.08
49.755262,4.702726,20.03,-1.12,0.6,11.0
49.755262,4.702726,20.03,-0.53,1.59,8.94
49.755085,4.702731,19.6,-0.96,0.96,9.23
49.755085,4.702731,19.6,-1.7,1.3,8.66
49.754907,4.702734,19.43,-1.52,1.05,8.78
49.754907,4.702734,19.43,-1.22,1.81,10.68
49.754733,4.702731,19.42,-0.15,1.18,10.98
49.754733,4.702731,19.42,-1.8,0.91,8.54
49.754557,4.702732,19.52,-2.36,1.41,9.4
49.754557,4.702732,19.52,-0.34,1.19,9.54
49.754379,4.702733,19.8,-1.37,1.0,10.83
49.754379,4.702733,19.8,-0.9,1.05,11.28
49.7542,4.702735,19.83,0.07,0.97,8.45
49.7542,4.702735,19.83,-2.55,1.24,9.7
49.754024,4.702738,19.85,-1.43,1.55,10.22
49.753838,4.702744,19.96,-0.87,1.76,10.88
49.753838,4.702744,19.96,-1.3,0.51,8.87
