Location-lat,Location-long,Speed,Accelerometer-X,Accelerometer-Y,Accelerometer-Z
50.320578,2.875486,33.59,0.55,1.89,10.11
50.320578,2.875486,33.59,-1.14,1.81,11.2
50.320528,2.875952,33.72,-0.02,0.34,8.72
50.320477,2.876418,33.83,0.51,0.91,9.1
50.320477,2.876418,33.83,0.56,1.48,7.85
50.320426,2.876884,33.94,-0.85,0.89,10.13
50.320426,2.876884,33.94,-0.08,1.74,10.4
50.320376,2.877355,34.05,0.46,1.49,10.0
50.320376,2.877355,34.05,-0.87,0.89,8.28
50.32032,2.877826,34.06,-0.01,1.06,11.41
50.32032,2.877826,34.06,0.12,0.96,10.13
50.320262,2.878297,34.17,-0.41,0.71,10.26
50.320262,2.878297,34.17,-0.91,1.67,9.94
50.320203,2.87877,34.23,1.26,1.92,10.44
50.320203,2.87877,34.23,-0.54,0.49,8.12
50.320141,2.879245,34.28,-1.27,1.98,11.29
50.320141,2.879245,34.28,-0.79,1.46,9.85
50.320079,2.879718,34.19,2.02,0.67,10.16
50.320079,2.879718,34.19,-0.53,0.15,9.48
50.320015,2.880189,34.26,-0.53,2.08,10.73
50.320015,2.880189,34.26,1.23,1.07,10.11
50.319946,2.88066,34.24,0.35,0.81,11.05
50.319946,2.88066,34.24,-1.59,0.82,10.64
50.319881,2.881131,34.26,-0.35,1.48,10.77
50.319881,2.881131,34.26,0.85,1.83,11.03
50.319814,2.8816,34.25,0.04,0.51,8.24
50.319814,2.8816,34.25,-0.87,2.39,12.37
50.319741,2.882066,34.13,1.08,0.34,10.19
50.319741,2.882066,34.13,0.74,1.02,10.85
50.319668,2.882528,33.99,0.34,0.84,8.03
50.319668,2.882528,33.99,1.49,0.75,10.24
50.319593,2.882987,33.86,-0.32,1.03,9.91
50.319593,2.882987,33.86,-0.68,2.14,8.49
50.319515,2.883448,33.76,-0.99,1.2,9.2
50.319515,2.883448,33.76,0.05,2.65,9.08
50.319436,2.883901,33.59,0.19,0.91,10.59
50.319436,2.883901,33.59,-1.4,2.3,11.21
50.319349,2.884353,33.56,1.58,1.24,9.16
50.319349,2.884353,33.56,-0.46,1.66,8.76
50.319264,2.884811,33.51,-0.51,0.87,8.83
50.319264,2.884811,33.51,0.4,2.93,11.41
50.319178,2.885253,33.44,0.69,0.64,9.74
50.31909,2.885697,33.39,0.04,2.26,10.86
50.31909,2.885697,33.39,0.02,1.04,9.39
50.318998,2.886144,33.32,-0.69,2.64,9.24
50.318998,2.886144,33.32,-0.45,1.57,9.17
50.318899,2.886589,33.27,1.43,1.03,10.17
50.318899,2.886589,33.27,-0.35,3.04,11.45
50.318804,2.887023,33.27,-0.64,1.12,9.05
50.318804,2.887023,33.27,-1.08,2.48,9.33
50.318705,2.887456,33.31,0.81,1.17,10.92
50.318705,2.887456,33.31,-0.73,1.74,11.99
50.318603,2.887895,33.32,-0.99,0.96,8.07
50.318603,2.887895,33.32,0.92,1.46,9.26
50.318502,2.888333,33.77,-1.16,2.82,11.22
50.318502,2.888333,33.77,-0.03,1.25,9.33
50.318398,2.888777,33.32,-1.24,1.5,10.41
50.318398,2.888777,33.32,-0.8,0.73,8.01
50.31829,2.889214,33.33,-0.6,2.52,10.64
50.31829,2.889214,33.33,-0.69,1.4,9.41
50.318181,2.889656,33.22,1.19,0.87,10.06
50.318181,2.889656,33.22,-0.56,1.85,9.77
50.318068,2.890092,33.18,1.28,1.41,9.97
50.318068,2.890092,33.18,-0.4,1.68,11.77
50.317953,2.890524,33.11,0.5,0.92,9.1
50.317953,2.890524,33.11,0.96,1.6,10.61
50.317835,2.890953,33.1,0.98,1.04,9.9
50.317835,2.890953,33.1,1.03,1.05,8.66
50.317713,2.891376,33.07,-0.51,1.81,11.05
50.317713,2.891376,33.07,0.03,0.83,8.95
50.317582,2.891803,33.07,0.28,1.04,10.26
50.317582,2.891803,33.07,-1.61,2.11,10.07
50.317453,2.892224,33.09,0.41,1.34,9.74
50.317453,2.892224,33.09,0.37,1.07,10.86
50.317323,2.892647,33.03,-1.79,2.13,9.19
50.317323,2.892647,33.03,-0.92,1.58,8.68
50.317194,2.893064,33.02,-0.46,1.03,9.65
50.317194,2.893064,33.02,-1.86,2.38,9.22
50.317074,2.893463,33.02,1.04,0.95,9.04
50.317074,2.893463,33.02,0.17,1.7,10.97
50.316947,2.893871,32.98,-0.53,2.4,9.71
50.316947,2.893871,32.98,0.02,1.46,9.64
50.316818,2.894279,32.95,0.28,1.32,10.05
50.316679,2.894692,32.97,-0.91,2.58,9.83
50.316679,2.894692,32.97,0.14,0.87,9.39
50.316539,2.895103,32.97,-0.32,1.27,10.98
50.316539,2.895103,32.97,-1.17,2.51,10.11
50.3164,2.895512,32.95,0.55,1.42,9.83
50.3164,2.895512,32.95,-0.14,1.93,11.15
50.316258,2.895916,32.91,0.26,1.39,10.1
50.316258,2.895916,32.91,-0.73,1.16,9.05
50.316111,2.896314,32.87,1.16,0.72,11.05
50.316111,2.896314,32.87,0.28,1.25,11.69
50.31596,2.896712,32.81,-1.07,2.87,9.01
50.31596,2.896712,32.81,-0.54,1.21,10.34
50.315809,2.897109,32.77,0.19,1.26,10.74
50.315809,2.897109,32.77,-0.87,2.07,10.54
50.315658,2.897503,32.75,-0.14,0.87,8.91
50.315658,2.897503,32.75,-0.84,1.39,8.35
50.315509,2.897901,32.75,1.38,1.15,10.99
50.315509,2.897901,32.75,-0.11,1.65,10.52
50.315354,2.898296,32.76,-1.02,1.72,9.51
50.315354,2.898296,32.76,0.36,1.52,8.9
50.3152,2.898692,32.87,1.08,0.97,8.36
50.3152,2.898692,32.87,-0.37,2.84,9.96
50.315047,2.899086,32.94,-0.71,1.42,10.49
50.315047,2.899086,32.94,-1.68,1.5,10.27
50.314891,2.89948,33.06,-0.57,2.08,10.4
50.314891,2.89948,33.06,0.98,1.36,8.44
50.314727,2.899869,33.11,-0.83,2.85,10.26
50.314727,2.899869,33.11,0.39,1.81,9.74
50.314565,2.90026,33.21,-0.05,1.26,8.35
50.314565,2.90026,33.21,0.57,1.39,11.86
50.314396,2.900647,33.46,-1.88,1.49,11.33
50.314396,2.900647,33.46,0.17,1.7,9.63
50.314229,2.901037,33.61,-0.35,1.33,10.22
50.314229,2.901037,33.61,-1.13,1.05,9.86
50.314062,2.901429,33.78,-0.41,1.63,11.16
50.314062,2.901429,33.78,0.44,0.94,9.51
50.313891,2.901823,33.92,-0.14,0.79,10.54
50.313891,2.901823,33.92,-0.01,1.26,10.88
50.313715,2.902215,34.11,-0.51,1.31,9.45
50.313715,2.902215,34.11,-0.71,1.02,9.28
50.31354,2.902611,34.29,-0.49,1.81,10.24
50.31354,2.902611,34.29,2.32,1.58,10.36
50.313364,2.903004,34.36,1.33,1.38,9.57
50.313185,2.9034,34.49,-0.15,2.56,10.17
50.313185,2.9034,34.49,-1.2,2.59,8.63
50.312998,2.903787,34.71,-0.98,2.31,9.8
50.312998,2.903787,34.71,1.37,1.48,9.73
50.312814,2.904169,34.67,0.54,0.48,9.61
50.312814,2.904169,34.67,-0.17,-0.14,9.42
50.312628,2.904558,34.13,-0.77,0.81,9.43
50.312628,2.904558,34.13,1.02,0.52,10.01
50.312443,2.904941,33.76,1.01,1.09,10.82
50.312443,2.904941,33.76,1.2,1.51,10.81
50.312257,2.905315,33.7,0.76,0.8,9.36
50.312257,2.905315,33.7,-0.04,2.61,9.92
50.312065,2.90569,33.76,0.59,1.09,11.48
50.312065,2.90569,33.76,-1.12,2.97,8.97
50.311875,2.906055,33.94,-0.06,1.24,11.79
50.311875,2.906055,33.94,1.07,1.4,9.98
50.311685,2.906414,33.96,-1.36,2.76,10.97
50.311685,2.906414,33.96,1.46,1.21,9.82
50.311489,2.906786,34.04,-0.64,2.67,9.55
50.311489,2.906786,34.04,-0.01,1.14,10.59
50.311285,2.90715,34.02,-0.01,0.87,10.64
50.311285,2.90715,34.02,-0.56,0.64,8.77
50.31108,2.907511,33.92,-0.45,1.64,8.76
50.31108,2.907511,33.92,-0.46,1.37,9.29
50.310878,2.907877,34.1,0.36,0.09,11.04
50.310878,2.907877,34.1,-0.8,1.45,11.17
50.310675,2.908236,34.1,1.68,1.07,9.92
50.310675,2.908236,34.1,-0.48,0.97,9.28
50.310471,2.90859,34.18,-1.11,1.67,9.52
50.310471,2.90859,34.18,1.15,0.78,10.19
50.310266,2.908938,34.16,0.07,1.63,10.88
50.310266,2.908938,34.16,0.42,1.87,9.91
50.310058,2.909277,33.45,-0.08,1.1,9.0
50.310058,2.909277,33.45,0.1,1.48,11.31
50.309846,2.9096,33.3,0.82,0.9,10.24
50.309846,2.9096,33.3,-0.02,1.76,9.8
50.30963,2.909915,33.34,0.23,2.5,9.52
50.30963,2.909915,33.34,1.69,0.51,10.54
50.309412,2.910233,33.35,-0.9,1.17,10.43
50.309412,2.910233,33.35,-0.7,1.34,9.62
50.309193,2.910547,33.38,0.91,2.4,10.95
50.308964,2.910852,33.47,1.07,0.73,9.39
50.308964,2.910852,33.47,-1.1,1.54,11.45
50.30874,2.911156,33.43,0.61,1.5,8.39
50.30874,2.911156,33.43,1.72,1.9,11.16
50.308507,2.911452,33.44,0.83,1.34,9.17
50.308507,2.911452,33.44,0.61,1.3,11.07
50.308269,2.911746,33.46,0.88,1.09,10.3
50.308269,2.911746,33.46,-1.19,1.64,10.88
50.308032,2.912036,33.39,-1.15,2.64,10.76
50.308032,2.912036,33.39,0.51,1.13,10.41
50.307795,2.912325,33.42,-0.17,0.95,9.82
50.307795,2.912325,33.42,-0.43,0.53,9.16
50.307556,2.912614,33.36,-0.1,2.86,8.66
50.307556,2.912614,33.36,-1.08,1.46,9.07
50.307321,2.912901,33.4,-0.12,1.94,10.24
50.307321,2.912901,33.4,-0.93,0.92,9.45
50.30708,2.913189,33.41,-0.54,2.87,8.54
50.30708,2.913189,33.41,1.02,0.97,10.02
50.306842,2.913481,33.45,0.37,1.0,10.15
50.306842,2.913481,33.45,-0.55,0.55,8.71
50.306601,2.91377,33.5,-0.8,2.09,9.84
50.306601,2.91377,33.5,0.45,0.78,11.83
50.306362,2.914058,33.58,-0.19,2.93,9.41
50.306362,2.914058,33.58,0.3,1.15,9.98
50.306119,2.914344,33.66,-0.53,0.98,9.52
50.306119,2.914344,33.66,1.23,0.81,10.1
50.305878,2.914633,33.65,0.11,1.28,10.94
50.305878,2.914633,33.65,0.05,0.79,10.98
50.305642,2.914916,33.14,-0.42,2.39,9.59
50.305642,2.914916,33.14,-1.46,1.12,8.19
50.305407,2.915202,33.26,-0.58,2.08,9.37
50.305407,2.915202,33.26,-0.87,1.25,9.43
50.305167,2.915487,33.47,-0.44,1.09,10.79
50.305167,2.915487,33.47,-2.12,0.67,9.09
50.304927,2.915774,33.67,-1.44,2.84,7.55
50.304927,2.915774,33.67,-0.1,0.56,9.34
50.304694,2.916066,33.78,-0.53,2.41,9.48
50.304694,2.916066,33.78,-0.35,0.72,9.12
50.304464,2.916367,33.9,0.08,1.13,8.72
50.304464,2.916367,33.9,-0.38,1.78,9.42
50.30423,2.916665,34.08,0.03,-0.11,9.77
50.303994,2.916978,33.82,-0.79,1.77,9.01
50.303994,2.916978,33.82,0.5,0.57,10.51
50.303763,2.917285,33.6,-1.27,1.16,8.72
50.303763,2.917285,33.6,-1.2,0.83,9.5
50.303538,2.917598,33.29,-1.07,2.09,8.11
50.303538,2.917598,33.29,0.18,1.18,9.35
50.303309,2.917916,33.52,-1.02,0.88,10.88
50.303309,2.917916,33.52,-0.79,1.15,10.52
50.303084,2.918238,33.54,0.23,1.36,9.25
50.303084,2.918238,33.54,-1.62,0.84,9.86
50.30286,2.918569,33.78,-0.43,2.7,7.28
50.30286,2.918569,33.78,-1.47,0.85,8.24
50.302636,2.918914,34.13,-0.1,1.24,10.1
50.302636,2.918914,34.13,-1.2,2.2,9.44
50.302421,2.919264,34.41,1.11,1.46,11.55
50.302421,2.919264,34.41,0.7,2.02,10.47
50.302211,2.91962,34.61,-0.13,0.19,9.96
50.302211,2.91962,34.61,-1.12,0.68,8.73
50.30201,2.919986,34.7,0.2,1.87,9.97
50.30201,2.919986,34.7,-1.84,1.51,8.2
50.301804,2.920359,34.7,-1.03,2.39,7.97
50.301804,2.920359,34.7,-0.21,1.44,11.07
50.301601,2.920729,34.84,-1.09,1.14,11.96
50.301601,2.920729,34.84,-0.14,1.32,10.05
50.301399,2.921106,34.98,-0.51,0.57,10.94
50.301399,2.921106,34.98,0.74,0.36,10.81
50.301207,2.921474,34.77,0.33,0.26,11.06
50.301207,2.921474,34.77,-1.05,1.08,9.33
50.301023,2.921855,34.32,0.41,1.13,11.42
50.301023,2.921855,34.32,0.01,1.71,11.29
50.300845,2.922251,33.93,-1.02,1.35,9.72
50.300845,2.922251,33.93,0.44,1.7,11.25
50.300678,2.92265,34.01,0.11,0.8,9.13
50.300678,2.92265,34.01,-1.35,0.79,9.11
50.300514,2.923059,34.23,-0.72,1.81,8.99
50.300514,2.923059,34.23,0.51,1.06,11.88
50.300349,2.923459,34.31,0.32,1.24,9.73
50.300349,2.923459,34.31,-1.39,1.02,8.64
50.300182,2.923852,34.48,-1.7,2.39,10.66
50.300182,2.923852,34.48,-1.83,1.35,10.8
50.300023,2.924257,34.55,-0.74,1.66,10.23
50.299867,2.924674,34.57,-1.9,0.78,8.86
50.299867,2.924674,34.57,-2.25,0.93,9.08
50.299714,2.925093,34.55,-0.91,0.79,8.78
50.299714,2.925093,34.55,0.33,1.11,12.11
50.299568,2.925519,34.47,-0.2,1.54,10.6
50.299568,2.925519,34.47,-0.65,0.94,9.59
50.29943,2.925943,34.38,0.4,2.47,9.89
50.29943,2.925943,34.38,0.61,2.4,10.41
50.299287,2.926363,34.09,0.39,0.37,10.79
50.299287,2.926363,34.09,-0.59,2.14,10.09
50.299144,2.926784,33.59,-0.67,1.23,10.69
50.299144,2.926784,33.59,0.07,2.15,8.63
50.299001,2.927197,33.46,-0.39,1.55,9.04
50.299001,2.927197,33.46,-0.37,1.25,11.02
50.298861,2.927633,33.45,-2.16,1.7,10.43
50.298861,2.927633,33.45,0.16,2.04,10.36
50.298733,2.928064,33.56,-1.99,2.01,11.11
50.298733,2.928064,33.56,-1.31,1.18,8.23
50.2986,2.928499,33.63,-1.13,0.31,7.89
50.2986,2.928499,33.63,-1.09,0.93,8.73
50.298479,2.92894,33.61,-0.67,2.18,9.96
50.298479,2.92894,33.61,-0.32,1.12,7.82
50.298365,2.929363,33.61,-1.16,2.66,7.87
50.298365,2.929363,33.61,0.74,0.71,10.12
50.298241,2.929794,33.62,-0.4,1.62,9.42
50.298241,2.929794,33.62,-0.81,0.8,8.72
50.298119,2.930223,33.6,-1.85,2.12,10.06
50.298119,2.930223,33.6,-0.3,1.01,10.76
50.297997,2.93064,33.53,0.18,2.94,10.51
50.297997,2.93064,33.53,0.46,0.91,11.16
50.297869,2.931069,33.64,-0.96,1.13,10.32
50.297869,2.931069,33.64,1.28,1.41,10.79
50.297742,2.931498,33.6,-0.71,1.35,10.61
50.297742,2.931498,33.6,-1.58,1.47,9.73
50.297612,2.931926,33.56,0.76,1.57,9.14
50.297612,2.931926,33.56,0.48,1.55,11.07
50.29748,2.93235,33.53,-0.39,0.45,8.52
50.29748,2.93235,33.53,-0.34,1.42,9.6
50.29735,2.93277,33.38,0.28,1.98,10.6
50.29735,2.93277,33.38,-1.19,1.46,10.07
50.297217,2.933187,33.35,-0.23,1.5,8.75
50.297217,2.933187,33.35,0.48,0.75,9.43
50.297085,2.933608,33.37,0.26,2.52,9.64
50.296943,2.93402,33.23,-0.47,1.04,9.35
50.296943,2.93402,33.23,-1.12,2.23,9.54
50.296797,2.934427,33.26,0.17,1.33,8.42
50.296797,2.934427,33.26,0.53,0.98,10.27
50.29665,2.934826,33.36,0.55,2.4,9.67
50.29665,2.934826,33.36,1.69,1.44,9.19
50.296482,2.935224,33.29,-1.86,1.81,9.18
50.296482,2.935224,33.29,-0.18,1.32,9.04
50.296323,2.935626,33.31,-0.72,3.01,9.46
50.296323,2.935626,33.31,0.49,1.45,9.98
50.296159,2.936026,33.32,1.67,0.87,11.48
50.296159,2.936026,33.32,0.25,0.89,10.19
50.295992,2.936415,33.34,-0.05,1.39,9.23
50.295992,2.936415,33.34,-0.35,2.44,9.32
50.295817,2.936799,33.32,0.68,1.64,9.38
50.295817,2.936799,33.32,-0.69,1.26,10.69
50.29564,2.937183,33.34,-0.64,1.31,9.31
50.29564,2.937183,33.34,-1.35,2.06,9.19
50.295462,2.937554,33.24,-1.04,1.79,8.99
50.295462,2.937554,33.24,1.47,1.27,12.74
50.295285,2.937915,33.3,0.01,1.33,10.08
50.295285,2.937915,33.3,0.11,1.29,8.08
50.295106,2.938285,33.31,-1.58,1.39,8.86
50.295106,2.938285,33.31,-0.73,1.22,9.83
50.294929,2.938651,33.39,-0.42,2.92,9.62
50.294929,2.938651,33.39,-0.63,0.96,9.31
50.294742,2.939009,33.41,1.12,1.31,11.39
50.294742,2.939009,33.41,0.4,1.09,9.32
50.294554,2.939375,33.32,-0.9,2.37,10.66
50.294554,2.939375,33.32,0.0,1.76,9.51
50.294366,2.939735,33.3,-0.01,1.58,11.74
50.294366,2.939735,33.3,-0.28,0.9,9.04
50.294171,2.940095,33.4,-1.44,0.64,9.1
50.294171,2.940095,33.4,-0.58,2.45,10.23
50.293978,2.94044,33.5,0.77,1.49,11.28
50.293978,2.94044,33.5,-2.6,2.16,9.13
50.293784,2.940799,33.47,-0.17,0.87,9.95
50.293784,2.940799,33.47,0.07,2.82,10.64
50.293587,2.941167,33.53,0.34,0.61,9.04
50.293587,2.941167,33.53,-1.37,2.6,9.28
50.293396,2.941528,33.59,0.7,1.32,11.32
50.2932,2.941887,33.6,-2.9,2.86,9.26
50.2932,2.941887,33.6,-0.18,0.45,9.03
50.293004,2.94225,33.61,-0.18,2.66,9.54
50.293004,2.94225,33.61,-0.19,1.22,9.5
50.29281,2.942609,33.59,-0.93,2.61,9.99
50.29281,2.942609,33.59,0.7,1.41,11.88
50.292618,2.942968,33.56,-1.63,2.07,9.71
50.292618,2.942968,33.56,0.52,0.96,8.19
50.292421,2.94333,33.52,-0.75,1.75,10.15
50.292421,2.94333,33.52,0.4,1.0,8.86
50.292229,2.943687,33.54,0.01,1.71,7.98
50.292229,2.943687,33.54,-0.83,1.48,12.22
50.292035,2.944048,33.53,-1.66,2.78,8.56
50.292035,2.944048,33.53,-0.81,1.87,7.92
50.29184,2.944401,33.57,-0.77,2.38,10.24
50.29184,2.944401,33.57,-0.22,1.08,10.07
50.291649,2.944749,33.61,-0.9,1.83,9.31
50.291649,2.944749,33.61,-0.37,1.05,11.38
50.291457,2.945116,33.55,-0.85,0.79,8.05
50.291457,2.945116,33.55,0.1,1.82,9.24
50.29127,2.94547,33.69,-0.77,1.47,9.69
50.29127,2.94547,33.69,-2.38,2.08,9.67
50.29108,2.945827,33.66,-0.72,0.86,9.17
50.29108,2.945827,33.66,-1.09,2.3,10.86
50.290883,2.946193,33.75,0.34,1.04,10.01
50.290883,2.946193,33.75,-1.28,1.94,9.17
50.290685,2.946556,33.77,0.28,0.74,10.74
50.290685,2.946556,33.77,-0.95,1.0,9.28
50.290488,2.94692,33.87,-1.23,2.16,8.91
50.290488,2.94692,33.87,-0.48,0.91,8.59
50.290293,2.947288,33.86,0.32,2.74,9.98
50.290293,2.947288,33.86,-0.73,2.05,10.37
50.290094,2.94766,34.0,0.34,1.71,8.93
50.290094,2.94766,34.0,-1.24,2.37,9.4
50.289893,2.948028,33.93,-0.23,0.67,12.18
50.289893,2.948028,33.93,-1.67,1.37,9.42
50.289695,2.948391,33.92,-0.89,0.81,9.67
50.289695,2.948391,33.92,0.46,1.87,10.65
50.289499,2.948755,33.93,0.1,0.07,10.51
50.289499,2.948755,33.93,0.69,1.2,12.2
50.289305,2.949117,33.88,-1.6,1.01,9.33
50.289106,2.949488,33.91,-0.45,0.18,10.94
50.289106,2.949488,33.91,0.21,0.93,10.09
50.288909,2.949859,33.9,1.47,1.0,10.72
50.288909,2.949859,33.9,-0.15,1.03,11.0
50.288711,2.950228,34.0,-1.63,1.06,8.69
50.288711,2.950228,34.0,-0.07,2.22,8.88
50.288518,2.95059,33.9,-0.99,0.8,8.78
50.288518,2.95059,33.9,-0.66,1.7,9.91
50.288321,2.950948,33.85,-1.36,1.85,8.44
50.288321,2.950948,33.85,0.11,1.31,9.45
50.288125,2.951305,33.8,-1.95,2.7,9.27
50.288125,2.951305,33.8,1.02,1.34,10.84
50.287931,2.951662,33.82,-0.8,2.58,9.72
50.287931,2.951662,33.82,-0.69,1.22,11.04
50.287734,2.952026,33.79,-0.76,1.45,10.42
50.287734,2.952026,33.79,-0.82,1.17,12.86
50.28754,2.952379,33.78,-1.08,1.53,9.16
50.28754,2.952379,33.78,1.02,2.1,10.72
50.28734,2.952739,33.77,0.84,1.08,10.1
50.28734,2.952739,33.77,0.35,1.3,9.27
50.287146,2.953095,33.83,0.39,2.32,9.69
50.287146,2.953095,33.83,2.39,1.24,10.76
50.286943,2.953456,33.86,-0.63,2.55,8.78
50.286943,2.953456,33.86,0.89,1.24,11.03
50.286737,2.953819,33.84,-0.67,1.55,9.4
50.286737,2.953819,33.84,0.75,1.53,12.29
50.286534,2.954168,33.82,-0.03,1.07,8.89
50.286534,2.954168,33.82,-0.31,1.48,10.27
50.286328,2.95452,33.91,-1.06,1.15,10.52
50.286328,2.95452,33.91,-0.52,1.45,10.38
50.286122,2.95487,33.92,0.0,2.31,8.87
50.286122,2.95487,33.92,-1.49,1.4,10.68
50.285917,2.955223,33.92,0.32,2.26,8.94
50.285917,2.955223,33.92,-1.88,1.94,10.11
50.285707,2.955587,34.0,1.26,1.91,10.94
50.285707,2.955587,34.0,-0.01,1.69,9.18
50.285498,2.955936,33.67,-1.68,2.0,8.53
50.285498,2.955936,33.67,0.38,1.5,11.35
50.285292,2.956286,33.99,-0.97,1.9,9.96
50.285292,2.956286,33.99,-2.12,1.6,9.25
50.285079,2.956631,34.16,0.39,1.24,10.35
50.284863,2.956969,34.19,0.51,1.35,9.17
50.284863,2.956969,34.19,0.11,2.85,9.17
50.284643,2.957308,34.18,-1.14,1.56,11.69
50.284643,2.957308,34.18,-0.13,1.04,8.79
50.284424,2.957646,34.22,-1.22,2.39,8.38
50.284424,2.957646,34.22,0.53,1.4,10.93
50.284208,2.957983,34.17,0.31,0.03,8.58
50.284208,2.957983,34.17,-0.36,1.06,7.89
50.283985,2.958315,34.23,0.43,1.48,10.63
50.283985,2.958315,34.23,-0.1,1.27,9.61
50.283758,2.958646,34.3,-0.93,0.51,11.21
50.283758,2.958646,34.3,-1.08,1.87,10.47
50.283532,2.958984,34.3,0.37,1.65,12.38
50.283532,2.958984,34.3,0.72,1.55,9.17
50.283301,2.959324,34.33,-0.09,1.7,10.07
50.283301,2.959324,34.33,-2.34,2.64,8.11
50.283077,2.95965,34.44,-0.5,1.63,10.94
50.283077,2.95965,34.44,1.73,1.35,9.06
50.282849,2.959985,34.35,0.34,1.39,9.35
50.282849,2.959985,34.35,-0.54,2.41,9.68
50.282619,2.960314,34.24,-0.69,1.68,10.25
50.282619,2.960314,34.24,-0.62,-0.7,13.23
50.282386,2.960639,33.98,-1.13,1.44,9.51
50.282386,2.960639,33.98,-0.77,1.74,12.24
50.282162,2.960955,33.65,-0.29,0.48,9.49
50.282162,2.960955,33.65,-0.25,1.01,11.64
50.281939,2.961269,33.65,-0.7,1.1,9.13
50.281939,2.961269,33.65,-0.84,1.81,8.31
50.281718,2.961574,33.51,-0.92,1.32,9.3
50.281718,2.961574,33.51,-0.48,1.94,10.27
50.281493,2.961885,33.72,0.01,1.52,10.91
50.281493,2.961885,33.72,-1.4,1.96,7.5
50.281262,2.962195,33.84,0.0,1.63,10.79
50.281262,2.962195,33.84,-0.41,1.1,9.14
50.281029,2.962509,33.69,-0.83,2.3,10.0
50.281029,2.962509,33.69,0.39,1.71,8.93
50.280803,2.962813,33.8,-0.97,1.31,9.44
50.280803,2.962813,33.8,-0.51,1.74,11.64
50.280566,2.963123,34.01,-0.84,1.7,9.02
50.280566,2.963123,34.01,-1.97,1.42,7.69
50.280324,2.963436,33.92,1.25,1.3,10.52
50.280324,2.963436,33.92,-1.12,0.86,10.03
50.280083,2.963743,34.05,-0.03,1.34,9.65
50.279845,2.964046,34.12,-1.79,2.9,10.61
50.279845,2.964046,34.12,-1.41,0.25,7.99
50.279603,2.964339,34.09,0.02,0.88,8.77
50.279603,2.964339,34.09,0.68,1.19,10.65
50.279364,2.964637,34.11,-1.22,0.47,9.27
50.279364,2.964637,34.11,-0.23,1.49,7.98
50.279123,2.964934,34.03,-0.24,1.86,10.7
50.279123,2.964934,34.03,-0.28,1.89,8.32
50.278881,2.965228,33.99,-0.61,1.76,8.79
50.278881,2.965228,33.99,-0.62,2.06,10.4
50.278635,2.965512,34.03,0.6,0.87,9.38
50.278635,2.965512,34.03,-0.89,2.48,8.3
50.27839,2.965798,34.28,-1.01,2.41,10.67
50.27839,2.965798,34.28,-1.03,0.92,9.61
50.278148,2.966091,34.21,0.23,1.0,10.17
50.278148,2.966091,34.21,-1.59,1.57,9.15
50.277913,2.96639,34.29,-0.63,2.93,8.16
50.277913,2.96639,34.29,-0.34,0.19,8.23
50.277672,2.966683,34.49,-0.89,1.02,8.85
50.277672,2.966683,34.49,-0.15,1.15,9.51
50.277427,2.966985,34.64,-0.98,1.61,9.89
50.277427,2.966985,34.64,-1.25,1.76,10.11
50.277182,2.967286,34.65,-0.93,1.21,10.52
50.277182,2.967286,34.65,-1.59,1.84,11.2
50.276942,2.967585,34.81,-2.01,0.0,8.82
50.276942,2.967585,34.81,-1.16,0.41,9.83
50.276692,2.967892,34.73,-0.95,0.2,9.54
50.276692,2.967892,34.73,-0.25,1.66,9.35
50.276452,2.968199,34.48,-0.43,0.8,11.34
50.276452,2.968199,34.48,0.63,0.38,10.82
50.276212,2.968503,34.02,-1.57,2.49,9.83
50.276212,2.968503,34.02,-1.34,1.21,10.54
50.275971,2.968809,34.11,0.65,0.94,11.78
50.275971,2.968809,34.11,-0.17,2.5,9.5
50.275735,2.969111,34.18,-1.19,2.38,9.89
50.275735,2.969111,34.18,-1.32,1.84,11.1
50.275497,2.969418,34.48,-2.54,0.41,7.83
50.275497,2.969418,34.48,-2.04,0.47,9.09
50.27526,2.969728,34.51,-2.36,0.3,8.97
50.27526,2.969728,34.51,-1.32,1.92,11.7
50.275027,2.970038,34.55,-0.66,1.62,11.22
50.274797,2.97035,34.49,-0.01,-0.57,10.14
50.274797,2.97035,34.49,-0.81,1.19,9.47
50.274574,2.970659,33.81,0.19,2.06,10.78
50.274574,2.970659,33.81,-0.09,0.72,11.12
50.274351,2.970968,33.59,-1.6,1.17,9.74
50.274351,2.970968,33.59,-2.17,0.53,9.74
50.274123,2.97129,33.41,-1.75,2.32,9.64
50.274123,2.97129,33.41,-1.44,1.12,9.28
50.273905,2.971609,33.49,-1.39,2.81,9.69
50.273905,2.971609,33.49,-0.06,1.01,9.99
50.273686,2.971938,33.55,-0.97,1.38,11.66
50.273686,2.971938,33.55,-0.45,0.47,8.74
50.273471,2.97226,33.47,-1.94,1.32,11.05
50.273471,2.97226,33.47,-0.28,1.23,10.13
50.273254,2.972582,33.4,-0.23,3.01,13.4
50.273254,2.972582,33.4,-0.59,0.62,8.15
50.273037,2.972918,33.44,0.49,0.92,10.47
50.273037,2.972918,33.44,-1.02,1.79,8.97
50.272829,2.973253,33.39,-0.62,1.51,10.08
50.272829,2.973253,33.39,-0.68,2.21,10.43
50.27262,2.973582,33.41,-0.7,0.89,9.62
50.27262,2.973582,33.41,-1.94,1.14,8.83
50.272409,2.973916,33.56,-1.15,1.34,8.78
50.272409,2.973916,33.56,-0.95,2.55,11.31
50.272204,2.974262,33.39,0.38,0.09,9.05
50.272204,2.974262,33.39,-1.54,0.97,8.77
50.271998,2.974605,33.35,-1.07,0.41,9.81
50.271998,2.974605,33.35,-1.6,2.01,9.79
50.27179,2.974945,33.31,-2.12,1.28,8.95
50.27179,2.974945,33.31,-1.55,2.17,10.51
50.271586,2.975285,33.23,-1.54,1.57,9.82
50.271586,2.975285,33.23,0.01,0.79,10.39
50.271384,2.975628,33.27,-0.14,1.7,9.29
50.271384,2.975628,33.27,-0.66,1.16,8.61
50.271185,2.975976,33.56,-0.95,2.06,10.07
50.271185,2.975976,33.56,-1.54,1.8,9.93
50.270985,2.976329,33.74,-0.09,1.89,9.13
50.270985,2.976329,33.74,-1.97,1.21,8.54
50.270786,2.976696,33.97,-0.05,0.53,9.67
50.270786,2.976696,33.97,-0.38,2.75,9.93
50.270592,2.977051,34.06,-1.55,1.03,10.89
50.270404,2.977411,34.17,0.18,1.48,10.75
50.270404,2.977411,34.17,-1.15,2.87,8.83
50.270211,2.97777,34.18,-1.45,1.49,9.79
50.270211,2.97777,34.18,-0.83,1.02,8.6
50.27001,2.978145,34.24,-0.72,2.62,10.33
50.27001,2.978145,34.24,-2.09,2.26,10.4
50.269818,2.978526,34.24,-0.73,0.83,10.13
50.269818,2.978526,34.24,-1.18,0.67,11.31
50.269635,2.978901,34.23,-0.56,2.25,9.04
50.269635,2.978901,34.23,0.11,0.84,9.86
50.26945,2.979282,34.25,-0.19,0.67,8.05
50.26945,2.979282,34.25,-0.13,0.94,8.85
50.269266,2.979662,34.22,-1.14,0.9,8.94
50.269266,2.979662,34.22,-1.08,0.96,8.14
50.269084,2.980048,34.32,-0.76,0.73,7.84
50.269084,2.980048,34.32,-1.81,2.64,8.71
50.268902,2.980444,34.41,-1.48,1.01,7.84
50.268902,2.980444,34.41,-0.18,0.14,11.36
50.268727,2.980839,34.39,0.22,0.08,10.67
50.268727,2.980839,34.39,-0.24,1.59,9.13
50.268546,2.981241,34.49,-0.02,2.08,9.99
50.268546,2.981241,34.49,0.3,1.39,9.45
50.268371,2.981643,34.46,0.31,1.41,9.84
50.268371,2.981643,34.46,-0.97,1.34,8.85
50.268199,2.982051,34.4,-1.92,2.19,7.57
50.268199,2.982051,34.4,-1.46,2.37,10.26
50.268024,2.982452,34.36,-1.81,0.61,10.78
50.268024,2.982452,34.36,-0.06,1.37,9.83
50.267854,2.982849,34.23,-0.74,2.27,7.43
50.267854,2.982849,34.23,-0.61,1.68,8.88
50.267679,2.983257,34.22,-0.25,1.29,11.83
50.267679,2.983257,34.22,-1.36,1.92,9.33
50.267506,2.983663,34.05,-1.84,1.26,10.54
50.267506,2.983663,34.05,1.0,1.41,9.94
50.267335,2.984064,33.95,-0.79,0.86,10.86
50.267335,2.984064,33.95,-1.09,1.41,10.49
50.267176,2.984467,33.91,1.98,0.88,10.07
50.267176,2.984467,33.91,-0.01,1.6,9.42
50.267016,2.98487,33.76,-0.03,1.47,8.58
50.267016,2.98487,33.76,-0.66,1.33,8.91
50.26686,2.985265,33.68,-0.06,1.22,11.71
50.26686,2.985265,33.68,0.45,1.5,9.68
50.266699,2.98566,33.54,-0.55,0.65,11.35
50.266534,2.986058,33.41,-1.87,1.36,8.85
50.266534,2.986058,33.41,-1.16,1.61,9.71
50.266375,2.986459,33.42,-0.42,2.45,8.38
50.266375,2.986459,33.42,-0.83,0.53,8.62
50.266215,2.986855,33.56,-1.02,2.65,9.9
50.266215,2.986855,33.56,0.68,1.66,10.27
50.266057,2.987255,33.4,-0.36,2.04,10.41
50.266057,2.987255,33.4,-0.66,0.58,9.24
50.265903,2.987653,33.44,-1.88,1.55,9.25
50.265903,2.987653,33.44,-0.47,1.63,8.9
50.265741,2.988052,33.48,-1.27,2.01,10.0
50.265741,2.988052,33.48,0.6,1.26,7.62
50.26558,2.988452,33.5,0.32,0.75,10.96
50.26558,2.988452,33.5,-1.67,0.68,8.23
50.265425,2.988853,33.45,0.43,1.74,11.49
50.265425,2.988853,33.45,-0.19,1.36,9.37
50.265268,2.989258,33.51,0.07,0.95,10.25
50.265268,2.989258,33.51,0.29,1.58,10.28
50.265109,2.989658,33.43,-1.51,2.26,11.24
50.265109,2.989658,33.43,-0.93,2.17,7.8
50.264955,2.990053,33.43,-0.42,1.47,11.34
50.264955,2.990053,33.43,-0.05,0.71,8.15
50.264798,2.990452,33.44,-0.82,1.28,9.77
50.264798,2.990452,33.44,-2.33,1.72,9.14
50.264648,2.990853,33.34,2.03,1.27,11.1
50.264648,2.990853,33.34,-0.62,1.69,10.17
50.264496,2.991251,33.29,-1.24,0.99,6.45
50.264496,2.991251,33.29,0.41,2.93,10.73
50.264338,2.99165,33.27,-0.34,1.47,12.21
50.264338,2.99165,33.27,1.46,1.5,10.81
50.264179,2.99205,33.27,-0.45,1.64,8.67
50.264179,2.99205,33.27,1.18,1.01,11.92
50.264025,2.992445,33.17,-1.38,2.34,11.92
50.264025,2.992445,33.17,-0.44,1.01,9.14
50.263871,2.992844,33.19,-1.43,2.34,10.84
50.263871,2.992844,33.19,-0.13,2.69,10.34
50.263709,2.993247,33.13,-0.43,1.9,9.6
50.263709,2.993247,33.13,-0.5,2.25,10.09
50.26355,2.993647,33.13,0.35,1.15,10.24
50.26355,2.993647,33.13,0.2,1.69,11.35
50.263398,2.994042,33.2,-0.15,1.65,10.05
50.263244,2.994435,33.23,-1.53,0.64,7.92
50.263244,2.994435,33.23,-1.44,2.26,11.96
50.263091,2.994823,33.26,-2.78,1.14,8.0
50.263091,2.994823,33.26,-1.05,1.58,7.98
50.262938,2.995222,33.28,-0.1,2.45,10.82
50.262938,2.995222,33.28,-0.99,1.0,7.17
50.262784,2.995627,33.26,-1.04,1.56,10.69
50.262784,2.995627,33.26,0.11,0.94,8.64
50.262631,2.996028,33.28,0.38,1.68,8.99
50.262631,2.996028,33.28,0.03,2.59,11.72
50.262479,2.996432,33.21,-0.12,1.54,9.98
50.262479,2.996432,33.21,-1.53,2.07,11.91
50.262323,2.996833,33.23,-1.47,0.34,6.54
50.262323,2.996833,33.23,-2.54,1.65,10.05
50.262163,2.997226,33.28,-0.82,2.49,9.2
50.262163,2.997226,33.28,1.03,1.47,10.17
50.261999,2.99762,33.33,0.18,1.02,9.71
50.261999,2.99762,33.33,0.62,1.53,11.18
50.261845,2.998013,33.34,-1.89,1.43,10.21
50.261845,2.998013,33.34,-1.68,1.49,8.59
50.261687,2.998412,33.3,-1.77,2.03,10.36
50.261687,2.998412,33.3,-0.37,1.6,10.37
50.26153,2.998813,33.37,-1.53,1.35,10.62
50.26153,2.998813,33.37,-1.36,0.65,7.85
50.261369,2.999212,33.38,-1.5,2.14,10.25
50.261369,2.999212,33.38,0.68,2.01,8.71
50.261209,2.999614,33.52,-0.56,1.3,9.75
50.261209,2.999614,33.52,-1.06,1.38,8.74
50.261052,3.000016,33.45,1.11,0.82,10.48
50.261052,3.000016,33.45,-0.95,1.09,10.47
50.260894,3.000416,33.57,-1.56,2.23,10.36
50.260894,3.000416,33.57,-0.91,1.31,7.99
50.26073,3.000816,33.62,-1.0,1.72,9.48
50.26073,3.000816,33.62,-1.22,1.35,8.83
50.260577,3.001212,33.62,0.7,2.79,9.22
50.260577,3.001212,33.62,-0.75,1.3,9.5
50.26042,3.001611,33.7,-1.12,2.39,9.47
50.26042,3.001611,33.7,-0.99,2.12,10.18
50.260258,3.002008,33.74,-0.49,2.92,8.98
50.260258,3.002008,33.74,-0.91,2.31,11.99
50.260091,3.002401,33.72,0.8,0.97,9.59
50.260091,3.002401,33.72,-1.94,2.29,10.61
50.259922,3.002798,34.06,1.49,2.07,10.64
50.259757,3.003197,34.14,0.2,0.95,10.44
50.259757,3.003197,34.14,-2.03,2.7,8.42
50.259584,3.003598,34.15,-1.67,1.46,12.51
50.259584,3.003598,34.15,1.02,1.21,9.72
50.259412,3.003991,34.25,-0.63,2.38,8.93
50.259412,3.003991,34.25,-1.77,2.63,9.96
50.259237,3.004383,34.25,-1.05,0.57,8.7
50.259237,3.004383,34.25,0.14,1.17,9.31
50.259058,3.004773,34.29,0.26,2.72,9.75
50.259058,3.004773,34.29,-1.13,2.44,9.99
50.25888,3.005165,34.33,-0.96,0.66,10.11
50.25888,3.005165,34.33,0.34,0.81,9.97
50.2587,3.005561,34.28,-0.88,2.41,9.23
50.2587,3.005561,34.28,1.9,1.15,10.34
50.258523,3.005959,34.31,-0.22,1.16,8.97
50.258523,3.005959,34.31,-0.72,0.36,8.6
50.258349,3.006346,34.42,-0.13,1.13,9.19
50.258349,3.006346,34.42,-0.29,1.46,10.45
50.258168,3.00673,34.46,0.66,1.76,11.69
50.258168,3.00673,34.46,1.15,1.29,9.51
50.257987,3.00711,34.58,-0.67,2.91,8.59
50.257987,3.00711,34.58,-0.43,2.26,9.87
50.257805,3.007502,34.65,-0.65,2.73,9.55
50.257805,3.007502,34.65,-0.66,2.86,9.56
50.25762,3.007897,34.59,1.96,0.6,10.19
50.25762,3.007897,34.59,0.07,1.0,8.72
50.257433,3.00828,34.6,-0.64,0.44,8.91
50.257433,3.00828,34.6,-1.95,2.71,8.56
50.257242,3.00866,34.55,-1.68,2.15,9.92
50.257242,3.00866,34.55,-0.83,1.42,10.17
50.257051,3.009036,34.56,-0.81,0.93,8.88
50.257051,3.009036,34.56,0.76,0.88,10.44
50.256858,3.009409,34.51,0.34,1.67,11.57
50.256858,3.009409,34.51,-1.05,1.02,11.73
50.256658,3.009782,34.45,1.66,1.04,10.68
50.256658,3.009782,34.45,1.42,-0.04,9.63
50.256456,3.010152,34.41,-0.26,1.79,12.13
50.256456,3.010152,34.41,0.6,0.56,11.54
50.256257,3.010519,33.78,-0.18,1.39,9.65
50.256056,3.010879,33.37,-0.44,1.29,10.59
50.256056,3.010879,33.37,1.21,1.08,9.37
50.255851,3.011233,33.36,-0.45,0.46,10.03
50.255851,3.011233,33.36,1.05,1.07,10.64
50.255642,3.01159,33.42,-1.24,0.68,8.4
50.255642,3.01159,33.42,-0.57,2.95,9.56
50.255438,3.011936,33.29,1.58,1.86,11.64
50.255438,3.011936,33.29,0.4,1.21,11.28
50.255235,3.012273,33.43,1.27,0.83,11.45
50.255235,3.012273,33.43,-1.04,1.29,9.34
50.255024,3.012607,33.36,-0.64,1.05,10.04
50.255024,3.012607,33.36,-0.15,1.2,10.51
50.254811,3.012946,33.35,-0.26,1.8,8.07
50.254811,3.012946,33.35,-1.05,1.6,9.12
50.254599,3.013282,33.42,-0.16,2.67,10.57
50.254599,3.013282,33.42,0.78,1.06,11.09
50.25439,3.013604,33.42,-0.95,2.73,9.45
50.25439,3.013604,33.42,-0.58,1.47,8.9
50.254178,3.013924,33.4,-0.59,2.96,10.41
50.254178,3.013924,33.4,0.4,1.23,10.15
50.253963,3.014243,33.31,-0.75,1.34,10.24
50.253963,3.014243,33.31,-0.44,1.06,8.27
50.253742,3.014568,33.24,-0.57,2.06,10.11
50.253742,3.014568,33.24,0.31,2.04,10.33
50.253523,3.014877,33.22,1.8,1.46,8.73
50.253523,3.014877,33.22,-0.32,2.54,10.03
50.253304,3.015185,33.23,0.2,1.15,9.63
50.253304,3.015185,33.23,-0.35,1.58,11.77
50.253082,3.01549,33.15,-0.44,2.2,9.41
50.253082,3.01549,33.15,-0.68,1.44,11.06
50.252859,3.015793,33.19,-0.5,2.81,10.05
50.252859,3.015793,33.19,0.84,1.17,8.99
50.252637,3.016099,33.26,-1.02,3.1,9.92
50.252637,3.016099,33.26,0.85,1.0,9.36
50.252406,3.016404,33.27,-0.11,1.95,10.84
50.252406,3.016404,33.27,0.07,1.23,10.88
50.252172,3.016706,33.34,0.31,1.02,9.45
50.252172,3.016706,33.34,-0.98,2.19,9.79
50.25194,3.017002,33.35,0.25,1.6,9.25
50.25194,3.017002,33.35,0.28,2.8,9.45
50.251707,3.017298,33.39,0.39,0.76,8.72
50.251707,3.017298,33.39,1.02,0.81,9.02
50.251473,3.017593,33.43,-1.06,1.24,8.03
50.251236,3.01788,33.45,-2.1,2.51,10.28
50.251236,3.01788,33.45,-0.02,0.47,9.04
50.251,3.018168,33.46,-2.56,2.78,10.72
50.251,3.018168,33.46,-0.93,1.95,8.49
50.250757,3.018454,33.5,0.7,1.55,8.73
50.250757,3.018454,33.5,0.58,1.29,9.76
50.250515,3.01874,33.58,-1.51,2.79,10.22
50.250515,3.01874,33.58,-1.13,2.22,9.5
50.250268,3.019031,33.63,-2.16,2.63,9.99
50.250268,3.019031,33.63,-0.88,0.74,7.51
50.250024,3.019315,33.66,-0.96,2.15,9.12
50.250024,3.019315,33.66,-0.72,0.68,9.71
50.249777,3.019599,33.88,0.1,0.65,9.2
50.249777,3.019599,33.88,-0.69,2.81,9.56
50.249532,3.019882,33.83,1.12,0.84,9.85
50.249532,3.019882,33.83,-0.55,3.27,9.84
50.249294,3.020156,34.0,-1.33,1.5,9.65
50.249294,3.020156,34.0,0.71,1.88,11.81
50.24905,3.020431,34.09,-1.01,2.73,10.34
50.24905,3.020431,34.09,-0.09,0.97,11.07
50.248796,3.020703,34.14,0.43,0.91,10.55
50.248796,3.020703,34.14,-1.21,2.57,10.25
50.24854,3.020981,34.24,-1.45,2.17,9.89
50.24854,3.020981,34.24,-0.43,0.94,11.58
50.248288,3.021254,34.34,-0.58,1.0,9.59
50.248288,3.021254,34.34,-0.15,2.06,9.62
50.248037,3.02153,34.55,-1.24,3.14,11.18
50.248037,3.02153,34.55,1.21,1.35,10.03
50.247786,3.021814,34.71,0.79,1.74,10.3
50.247786,3.021814,34.71,1.18,1.24,11.48
50.247527,3.022095,34.89,-1.13,0.39,9.13
50.247527,3.022095,34.89,-0.7,1.87,10.97
50.247272,3.022365,34.31,-0.92,2.1,8.09
50.247272,3.022365,34.31,-2.0,1.94,8.85
50.247018,3.022643,34.26,-0.7,0.22,9.5
50.247018,3.022643,34.26,-0.64,2.09,8.81
50.246768,3.022915,34.2,1.3,0.16,10.21
50.246768,3.022915,34.2,-0.92,0.39,8.53
50.246513,3.02318,34.17,-0.02,2.14,9.89
50.24626,3.023451,34.2,1.3,0.81,11.27
50.24626,3.023451,34.2,0.01,0.89,9.23
50.245998,3.02371,34.39,-1.89,-0.25,9.67
50.245998,3.02371,34.39,-1.77,1.97,10.03
50.245743,3.023976,34.48,-0.69,1.27,10.26
50.245743,3.023976,34.48,0.79,0.79,12.0
50.245489,3.024252,34.52,0.25,0.2,10.36
50.245489,3.024252,34.52,-0.15,0.58,9.53
50.245233,3.024524,34.64,-0.09,1.07,11.01
50.245233,3.024524,34.64,-0.64,0.87,10.52
50.244973,3.024797,34.88,-0.63,1.51,9.79
50.244973,3.024797,34.88,-1.03,-0.23,9.93
50.244711,3.025073,34.58,-0.57,0.37,11.47
50.244711,3.025073,34.58,-0.98,1.21,9.26
50.244449,3.025347,34.21,-0.62,2.42,8.92
50.244449,3.025347,34.21,-1.37,0.37,9.42
50.244197,3.025621,34.1,-0.89,0.72,9.51
50.244197,3.025621,34.1,-0.72,1.31,9.84
50.243943,3.025892,34.1,-1.88,2.12,9.05
50.243943,3.025892,34.1,-0.91,0.95,9.15
50.243689,3.026155,34.18,0.62,1.67,10.81
50.243689,3.026155,34.18,-0.68,2.4,7.97
50.243437,3.026428,34.29,1.49,1.46,10.43
50.243437,3.026428,34.29,-0.61,0.61,10.69
50.243181,3.026698,34.39,-0.48,0.4,10.31
50.243181,3.026698,34.39,-0.97,0.57,10.67
50.242931,3.026975,34.48,-0.02,0.99,10.22
50.242931,3.026975,34.48,0.06,0.92,11.48
50.242676,3.027252,34.56,1.42,1.26,8.57
50.242676,3.027252,34.56,-0.2,2.02,8.82
50.242424,3.027529,34.57,-0.83,2.68,10.08
50.242424,3.027529,34.57,-1.61,1.91,8.45
50.242168,3.027802,34.7,-0.46,1.07,10.8
50.242168,3.027802,34.7,0.61,-0.33,10.8
50.241914,3.028076,34.71,0.66,0.21,10.66
50.241914,3.028076,34.71,-0.14,0.35,10.36
50.241666,3.028354,33.92,-0.31,0.46,10.43
50.241666,3.028354,33.92,-2.05,1.53,9.39
50.241416,3.02863,33.5,-0.89,0.3,10.41
50.241416,3.02863,33.5,-0.18,2.16,9.63
50.241171,3.028904,33.28,-2.48,0.77,8.63
50.241171,3.028904,33.28,1.17,0.75,11.1
50.240929,3.029174,33.14,-2.02,1.81,9.0
50.240693,3.029451,33.04,0.85,0.7,9.47
50.240693,3.029451,33.04,-0.43,0.55,11.47
50.24046,3.029734,33.02,-0.52,1.96,8.6
50.24046,3.029734,33.02,0.13,1.38,8.73
50.240225,3.030019,33.07,-0.38,1.23,11.26
50.240225,3.030019,33.07,0.31,1.15,9.42
50.239993,3.03031,33.35,-0.13,1.23,9.48
50.239993,3.03031,33.35,-0.77,2.54,9.91
50.23976,3.030596,33.51,-1.45,1.82,9.77
50.23976,3.030596,33.51,-0.93,2.08,9.67
50.239527,3.0309,33.6,-1.17,1.4,7.72
50.239527,3.0309,33.6,-0.3,2.26,9.51
50.239293,3.031199,33.78,-0.75,1.02,10.61
50.239293,3.031199,33.78,-1.25,1.9,7.9
50.23906,3.03151,34.03,-1.69,1.65,9.52
50.23906,3.03151,34.03,0.6,1.46,11.85
50.23883,3.031819,34.1,0.16,1.65,10.18
50.23883,3.031819,34.1,-1.3,2.1,7.97
50.238602,3.032137,34.22,-1.55,1.23,10.96
50.238602,3.032137,34.22,-0.97,0.81,8.18
50.238376,3.032461,34.37,0.06,1.52,10.23
50.238376,3.032461,34.37,-0.57,1.73,10.14
50.238156,3.032788,34.43,0.91,1.74,9.93
50.238156,3.032788,34.43,-1.39,1.2,8.29
50.237929,3.033123,34.49,-1.71,0.5,8.67
50.237929,3.033123,34.49,-1.02,1.26,8.83
50.237709,3.033454,34.4,-0.82,2.38,11.2
50.237709,3.033454,34.4,0.02,1.53,10.54
50.237485,3.033802,34.44,0.91,1.38,11.21
50.237485,3.033802,34.44,-0.64,1.72,8.8
50.237267,3.034145,34.39,-0.62,2.34,9.71
50.237267,3.034145,34.39,-1.18,2.15,11.36
50.237057,3.034506,34.35,-0.77,0.48,9.87
50.237057,3.034506,34.35,0.32,1.41,9.15
50.236849,3.034873,34.35,-1.18,1.47,9.82
50.236849,3.034873,34.35,-1.05,0.59,9.56
50.236648,3.035238,33.48,-0.3,1.82,10.29
50.236648,3.035238,33.48,-0.04,1.07,8.83
50.236453,3.0356,33.25,1.52,1.02,10.29
50.236453,3.0356,33.25,-0.58,1.22,10.18
50.236265,3.035952,33.19,1.68,1.55,11.72
50.236265,3.035952,33.19,-0.5,2.3,9.38
50.236079,3.036308,33.19,-0.56,1.42,8.45
50.235893,3.036668,33.22,-1.52,1.17,11.52
50.235893,3.036668,33.22,-0.04,1.63,10.32
50.235709,3.037034,33.29,1.1,1.22,11.64
50.235709,3.037034,33.29,-1.72,2.31,9.16
50.23553,3.037402,33.36,-0.4,1.52,7.48
50.23553,3.037402,33.36,-1.16,2.87,10.23
50.235351,3.037775,33.41,-0.4,1.56,9.43
50.235351,3.037775,33.41,-1.86,2.72,10.68
50.23517,3.038149,33.64,-0.73,1.84,8.51
50.23517,3.038149,33.64,0.23,1.77,12.15
50.234987,3.038514,33.72,-2.6,0.6,7.95
50.234987,3.038514,33.72,-1.39,2.65,8.65
50.234803,3.038884,33.76,-0.47,1.89,10.43
50.234803,3.038884,33.76,-0.41,1.54,10.01
50.234628,3.039266,33.74,-0.85,1.27,10.68
50.234628,3.039266,33.74,-1.51,0.36,8.09
50.234456,3.039655,33.83,-2.09,2.05,10.65
50.234456,3.039655,33.83,-0.07,1.36,9.78
50.234279,3.040051,33.9,-1.18,1.28,9.5
50.234279,3.040051,33.9,-0.23,2.97,9.4
50.234104,3.040446,34.07,-1.39,0.35,8.2
50.234104,3.040446,34.07,0.18,0.92,10.11
50.233935,3.040835,34.19,-1.25,3.36,10.45
50.233935,3.040835,34.19,0.94,1.19,8.48
50.23376,3.041241,34.3,-1.68,1.06,9.37
50.23376,3.041241,34.3,-0.34,0.59,7.69
50.23359,3.041636,34.35,0.26,1.54,10.93
50.23359,3.041636,34.35,0.68,1.16,9.51
50.233416,3.042028,34.46,0.1,1.17,9.38
50.233416,3.042028,34.46,-1.98,0.13,8.93
50.233242,3.042429,34.64,0.21,3.06,9.45
50.233242,3.042429,34.64,-0.95,2.19,9.98
50.233075,3.042833,34.69,-0.38,3.67,10.19
50.233075,3.042833,34.69,0.21,0.93,8.1
50.232903,3.043237,34.76,0.4,1.38,10.73
50.232903,3.043237,34.76,0.4,0.51,10.92
50.232727,3.043637,34.99,-0.22,1.61,8.45
50.232727,3.043637,34.99,0.26,1.96,10.09
50.232547,3.044038,34.66,-0.96,2.68,9.94
50.232367,3.044436,34.58,0.01,1.11,9.8
50.232367,3.044436,34.58,0.89,1.14,10.89
50.232195,3.044847,34.52,0.49,1.23,10.72
50.232195,3.044847,34.52,-1.58,0.57,9.22
50.232022,3.045252,33.93,-1.13,2.11,10.07
50.232022,3.045252,33.93,1.39,1.4,10.39
50.231855,3.045646,33.89,-1.06,1.03,10.47
50.231855,3.045646,33.89,0.9,1.02,11.05
50.231693,3.046044,33.98,-1.64,1.38,10.41
50.231693,3.046044,33.98,-0.34,1.23,8.52
50.231535,3.046447,34.1,-0.84,1.0,10.6
50.231535,3.046447,34.1,0.73,1.56,8.94
50.231378,3.046849,34.18,-0.59,0.37,10.62
50.231378,3.046849,34.18,-1.56,1.61,9.62
50.231223,3.047264,34.27,-0.51,1.86,10.86
50.231223,3.047264,34.27,0.91,1.13,9.72
50.231057,3.047677,34.35,-1.81,2.57,9.72
50.231057,3.047677,34.35,-1.48,2.43,8.54
50.230893,3.048093,34.2,-0.06,0.73,11.5
50.230893,3.048093,34.2,0.0,1.14,9.84
50.230732,3.048515,34.04,-1.71,2.67,8.63
50.230732,3.048515,34.04,-2.13,1.33,10.22
50.230586,3.048932,34.04,-0.32,1.72,9.6
50.230586,3.048932,34.04,-0.66,3.21,8.03
50.230443,3.049348,34.05,-0.56,1.3,10.91
50.230443,3.049348,34.05,0.67,1.56,9.8
50.230299,3.049764,34.19,-0.35,2.75,9.93
50.230299,3.049764,34.19,-2.44,2.18,9.15
50.230146,3.050185,34.25,-2.18,1.58,10.07
50.230146,3.050185,34.25,0.0,1.52,9.88
50.229997,3.05061,34.36,-0.56,2.97,8.75
50.229997,3.05061,34.36,-0.84,2.79,10.14
50.229849,3.051047,34.35,-2.92,2.47,9.23
50.229849,3.051047,34.35,-2.05,0.95,9.37
50.229709,3.051481,34.46,-1.81,0.7,9.75
50.229709,3.051481,34.46,-0.5,0.63,9.12
50.229571,3.051912,34.48,-2.87,2.35,9.98
50.229571,3.051912,34.48,-1.91,1.52,10.48
50.22944,3.052344,34.6,-0.09,1.52,8.94
50.22944,3.052344,34.6,-1.58,1.34,10.41
50.229315,3.052779,34.65,-1.5,0.21,9.83
50.229189,3.053218,34.71,-0.68,1.08,10.29
50.229189,3.053218,34.71,-2.07,3.21,9.16
50.229065,3.053665,34.75,-2.22,2.17,10.5
50.229065,3.053665,34.75,0.13,1.5,9.06
50.228936,3.054112,34.81,0.08,1.54,10.46
50.228936,3.054112,34.81,0.91,1.51,11.57
50.228815,3.054561,34.77,-1.66,1.05,8.93
50.228815,3.054561,34.77,-0.46,0.27,9.22
50.228687,3.055012,34.73,-0.34,1.79,9.19
50.228687,3.055012,34.73,-0.82,1.2,9.17
50.228571,3.055464,34.71,-1.85,1.62,10.41
50.228571,3.055464,34.71,-1.92,1.96,9.57
50.228458,3.055917,34.77,-1.87,2.22,10.27
50.228458,3.055917,34.77,-0.52,0.79,9.94
50.228352,3.056368,34.67,-1.75,-0.02,10.11
50.228352,3.056368,34.67,-1.07,2.27,7.21
50.228246,3.056822,34.71,-1.06,1.82,9.27
50.228246,3.056822,34.71,-1.62,2.87,8.44
50.228133,3.057288,34.74,-0.21,2.23,10.06
50.228133,3.057288,34.74,1.32,1.73,11.96
50.228029,3.057743,34.59,-0.59,0.75,10.88
50.228029,3.057743,34.59,-0.43,0.31,6.78
50.227921,3.058197,34.24,0.06,1.6,11.15
50.227921,3.058197,34.24,0.06,1.98,10.28
50.227825,3.05864,34.11,-0.96,0.58,9.78
50.227825,3.05864,34.11,-2.16,2.76,8.91
50.227722,3.0591,34.14,-0.31,1.08,11.85
50.227722,3.0591,34.14,0.34,0.59,8.66
50.227625,3.059559,34.16,-1.44,0.84,9.05
50.227625,3.059559,34.16,-0.41,1.0,11.07
50.227535,3.060015,34.22,1.03,1.14,12.0
50.227535,3.060015,34.22,-0.96,0.23,9.02
50.227448,3.06047,34.19,-1.47,2.38,10.31
50.227448,3.06047,34.19,-1.89,1.54,11.43
50.227359,3.060927,34.15,-0.16,1.62,11.44
50.227359,3.060927,34.15,-0.9,0.76,10.08
50.227278,3.061383,34.19,-1.24,1.76,9.99
50.227278,3.061383,34.19,0.13,1.11,11.41
50.227198,3.06184,34.14,0.5,0.73,9.43
50.227198,3.06184,34.14,-2.4,1.55,11.4
50.22712,3.062296,34.01,1.87,1.17,10.87
50.227043,3.062752,34.01,-0.59,1.96,9.18
50.227043,3.062752,34.01,-2.13,1.35,10.34
50.226967,3.063208,33.92,1.16,0.88,10.65
50.226967,3.063208,33.92,-0.81,2.02,10.59
50.226896,3.063665,33.88,0.7,1.76,11.45
50.226896,3.063665,33.88,-1.08,0.57,9.42
50.226817,3.064129,33.9,-1.57,1.15,11.66
50.226817,3.064129,33.9,0.1,0.94,9.79
50.226742,3.064588,33.77,-1.2,0.84,7.43
50.226742,3.064588,33.77,-1.88,0.49,9.79
50.22667,3.065038,33.0,0.08,1.22,10.03
50.22667,3.065038,33.0,-1.01,1.2,8.39
50.226601,3.065489,32.66,1.37,0.23,10.31
50.226601,3.065489,32.66,0.89,1.37,10.87
50.226524,3.065935,32.56,-1.36,2.21,9.89
50.226524,3.065935,32.56,-1.61,1.44,8.86
50.226454,3.066378,32.62,-0.2,1.16,8.5
50.226454,3.066378,32.62,0.15,1.3,9.79
50.226386,3.066818,32.65,-1.06,2.39,10.16
50.226386,3.066818,32.65,-1.93,1.82,10.3
50.226316,3.067268,32.8,-1.06,0.95,8.0
50.226316,3.067268,32.8,1.23,1.54,11.35
50.226247,3.067716,32.91,-0.33,1.74,9.11
50.226247,3.067716,32.91,0.27,0.67,8.07
50.226175,3.068169,33.03,-0.62,1.74,11.28
50.226175,3.068169,33.03,-1.86,1.23,9.24
50.226101,3.068625,33.14,-1.75,1.24,9.28
50.226101,3.068625,33.14,-1.32,2.07,9.99
50.226027,3.069078,33.33,1.06,1.18,9.93
50.226027,3.069078,33.33,-1.54,1.93,10.35
50.225954,3.069526,33.44,-0.78,0.45,8.68
50.225954,3.069526,33.44,-1.76,2.49,7.88
50.225877,3.069987,33.66,1.13,1.6,9.78
50.225877,3.069987,33.66,-1.03,2.12,9.14
50.225802,3.070443,33.75,1.21,1.39,9.94
50.225802,3.070443,33.75,-1.07,0.47,8.68
50.225727,3.0709,33.82,0.76,1.19,10.07
50.225727,3.0709,33.82,-2.27,0.7,9.04
50.225655,3.071364,33.88,-0.26,1.82,10.07
50.225586,3.071823,34.04,1.45,1.29,10.16
50.225586,3.071823,34.04,-1.53,0.68,8.73
50.225514,3.072282,34.06,-0.49,1.74,9.12
50.225514,3.072282,34.06,0.94,0.95,9.83
50.225441,3.072739,33.78,0.21,0.83,9.26
50.225441,3.072739,33.78,0.07,0.23,10.53
50.225364,3.073198,33.18,-0.1,1.86,9.41
50.225364,3.073198,33.18,-1.08,0.33,9.17
50.225288,3.07365,32.87,-0.06,0.82,10.98
50.225288,3.07365,32.87,-0.94,1.8,10.02
50.225212,3.074087,32.62,0.55,1.44,10.33
50.225212,3.074087,32.62,-0.38,1.42,10.32
50.225136,3.074532,32.72,0.93,0.91,10.07
50.225136,3.074532,32.72,-1.37,2.85,9.14
50.225056,3.074973,32.72,-1.54,1.8,9.7
50.225056,3.074973,32.72,-0.59,0.93,8.96
50.22497,3.075409,32.89,-0.28,1.89,10.94
50.22497,3.075409,32.89,-0.07,2.1,8.74
50.224876,3.075857,33.02,-1.38,1.52,8.9
50.224876,3.075857,33.02,-0.63,1.76,11.65
50.224781,3.076296,33.11,-1.24,1.3,9.68
50.224781,3.076296,33.11,-0.8,2.07,11.63
50.224679,3.076738,33.21,-1.77,2.61,9.25
50.224679,3.076738,33.21,0.9,1.14,9.78
50.224579,3.07718,33.3,-0.37,1.9,10.07
50.224579,3.07718,33.3,1.46,1.21,10.18
50.224476,3.077606,33.36,-0.91,1.69,10.93
50.224476,3.077606,33.36,-0.33,0.8,8.63
50.224367,3.078037,33.36,-0.22,1.81,8.13
50.224367,3.078037,33.36,-0.67,0.87,8.93
50.224262,3.078455,33.59,-0.78,2.04,11.49
50.224262,3.078455,33.59,-0.49,1.22,7.65
50.224153,3.078878,33.45,1.76,0.96,9.91
50.224153,3.078878,33.45,0.19,1.3,9.85
50.224031,3.079308,33.5,-0.13,1.47,10.59
50.224031,3.079308,33.5,-0.02,1.25,8.79
50.223905,3.079743,33.56,-1.53,2.29,12.14
50.223905,3.079743,33.56,0.72,1.57,9.22
50.223774,3.080175,33.53,0.67,1.77,11.32
50.223774,3.080175,33.53,0.72,1.49,10.52
50.223638,3.080601,33.53,-1.58,1.7,10.21
50.223494,3.081023,33.55,-0.45,2.3,10.65
50.223494,3.081023,33.55,-0.42,0.66,11.85
50.223348,3.081442,33.56,-0.26,0.7,10.41
50.223348,3.081442,33.56,1.57,1.55,10.85
50.223202,3.081858,33.66,-0.57,2.11,9.24
50.223202,3.081858,33.66,-0.29,2.95,9.91
50.22305,3.082273,33.84,-0.31,1.31,7.64
50.22305,3.082273,33.84,-0.61,3.03,9.05
50.222884,3.08269,33.9,1.75,0.96,8.44
50.222884,3.08269,33.9,-0.02,2.0,9.58
50.222725,3.083096,34.01,0.55,0.43,9.84
50.222725,3.083096,34.01,-0.26,1.08,10.11
50.222566,3.083494,33.13,-0.2,-0.08,8.48
50.222566,3.083494,33.13,1.39,1.07,11.09
50.222406,3.083888,32.87,-0.37,1.59,8.86
50.222406,3.083888,32.87,0.85,0.65,10.06
50.22225,3.08428,32.78,0.86,0.65,10.67
50.22225,3.08428,32.78,-1.44,1.98,8.43
50.222083,3.084656,32.76,-1.21,1.67,13.67
50.222083,3.084656,32.76,-0.14,0.88,11.38
50.221916,3.085028,32.67,-0.15,0.68,10.78
50.221916,3.085028,32.67,-1.19,0.71,9.94
50.221751,3.085399,32.52,0.31,0.85,9.39
50.221751,3.085399,32.52,-0.59,0.98,9.4
50.221579,3.085763,32.47,1.07,0.68,10.14
50.221579,3.085763,32.47,1.32,0.54,7.2
50.221403,3.086138,32.46,-0.89,1.77,7.36
50.221403,3.086138,32.46,-0.18,1.51,7.52
50.22123,3.086497,32.46,-0.34,0.94,6.45
50.22123,3.086497,32.46,1.01,0.91,11.35
50.221046,3.086856,32.54,0.44,1.07,11.56
50.221046,3.086856,32.54,-0.8,1.56,10.14
50.220861,3.087213,32.5,-0.51,2.34,10.67
50.220861,3.087213,32.5,0.56,0.62,8.09
50.220672,3.087567,32.47,0.19,0.49,10.14
50.220672,3.087567,32.47,0.04,0.91,8.97
50.220483,3.087913,32.4,1.03,0.53,11.14
50.220483,3.087913,32.4,-1.51,1.89,11.21
50.220297,3.08826,32.58,-2.13,2.37,8.97
50.220297,3.08826,32.58,0.23,1.05,9.59
50.220104,3.088604,32.54,0.0,0.89,9.46
50.219902,3.088946,32.73,1.13,1.66,11.31
50.219902,3.088946,32.73,-0.73,2.05,11.5
50.219699,3.08929,32.75,0.61,1.04,8.38
50.219699,3.08929,32.75,-0.99,1.08,9.41
50.219493,3.089608,32.91,0.37,1.74,11.75
50.219493,3.089608,32.91,-0.11,1.47,8.5
50.219284,3.089924,32.87,0.4,0.7,7.93
50.219284,3.089924,32.87,-0.09,0.97,9.28
50.219068,3.090243,32.78,-0.77,2.14,8.66
50.219068,3.090243,32.78,0.2,1.97,9.86
50.218855,3.090553,32.76,-0.06,1.72,9.0
50.218855,3.090553,32.76,-0.63,2.47,10.38
50.218635,3.090861,32.76,-0.59,2.23,11.25
50.218635,3.090861,32.76,-1.0,1.52,9.02
50.218411,3.09117,32.77,0.52,1.18,9.31
50.218411,3.09117,32.77,1.13,1.3,11.88
50.218192,3.091467,32.73,-1.72,2.0,7.87
50.218192,3.091467,32.73,-0.31,0.75,9.39
50.217967,3.091765,32.8,0.63,1.35,10.56
50.217967,3.091765,32.8,0.06,2.55,10.91
50.217744,3.092061,32.62,0.22,1.0,8.39
50.217744,3.092061,32.62,-0.66,0.97,9.88
50.217518,3.092349,32.72,1.0,0.76,9.17
50.217518,3.092349,32.72,-1.5,2.01,10.91
50.21729,3.092632,32.69,0.63,0.79,10.21
50.21729,3.092632,32.69,1.09,1.61,10.06
50.217056,3.092909,32.68,0.82,1.22,11.88
50.217056,3.092909,32.68,0.33,2.16,9.56
50.216816,3.093185,32.72,-1.02,1.14,8.06
50.216816,3.093185,32.72,0.42,2.13,9.49
50.216576,3.093455,32.75,-0.16,1.63,10.39
50.216576,3.093455,32.75,0.5,1.57,7.96
50.216334,3.093717,32.69,0.45,1.55,8.64
50.216334,3.093717,32.69,0.19,1.21,8.17
50.216089,3.093978,32.67,-0.56,2.34,10.51
50.216089,3.093978,32.67,0.57,1.27,9.44
50.215846,3.094231,32.68,2.04,1.27,9.64
50.215846,3.094231,32.68,1.49,1.37,11.26
50.215599,3.094477,32.68,-0.73,1.83,10.79
50.215599,3.094477,32.68,0.83,2.3,9.82
50.215345,3.094723,32.82,-1.49,1.94,9.18
50.215089,3.094958,32.84,-0.03,0.46,10.78
50.215089,3.094958,32.84,-2.04,2.88,9.17
50.214834,3.095192,32.8,0.4,1.07,8.48
50.214834,3.095192,32.8,-0.5,1.9,8.86
50.214576,3.095423,32.8,0.11,1.58,11.39
50.214576,3.095423,32.8,0.48,1.27,10.0
50.21432,3.095643,32.93,-0.66,0.46,7.86
50.21432,3.095643,32.93,-0.42,1.54,10.73
50.21406,3.095859,32.9,0.65,1.26,10.98
50.21406,3.095859,32.9,-0.31,1.64,7.81
50.213799,3.096072,32.94,-0.15,0.77,10.57
50.213799,3.096072,32.94,0.05,1.75,10.63
50.213538,3.096289,33.03,1.02,0.76,11.13
50.213538,3.096289,33.03,-1.39,1.82,10.28
50.213275,3.096505,33.07,-0.63,1.36,8.67
50.213275,3.096505,33.07,-0.72,1.73,11.8
50.213016,3.096724,33.12,-1.33,1.89,10.79
50.213016,3.096724,33.12,-0.37,1.26,10.28
50.212752,3.09694,33.05,-0.92,2.32,11.08
50.212752,3.09694,33.05,-1.32,1.74,10.64
50.21249,3.097148,33.11,-1.88,1.45,8.82
50.21249,3.097148,33.11,-1.46,1.36,11.08
50.21222,3.097349,33.02,0.53,1.05,8.94
50.21222,3.097349,33.02,-1.06,0.91,9.5
50.211956,3.097555,32.91,-0.74,2.31,10.12
50.211956,3.097555,32.91,-0.85,1.89,9.07
50.211689,3.097768,32.97,-0.65,1.83,9.23
50.211689,3.097768,32.97,-0.3,0.92,10.29
50.211427,3.097988,32.91,-0.38,1.64,10.39
50.211427,3.097988,32.91,0.07,2.53,9.99
50.211169,3.098194,32.82,1.17,1.25,10.32
50.211169,3.098194,32.82,-1.19,1.99,9.81
50.210907,3.098401,32.75,-0.23,1.93,10.33
50.210907,3.098401,32.75,-1.61,0.99,7.7
50.210642,3.098605,32.84,-1.6,2.12,10.58
50.210642,3.098605,32.84,-0.49,2.64,10.83
50.210376,3.098813,32.72,-0.07,1.34,8.47
50.210376,3.098813,32.72,1.3,1.91,14.32
50.21011,3.099019,32.7,0.69,0.71,9.12
50.21011,3.099019,32.7,0.09,2.17,9.87
50.209846,3.099218,32.77,-0.91,1.58,9.38
50.209846,3.099218,32.77,1.49,1.2,10.91
50.20958,3.099413,32.68,-1.11,2.15,10.01
50.209308,3.099605,32.74,1.06,0.89,9.08
50.209308,3.099605,32.74,-0.17,1.68,8.67
50.209046,3.099804,32.62,0.52,0.43,10.01
50.209046,3.099804,32.62,0.69,2.6,8.7
50.208776,3.09999,32.71,-1.23,2.03,9.48
50.208776,3.09999,32.71,-0.03,0.44,10.41
50.208508,3.100176,32.87,-1.47,2.67,11.45
50.208508,3.100176,32.87,-0.61,1.75,10.41
50.208247,3.10036,32.81,0.55,0.92,11.05
50.208247,3.10036,32.81,1.03,1.47,10.31
50.207974,3.100542,32.88,-1.76,1.46,11.58
50.207974,3.100542,32.88,-0.16,0.79,9.42
50.207701,3.100723,32.75,1.02,0.96,9.63
50.207701,3.100723,32.75,-1.99,1.99,9.16
50.20743,3.100899,32.77,-1.37,1.35,9.63
50.20743,3.100899,32.77,-0.45,1.6,9.58
50.207154,3.101072,32.83,-0.12,2.07,11.21
50.207154,3.101072,32.83,0.04,1.89,10.62
50.20688,3.101241,32.99,0.12,1.59,9.51
50.20688,3.101241,32.99,-1.02,2.39,10.9
50.206603,3.101404,32.89,-1.08,2.81,8.02
50.206603,3.101404,32.89,0.01,1.46,9.79
50.20632,3.101559,33.0,-0.73,2.34,10.88
50.20632,3.101559,33.0,0.26,1.22,9.21
50.206045,3.101722,33.06,-1.0,1.32,8.18
50.206045,3.101722,33.06,-0.86,2.29,11.52
50.205763,3.101879,33.03,-0.45,0.95,8.9
50.205763,3.101879,33.03,0.85,0.46,10.22
50.205483,3.102031,33.01,-0.49,2.34,9.11
50.205483,3.102031,33.01,-1.55,1.51,8.84
50.205197,3.102176,32.94,-2.05,1.45,7.7
50.205197,3.102176,32.94,-1.13,1.21,8.69
50.204911,3.10231,32.94,1.59,0.63,10.4
50.204911,3.10231,32.94,0.14,1.07,9.15
50.204626,3.10244,33.01,0.5,3.04,10.33
50.204626,3.10244,33.01,-1.0,1.05,9.54
50.204339,3.102566,33.11,-1.45,2.09,10.02
50.204339,3.102566,33.11,-0.99,2.48,9.13
50.204054,3.102687,33.25,0.96,0.77,12.11
50.203761,3.10281,33.27,0.75,1.45,10.02
50.203761,3.10281,33.27,-0.17,0.89,9.98
50.203471,3.102928,33.29,-1.84,2.48,8.79
50.203471,3.102928,33.29,-0.19,1.36,9.02
50.20318,3.103046,33.38,-0.9,1.05,11.5
50.20318,3.103046,33.38,-0.96,1.34,8.36
50.202885,3.103158,33.38,-0.98,1.93,9.57
50.202885,3.103158,33.38,0.43,2.83,10.57
50.202595,3.103263,33.47,1.81,0.6,10.39
50.202595,3.103263,33.47,-0.16,1.02,6.96
50.202301,3.103352,33.52,1.02,1.14,11.08
50.202301,3.103352,33.52,-1.4,1.79,7.59
50.202003,3.103447,33.5,-0.49,1.6,11.79
50.202003,3.103447,33.5,-1.12,2.83,10.83
50.20171,3.103536,33.53,1.73,1.27,10.83
50.20171,3.103536,33.53,0.4,0.63,8.5
50.201416,3.103615,33.31,0.54,1.1,9.54
50.201416,3.103615,33.31,-0.66,2.89,10.31
50.201123,3.10369,33.33,0.77,1.26,10.64
50.201123,3.10369,33.33,-0.79,2.44,8.58
50.200832,3.103772,33.15,0.91,1.56,9.28
50.200832,3.103772,33.15,0.99,0.72,8.17
50.200538,3.103843,33.11,0.51,2.25,11.49
50.200538,3.103843,33.11,0.65,0.65,11.09
50.200242,3.103907,33.0,0.12,1.23,10.28
50.200242,3.103907,33.0,-0.08,1.81,10.94
50.199947,3.103965,32.92,-0.18,1.58,8.05
50.199947,3.103965,32.92,0.38,0.1,8.67
50.199656,3.104029,32.92,0.26,2.6,10.74
50.199656,3.104029,32.92,-0.54,1.38,8.96
50.199363,3.104077,32.91,-0.18,1.63,8.81
50.199363,3.104077,32.91,-1.17,2.0,9.96
50.199065,3.104115,32.88,-1.15,1.89,6.47
50.199065,3.104115,32.88,1.25,0.91,11.83
50.198769,3.104153,32.9,-1.31,1.67,11.18
50.198769,3.104153,32.9,-0.35,1.81,9.65
50.198463,3.104187,33.01,-0.77,1.08,9.61
50.198463,3.104187,33.01,-0.7,1.92,9.63
50.198168,3.104232,33.09,0.09,0.8,10.35
50.197871,3.10427,33.09,-0.26,1.26,9.12
50.197871,3.10427,33.09,-0.57,2.81,9.13
50.197575,3.104303,33.07,-0.8,0.88,10.22
50.197575,3.104303,33.07,0.37,0.24,10.98
50.19727,3.104326,33.18,-0.85,2.37,10.55
50.19727,3.104326,33.18,1.12,0.98,9.05
50.196974,3.104349,33.21,-0.46,1.53,10.88
50.196974,3.104349,33.21,0.13,0.3,9.28
50.196672,3.104369,33.19,-0.44,1.6,11.99
50.196672,3.104369,33.19,-0.21,2.42,8.0
50.196373,3.104386,33.21,-0.13,0.77,9.68
50.196373,3.104386,33.21,0.16,2.42,10.02
50.196076,3.104391,33.23,0.41,0.93,11.47
50.196076,3.104391,33.23,0.48,1.73,9.88
50.19578,3.104393,33.23,0.18,0.79,8.96
50.19578,3.104393,33.23,-0.74,0.94,6.99
50.195478,3.1044,33.31,-0.45,2.5,11.94
50.195478,3.1044,33.31,-0.13,1.03,8.0
50.195178,3.104398,33.31,0.36,0.94,12.94
50.195178,3.104398,33.31,0.44,1.16,10.25
50.194877,3.104401,33.42,-1.06,1.87,9.52
50.194877,3.104401,33.42,0.56,2.46,10.2
50.19458,3.104405,33.26,0.3,1.35,10.61
50.19458,3.104405,33.26,1.19,2.01,10.26
50.194284,3.104385,33.23,1.44,0.93,8.38
50.194284,3.104385,33.23,0.7,1.81,12.11
50.19399,3.104363,33.25,-0.31,0.56,8.83
50.19399,3.104363,33.25,-0.99,0.98,11.42
50.193696,3.10433,33.21,0.35,2.73,10.18
50.193696,3.10433,33.21,-1.43,2.11,8.81
50.193402,3.104292,33.16,-0.63,2.48,9.41
50.193402,3.104292,33.16,0.3,1.57,8.95
50.193108,3.104249,33.17,1.48,0.57,12.19
50.193108,3.104249,33.17,-0.58,1.27,10.07
50.192815,3.104208,33.2,0.67,1.13,8.88
50.192815,3.104208,33.2,-0.8,1.74,10.28
50.192522,3.104159,33.08,0.17,0.66,7.96
50.192522,3.104159,33.08,-0.33,1.26,12.19
50.192225,3.10411,32.97,-1.42,2.37,10.92
50.192225,3.10411,32.97,0.02,1.01,9.97
50.191928,3.104066,33.0,-0.7,1.67,9.59
50.191928,3.104066,33.0,-0.01,1.09,11.12
50.191634,3.104009,32.92,-1.36,1.24,7.66
50.191339,3.103939,32.82,-0.45,1.36,9.17
50.191339,3.103939,32.82,0.17,0.5,10.55
50.19105,3.103877,32.75,-0.17,1.64,12.12
50.19105,3.103877,32.75,1.3,1.43,11.03
50.190757,3.103801,32.73,-0.71,1.87,8.76
50.190757,3.103801,32.73,-0.86,1.23,10.79
50.190467,3.103723,32.57,-1.14,2.23,10.03
50.190467,3.103723,32.57,-0.72,1.33,10.81
50.190178,3.103642,32.62,-1.41,1.42,10.2
50.190178,3.103642,32.62,-0.57,1.51,10.5
50.189888,3.103571,32.52,-1.01,1.05,11.0
50.189888,3.103571,32.52,0.95,2.12,11.45
50.189597,3.103499,32.47,-0.19,1.97,10.05
50.189597,3.103499,32.47,-0.43,1.48,9.83
50.189306,3.103428,32.4,0.78,0.92,11.52
50.189306,3.103428,32.4,0.95,1.8,10.66
50.189018,3.103359,32.34,-1.65,1.48,11.25
50.189018,3.103359,32.34,-1.71,1.67,8.85
50.188732,3.103282,32.26,-1.74,1.76,9.71
50.188732,3.103282,32.26,-0.72,1.84,9.7
50.188447,3.103211,32.17,-1.19,1.43,9.45
50.188447,3.103211,32.17,-0.11,1.27,8.54
50.188159,3.103139,32.12,0.21,1.31,8.5
50.188159,3.103139,32.12,1.07,0.95,9.05
50.187872,3.103071,32.12,-0.22,1.73,10.21
50.187872,3.103071,32.12,1.03,0.86,9.58
50.187587,3.103001,32.01,-0.79,1.21,11.31
50.187587,3.103001,32.01,-1.13,2.05,9.12
50.187302,3.102932,32.05,-0.19,1.77,11.05
50.187302,3.102932,32.05,-0.16,2.21,9.38
50.187014,3.102862,32.03,0.56,2.55,10.2
50.187014,3.102862,32.03,0.44,1.18,10.32
50.18673,3.102793,31.95,-1.14,2.49,10.21
50.18673,3.102793,31.95,-0.62,1.34,9.82
50.186448,3.102724,31.93,0.17,1.68,7.82
50.186448,3.102724,31.93,-1.41,1.53,8.71
50.186166,3.102652,31.38,-1.3,1.52,10.2
50.186166,3.102652,31.38,-1.52,1.11,9.12
50.185885,3.102584,31.21,-1.65,0.99,10.21
50.185885,3.102584,31.21,-0.51,1.8,8.15
50.18561,3.102509,31.12,-0.06,1.52,11.55
50.185336,3.102431,31.02,-2.3,1.32,9.7
50.185336,3.102431,31.02,0.82,1.82,11.08
50.185065,3.102361,30.99,-0.68,1.36,9.92
50.185065,3.102361,30.99,-0.95,2.35,9.44
50.18479,3.102292,30.96,0.47,1.13,11.37
50.18479,3.102292,30.96,0.3,1.29,10.05
50.184517,3.102226,31.02,0.45,2.03,10.12
50.184517,3.102226,31.02,-1.56,1.28,9.03
50.184238,3.102168,31.09,-0.09,2.02,9.6
50.184238,3.102168,31.09,-0.65,1.47,9.33
50.183955,3.102101,31.19,-0.38,1.74,7.15
50.183955,3.102101,31.19,1.0,1.21,10.02
50.183679,3.102029,31.23,-0.92,1.55,9.97
50.183679,3.102029,31.23,-1.28,1.31,10.16
50.183404,3.101959,31.34,1.49,2.25,11.74
50.183404,3.101959,31.34,1.3,1.69,11.72
50.183124,3.101895,31.38,0.96,1.8,8.71
50.183124,3.101895,31.38,1.46,0.91,9.96
50.182841,3.101828,31.43,-0.07,1.87,9.7
50.182841,3.101828,31.43,-1.3,1.63,9.62
50.182558,3.101765,31.43,-0.83,1.56,11.57
50.182558,3.101765,31.43,-2.08,2.45,10.55
50.182278,3.101699,31.44,-1.12,1.58,10.37
50.182278,3.101699,31.44,-2.32,1.72,9.31
50.182001,3.101634,31.47,-0.33,1.13,10.86
50.182001,3.101634,31.47,-1.39,1.5,9.82
50.181722,3.101569,31.6,-0.41,1.41,7.98
50.181722,3.101569,31.6,-0.88,1.44,8.64
50.181439,3.10151,31.66,-0.13,1.7,8.33
50.181439,3.10151,31.66,-1.0,2.27,8.36
50.181158,3.101443,31.69,-0.43,1.28,10.74
50.181158,3.101443,31.69,-0.03,1.7,12.0
50.180877,3.101388,31.67,-0.68,2.05,8.61
50.180877,3.101388,31.67,-1.05,1.86,9.03
50.180591,3.101341,31.78,-0.38,2.93,6.42
50.180591,3.101341,31.78,0.09,1.92,8.07
50.180306,3.101286,31.85,-2.18,1.39,9.2
50.180306,3.101286,31.85,-1.58,1.81,9.77
50.180028,3.101222,31.93,-0.71,1.57,8.11
50.180028,3.101222,31.93,-1.45,1.89,9.58
50.17974,3.101177,32.05,-0.45,1.5,9.43
50.179446,3.101136,32.15,0.19,1.55,9.98
50.179446,3.101136,32.15,0.18,1.36,9.21
50.179156,3.101092,32.16,-1.23,0.97,7.74
50.179156,3.101092,32.16,0.14,1.27,7.28
50.178872,3.101043,32.07,0.31,1.41,9.24
50.178872,3.101043,32.07,-0.82,1.9,10.27
50.178582,3.101006,32.27,-0.91,2.54,11.74
50.178582,3.101006,32.27,-1.24,2.51,7.85
50.178299,3.10097,32.41,-1.39,1.86,9.32
50.178299,3.10097,32.41,0.67,1.45,9.79
50.178007,3.100941,32.3,0.31,1.92,9.37
50.178007,3.100941,32.3,-1.8,1.42,10.47
50.177716,3.100915,32.39,0.83,1.74,10.89
50.177716,3.100915,32.39,-1.26,2.46,10.56
50.177428,3.100886,32.33,-0.05,1.34,10.34
50.177428,3.100886,32.33,-1.08,1.82,8.98
50.177138,3.100858,32.3,0.35,1.0,9.23
50.177138,3.100858,32.3,-0.59,1.8,10.96
50.176846,3.100838,32.46,-0.75,1.92,11.09
50.176846,3.100838,32.46,-1.66,2.27,12.12
50.176557,3.100815,32.41,-1.23,1.24,7.76
50.176557,3.100815,32.41,-0.55,1.06,7.83
50.176264,3.100801,32.45,-0.86,1.3,8.8
50.176264,3.100801,32.45,-0.41,0.81,11.06
50.175967,3.100794,32.5,-0.42,2.24,10.8
50.175967,3.100794,32.5,-0.79,1.02,9.5
50.175677,3.100784,32.4,-0.83,1.46,10.28
50.175677,3.100784,32.4,-0.24,1.6,9.2
50.175383,3.10078,32.41,-2.06,1.69,9.8
50.175383,3.10078,32.41,-0.95,1.79,12.08
50.175091,3.10078,32.37,-0.52,1.81,10.98
50.175091,3.10078,32.37,0.09,1.84,9.59
50.174801,3.10078,32.43,-0.88,1.87,10.67
50.174801,3.10078,32.43,0.14,1.8,10.07
50.174513,3.100789,32.44,-0.92,1.36,12.81
50.174513,3.100789,32.44,-1.52,1.55,10.08
50.174221,3.100799,32.47,-0.75,1.48,10.9
50.174221,3.100799,32.47,-1.0,1.25,8.64
50.173929,3.100808,32.46,-0.36,1.29,9.22
50.173929,3.100808,32.46,0.55,1.07,9.83
50.173642,3.100824,32.44,0.47,1.49,11.65
50.173642,3.100824,32.44,-2.38,1.9,9.16
50.173355,3.100838,32.48,-0.25,1.65,9.59
50.173063,3.100865,32.44,-1.04,2.11,9.41
50.173063,3.100865,32.44,-0.63,1.24,10.76
50.17277,3.100897,32.52,0.71,1.66,12.79
50.17277,3.100897,32.52,-1.0,2.4,10.02
50.172473,3.100932,32.64,-0.07,2.08,8.26
50.172473,3.100932,32.64,-1.1,1.32,8.68
50.172174,3.100976,32.75,0.18,2.2,10.13
50.172174,3.100976,32.75,-1.83,2.34,9.64
50.171876,3.101016,32.86,-1.86,1.47,7.92
50.171876,3.101016,32.86,-0.14,1.82,9.2
50.171579,3.101057,32.97,-2.56,2.71,8.51
50.171579,3.101057,32.97,-1.5,0.74,8.5
50.171287,3.101101,33.11,-0.37,1.2,10.52
50.171287,3.101101,33.11,-2.35,2.57,8.47
50.170989,3.101149,33.09,-1.4,1.35,9.55
50.170989,3.101149,33.09,0.1,1.74,11.94
50.170694,3.101205,33.16,0.39,1.58,8.93
50.170694,3.101205,33.16,0.61,1.8,9.66
50.170401,3.101271,33.16,-0.88,1.98,8.81
50.170401,3.101271,33.16,-1.49,1.18,9.41
50.170108,3.101332,33.2,-0.73,2.17,12.45
50.170108,3.101332,33.2,-0.59,2.22,10.33
50.169818,3.101407,33.25,-0.32,1.96,9.76
50.169818,3.101407,33.25,-1.16,2.27,9.18
50.169524,3.101488,33.22,1.0,1.37,8.75
50.169524,3.101488,33.22,-0.44,1.99,10.72
50.169226,3.101561,33.2,-0.37,1.1,9.73
50.169226,3.101561,33.2,-0.4,1.53,7.73
50.168928,3.101626,33.15,-2.31,2.2,11.14
50.168928,3.101626,33.15,-1.88,1.0,8.67
50.168633,3.101706,33.1,-1.09,2.42,9.83
50.168633,3.101706,33.1,-1.74,1.49,9.01
50.168341,3.101803,33.09,-0.42,1.05,8.8
50.168341,3.101803,33.09,-0.78,2.13,11.36
50.168048,3.101902,33.13,-1.02,1.24,10.07
50.168048,3.101902,33.13,-1.7,2.0,10.1
50.167757,3.102003,33.18,0.18,0.76,8.17
50.167757,3.102003,33.18,-2.01,1.25,7.63
50.167462,3.102102,33.39,-3.14,2.63,9.73
50.167462,3.102102,33.39,0.38,0.92,9.01
50.167167,3.102203,33.5,-0.85,2.96,10.02
50.167167,3.102203,33.5,-0.24,1.04,10.0
50.166875,3.102317,33.59,-1.54,1.85,11.47
50.166875,3.102317,33.59,-1.57,1.03,8.95
50.166582,3.102434,33.54,-1.48,2.57,10.17
50.166582,3.102434,33.54,-1.47,1.73,9.29
50.166286,3.102549,33.55,0.34,2.49,10.5
50.165993,3.102667,33.61,1.78,1.32,9.62
50.165993,3.102667,33.61,-0.26,3.1,10.51
50.165705,3.102797,33.6,0.71,0.69,5.9
50.165705,3.102797,33.6,-0.49,0.29,10.52
50.165422,3.102925,33.61,-0.92,1.44,12.32
50.165422,3.102925,33.61,0.0,0.97,9.45
50.16514,3.103057,33.72,-1.41,2.28,9.88
50.16514,3.103057,33.72,-0.73,0.24,8.95
50.164851,3.103199,33.78,-2.54,1.72,10.08
50.164851,3.103199,33.78,0.48,0.67,9.05
50.164563,3.103345,33.86,-1.82,2.5,10.86
50.164563,3.103345,33.86,0.39,1.3,11.88
50.164278,3.103491,33.97,-1.99,0.54,9.79
50.164278,3.103491,33.97,-2.11,1.68,10.61
50.163989,3.103646,34.13,-0.23,1.14,9.47
50.163989,3.103646,34.13,-1.69,0.77,10.2
50.163702,3.1038,34.27,-2.4,1.86,8.09
50.163702,3.1038,34.27,-0.51,1.49,11.43
50.163414,3.103954,34.42,-0.13,1.34,10.31
50.163414,3.103954,34.42,0.36,0.83,8.57
50.163123,3.104112,34.6,-0.86,2.67,10.0
50.163123,3.104112,34.6,-0.7,2.41,10.01
50.162833,3.104275,34.83,0.26,1.8,8.08
50.162833,3.104275,34.83,-2.16,1.04,11.81
50.162538,3.10444,34.96,-2.27,0.99,9.51
50.162538,3.10444,34.96,-1.72,0.05,9.05
50.162245,3.104618,34.42,0.51,-0.04,11.12
50.162245,3.104618,34.42,-1.2,0.8,7.8
50.161963,3.104791,33.78,-1.28,-0.55,10.52
50.161963,3.104791,33.78,-0.23,1.61,9.58
50.161685,3.104966,33.18,-1.78,1.15,10.04
50.161685,3.104966,33.18,-1.36,0.37,11.36
50.161412,3.105141,32.54,-0.67,1.22,10.13
50.161412,3.105141,32.54,-0.25,0.21,11.58
50.161146,3.105316,32.03,-0.36,1.69,10.94
50.161146,3.105316,32.03,-1.58,1.03,10.34
50.160881,3.10549,31.68,-0.04,0.86,10.98
50.160881,3.10549,31.68,-0.44,1.09,12.32
50.160627,3.105667,31.51,-0.33,1.73,11.61
50.160371,3.105853,31.7,0.17,1.13,10.08
50.160371,3.105853,31.7,0.4,1.28,10.82
50.160118,3.106049,31.89,0.54,0.72,9.64
50.160118,3.106049,31.89,-1.72,1.71,10.07
50.15986,3.106241,32.19,0.61,1.02,9.91
50.15986,3.106241,32.19,-1.02,2.27,10.58
50.159591,3.106426,32.29,0.79,1.24,10.64
50.159591,3.106426,32.29,-2.42,1.61,11.06
50.159325,3.106625,32.45,-1.03,1.34,9.41
50.159325,3.106625,32.45,-0.32,0.99,10.74
50.159072,3.106831,32.52,-1.53,0.96,10.78
50.159072,3.106831,32.52,-1.0,1.22,10.51
50.158812,3.107049,32.56,-0.66,0.81,12.03
50.158812,3.107049,32.56,-1.18,1.9,9.91
50.158551,3.107264,32.62,-0.26,1.38,8.54
50.158551,3.107264,32.62,-0.98,1.44,9.53
50.15829,3.107484,32.65,0.33,1.38,10.46
50.15829,3.107484,32.65,-0.73,2.48,9.33
50.158035,3.107706,32.75,-0.05,1.84,9.59
50.158035,3.107706,32.75,-1.08,0.78,8.92
50.157778,3.107932,32.83,-1.37,1.89,10.58
50.157778,3.107932,32.83,-0.76,2.1,9.04
50.157519,3.108162,32.95,-1.2,1.69,9.13
50.157519,3.108162,32.95,-0.73,0.88,12.16
50.157255,3.10839,33.02,-0.58,2.56,9.79
50.157255,3.10839,33.02,-0.96,1.27,9.55
50.15699,3.108616,33.03,-1.07,1.22,10.84
50.15699,3.108616,33.03,1.01,0.35,9.69
50.156729,3.10885,33.06,-0.23,1.75,8.67
50.156729,3.10885,33.06,-1.77,1.7,11.07
50.156469,3.109088,33.12,-1.41,0.88,8.36
50.156469,3.109088,33.12,0.35,1.86,10.22
50.156215,3.109331,33.26,-0.02,2.08,13.99
50.156215,3.109331,33.26,0.68,1.33,12.17
50.155957,3.109582,33.33,-1.33,1.13,12.67
50.155957,3.109582,33.33,-1.52,0.91,8.55
50.155705,3.109827,33.35,-0.92,2.6,9.8
50.155705,3.109827,33.35,-0.56,1.11,9.63
50.15547,3.110092,33.42,-1.75,1.27,10.11
50.15547,3.110092,33.42,-1.05,1.09,9.48
50.155227,3.110352,33.39,-0.05,1.65,10.21
50.155227,3.110352,33.39,0.17,1.6,9.02
50.154986,3.110623,33.33,0.18,0.79,10.7
50.154742,3.110894,33.34,-1.75,1.65,10.53
50.154742,3.110894,33.34,-1.3,1.48,9.73
50.154499,3.111165,33.22,-0.34,1.79,9.72
50.154499,3.111165,33.22,-0.94,1.63,8.7
50.154255,3.111428,33.07,1.07,0.86,11.2
50.154255,3.111428,33.07,-1.65,2.28,9.19
50.154015,3.111702,32.95,-0.34,1.39,10.12
50.154015,3.111702,32.95,0.98,1.31,11.06
50.153769,3.111964,32.94,-1.33,1.93,9.67
50.153769,3.111964,32.94,-0.85,1.06,9.78
50.153528,3.112238,32.87,1.18,0.95,9.62
50.153528,3.112238,32.87,-1.44,2.81,8.62
50.153296,3.112518,32.77,-1.69,1.42,10.53
50.153296,3.112518,32.77,-2.19,1.24,8.1
50.153058,3.112798,32.73,0.01,1.02,12.21
50.153058,3.112798,32.73,-2.02,2.0,9.78
50.152826,3.113083,32.71,-0.09,1.65,9.31
50.152826,3.113083,32.71,-0.79,1.45,10.3
50.152593,3.113366,32.69,-0.95,1.7,11.09
50.152593,3.113366,32.69,-2.49,2.11,11.39
50.152363,3.113651,32.62,-0.54,1.09,9.81
50.152363,3.113651,32.62,-0.04,1.27,9.8
50.15214,3.113941,32.55,-1.31,1.43,8.83
50.15214,3.113941,32.55,-1.17,1.89,9.54
50.151918,3.114238,32.56,0.45,1.53,9.56
50.151918,3.114238,32.56,-0.23,1.92,9.27
50.151699,3.114534,32.54,-1.07,1.37,9.05
50.151699,3.114534,32.54,-1.76,1.38,10.36
50.151479,3.114833,32.46,-0.29,1.47,11.29
50.151479,3.114833,32.46,-0.87,1.6,9.04
50.151262,3.115135,32.54,-1.08,1.35,8.75
50.151262,3.115135,32.54,1.29,1.07,11.19
50.151043,3.115447,32.55,0.6,0.85,11.6
50.151043,3.115447,32.55,-1.54,2.56,10.67
50.150829,3.115752,32.55,-0.06,1.08,8.81
50.150829,3.115752,32.55,-1.17,1.85,9.18
50.150613,3.116068,32.59,-0.25,0.92,8.01
50.150613,3.116068,32.59,-0.85,2.53,10.05
50.150404,3.116378,32.67,-1.11,2.08,8.17
50.150404,3.116378,32.67,-0.52,1.46,10.05
50.150197,3.116686,32.68,1.54,1.12,10.09
50.150197,3.116686,32.68,-0.49,1.14,10.65
50.149987,3.117002,32.77,-1.98,2.21,10.04
50.149781,3.117321,32.73,0.96,1.04,9.39
50.149781,3.117321,32.73,-1.27,1.44,9.04
50.149572,3.117648,32.69,-1.52,1.7,8.93
50.149572,3.117648,32.69,-2.45,1.79,8.31
50.149368,3.117971,32.63,-0.44,0.58,8.43
50.149368,3.117971,32.63,0.42,1.47,8.94
50.149163,3.118301,32.6,-0.09,1.83,10.42
50.149163,3.118301,32.6,-1.82,1.41,9.96
50.148956,3.118636,32.56,-0.27,2.06,8.98
50.148956,3.118636,32.56,-1.22,1.43,8.68
50.14875,3.118965,32.71,-1.03,1.25,9.64
50.14875,3.118965,32.71,-1.0,1.59,10.85
50.148548,3.119295,32.76,-0.54,1.19,10.9
50.148548,3.119295,32.76,-0.79,0.43,9.1
50.148347,3.119626,32.8,0.62,0.48,11.0
50.148347,3.119626,32.8,-1.35,2.79,9.23
50.14815,3.119969,32.87,-0.22,0.9,9.17
50.14815,3.119969,32.87,0.85,1.02,9.53
50.147958,3.120306,32.99,-1.11,2.98,10.22
50.147958,3.120306,32.99,-1.11,1.06,9.97
50.147755,3.120647,33.08,-1.02,0.93,10.17
50.147755,3.120647,33.08,-1.21,2.68,8.98
50.147558,3.120993,33.15,-0.16,0.96,10.22
50.147558,3.120993,33.15,-1.14,1.23,9.75
50.147363,3.121351,33.32,-0.48,1.39,9.37
50.147363,3.121351,33.32,0.11,2.52,8.33
50.147173,3.121706,33.37,-0.38,0.85,8.72
50.147173,3.121706,33.37,-0.44,0.95,12.09
50.14698,3.122064,33.42,-0.45,1.06,8.8
50.14698,3.122064,33.42,-2.15,1.14,10.19
50.146789,3.122413,33.42,-0.24,1.98,9.51
50.146789,3.122413,33.42,1.7,1.03,9.65
50.146596,3.122774,33.34,-0.07,1.0,8.44
50.146596,3.122774,33.34,-0.77,0.46,7.82
50.146408,3.123128,33.27,-1.34,2.05,11.39
50.146408,3.123128,33.27,-1.0,0.91,9.5
50.146215,3.123484,33.19,0.23,0.01,11.48
50.146215,3.123484,33.19,0.6,0.23,8.69
50.14602,3.123843,33.15,-0.34,1.0,11.67
