Location-lat,Location-long,Speed,Accelerometer-X,Accelerometer-Y,Accelerometer-Z
49.244851, 4.063194, 0.00, 0.16, 2.35, 9.60
49.244851, 4.063194, 0.00, 0.14, 2.32, 9.57
49.244851, 4.063194, 0.00, 0.16, 2.29, 9.59
49.244851, 4.063194, 0.00, 0.15, 2.31, 9.60
49.244851, 4.063194, 0.00, 0.16, 2.33, 9.56
49.244851, 4.063194, 0.00, 0.21, 2.33, 9.52
49.244851, 4.063194, 0.00, 0.14, 2.32, 9.56
49.244851, 4.063194, 0.00, 0.23, 2.32, 9.64
49.244851, 4.063194, 0.00, 0.15, 2.31, 9.52
49.244851, 4.063194, 0.00, 0.13, 2.30, 9.50
49.244851, 4.063194, 0.00, 0.19, 2.35, 9.55
49.244897, 4.063140, 0.19, 0.19, 2.28, 9.58
49.244897, 4.063140, 0.19, 0.14, 2.33, 9.62
49.244896, 4.063137, 0.03, 0.28, 2.40, 9.37
49.244896, 4.063137, 0.03, 0.16, 2.26, 9.58
49.244897, 4.063153, 0.03, 0.18, 2.35, 9.50
49.244897, 4.063153, 0.03, 0.13, 2.38, 9.51
49.244894, 4.063167, 0.00, 0.23, 2.30, 9.51
49.244894, 4.063167, 0.00, 0.12, 2.23, 9.61
49.244890, 4.063173, 0.00, 0.07, 2.04, 9.59
49.244890, 4.063173, 0.00, 0.10, 2.41, 9.52
49.244888, 4.063175, 0.00, 0.21, 2.32, 9.53
49.244888, 4.063175, 0.00, 0.13, 2.33, 9.56
49.244891, 4.063184, 0.00, 0.19, 2.32, 9.59
49.244891, 4.063184, 0.00, 0.16, 2.36, 9.59
49.244889, 4.063183, 0.00, 0.17, 2.29, 9.53
49.244889, 4.063183, 0.00, 0.19, 2.34, 9.55
49.244886, 4.063183, 0.00, 0.18, 2.36, 9.56
49.244886, 4.063183, 0.00, 0.16, 2.33, 9.56
49.244883, 4.063185, 0.00, 0.20, 2.33, 9.57
49.244883, 4.063185, 0.00, 0.15, 2.32, 9.55
49.244880, 4.063185, 0.00, 0.23, 2.44, 9.58
49.244880, 4.063185, 0.00, 0.19, 2.31, 9.54
49.244879, 4.063185, 0.00, 0.15, 2.31, 9.59
49.244879, 4.063185, 0.00, 0.15, 2.35, 9.55
49.244877, 4.063186, 0.00, 0.22, 2.38, 9.50
49.244877, 4.063186, 0.00, 0.19, 2.36, 9.58
49.244878, 4.063181, 0.00, 0.17, 2.37, 9.59
49.244878, 4.063181, 0.00, 0.15, 2.34, 9.53
49.244875, 4.063181, 0.00, 0.14, 2.30, 9.52
49.244875, 4.063181, 0.00, 0.21, 2.35, 9.58
49.244872, 4.063181, 0.00, 0.14, 2.38, 9.55
49.244872, 4.063181, 0.00, 0.21, 2.33, 9.53
49.244870, 4.063182, 0.00, 0.23, 2.38, 9.63
49.244870, 4.063182, 0.00, 0.23, 2.42, 9.61
49.244869, 4.063184, 0.00, 0.04, 2.61, 9.48
49.244869, 4.063184, 0.00, 0.23, 2.38, 9.50
49.244868, 4.063184, 0.00, 0.16, 2.35, 9.58
49.244868, 4.063184, 0.00, 0.20, 2.35, 9.56
49.244867, 4.063186, 0.00, 0.18, 2.31, 9.56
49.244867, 4.063186, 0.00, 0.16, 2.33, 9.57
49.244865, 4.063185, 0.00, 0.18, 2.35, 9.52
49.244865, 4.063185, 0.00, 0.18, 2.32, 9.57
49.244864, 4.063184, 0.00, 0.18, 2.33, 9.59
49.244864, 4.063184, 0.00, 0.15, 2.36, 9.54
49.244864, 4.063183, 0.00, 0.16, 2.53, 9.47
49.244864, 4.063183, 0.00, 0.10, 3.01, 9.48
49.244863, 4.063183, 0.00, 0.04, 2.90, 9.39
49.244863, 4.063183, 0.00, -0.11, 2.70, 9.36
49.244863, 4.063183, 0.00, -0.32, 2.73, 9.44
49.244863, 4.063183, 0.00, -0.58, 2.36, 9.65
49.244870, 4.063194, 0.00, -1.03, 2.00, 9.36
49.244879, 4.063217, 0.00, -1.28, 2.22, 9.22
49.244879, 4.063217, 0.00, -1.21, 2.28, 9.75
49.244891, 4.063235, 0.00, -1.47, 2.27, 9.50
49.244891, 4.063235, 0.00, -0.90, 2.38, 9.38
49.244914, 4.063243, 0.00, -1.04, 2.19, 9.67
49.244914, 4.063243, 0.00, -0.50, 1.33, 7.95
49.244944, 4.063248, 0.00, -0.44, 2.47, 10.04
49.244944, 4.063248, 0.00, -0.87, 2.51, 8.25
49.244982, 4.063248, 0.00, -0.06, 1.75, 9.84
49.244982, 4.063248, 0.00, -0.26, 1.12, 8.60
49.245024, 4.063247, 0.00, -0.43, 1.75, 8.94
49.245024, 4.063247, 0.00, -0.10, 1.63, 8.93
49.245065, 4.063244, 4.68, -0.98, 1.13, 10.02
49.245065, 4.063244, 4.68, -0.91, 1.25, 9.73
49.245105, 4.063239, 4.67, -0.92, 1.47, 9.78
49.245105, 4.063239, 4.67, -0.93, 2.09, 9.81
49.245145, 4.063228, 4.66, -1.34, 2.27, 7.91
49.245145, 4.063228, 4.66, -1.26, 2.85, 9.54
49.245185, 4.063212, 4.69, -0.69, 3.08, 10.11
49.245185, 4.063212, 4.69, 0.43, 1.90, 9.89
49.245237, 4.063175, 4.80, -0.03, 2.07, 10.28
49.245237, 4.063175, 4.80, -0.19, 0.42, 9.59
49.245304, 4.063140, 5.00, -0.54, 1.39, 10.13
49.245304, 4.063140, 5.00, 0.17, 0.48, 8.80
49.245375, 4.063119, 7.40, -0.19, 0.66, 9.76
49.245375, 4.063119, 7.40, -0.18, 0.44, 9.92
49.245445, 4.063101, 7.21, -0.80, 1.65, 10.26
49.245445, 4.063101, 7.21, -0.11, 1.59, 9.37
49.245513, 4.063092, 7.28, -0.94, -0.08, 9.48
49.245513, 4.063092, 7.28, 0.42, 0.45, 9.81
49.245582, 4.063084, 6.83, -0.24, 0.50, 9.39
49.245582, 4.063084, 6.83, 0.05, 0.64, 10.36
49.245646, 4.063082, 6.39, -0.39, 0.64, 8.89
49.245646, 4.063082, 6.39, 0.11, 0.97, 8.87
49.245702, 4.063083, 5.95, -0.16, 1.47, 11.09
49.245702, 4.063083, 5.95, -1.75, 0.96, 9.64
49.245754, 4.063090, 5.99, -2.02, 1.24, 9.26
49.245754, 4.063090, 5.99, -2.32, 1.16, 10.30
49.245805, 4.063094, 5.61, -1.58, 1.54, 9.56
49.245805, 4.063094, 5.61, -1.81, 1.38, 13.24
49.245861, 4.063086, 6.67, -2.06, 1.79, 9.86
49.245920, 4.063056, 6.81, -1.92, 1.81, 7.93
49.245920, 4.063056, 6.81, -2.02, 1.88, 10.77
49.245975, 4.063006, 7.37, -0.93, 1.94, 10.65
49.245975, 4.063006, 7.37, -1.00, 1.53, 9.78
49.246029, 4.062944, 8.04, -0.55, 0.93, 10.24
49.246029, 4.062944, 8.04, -1.34, 0.33, 9.32
49.246084, 4.062872, 7.83, -0.87, 0.85, 9.86
49.246084, 4.062872, 7.83, -0.48, 0.03, 10.88
49.246134, 4.062802, 7.28, -0.19, 0.37, 9.29
49.246134, 4.062802, 7.28, -0.58, 0.40, 10.18
49.246180, 4.062737, 6.82, -0.98, 0.55, 10.50
49.246180, 4.062737, 6.82, -1.68, -0.16, 9.80
49.246224, 4.062677, 6.32, -1.78, 0.82, 7.91
49.246224, 4.062677, 6.32, -0.79, 0.19, 10.23
49.246264, 4.062620, 5.79, -0.82, 0.91, 11.15
49.246264, 4.062620, 5.79, -0.43, 0.96, 10.13
49.246304, 4.062570, 5.76, -0.79, 1.47, 9.50
49.246304, 4.062570, 5.76, -0.61, 0.59, 10.45
49.246341, 4.062513, 5.54, -1.04, 0.38, 10.49
49.246341, 4.062513, 5.54, -0.65, -0.67, 9.02
49.246375, 4.062458, 4.97, -0.10, -0.52, 9.30
49.246375, 4.062458, 4.97, -0.65, -0.14, 9.66
49.246402, 4.062411, 3.63, -0.55, -0.24, 9.98
49.246402, 4.062411, 3.63, -0.14, -0.64, 10.58
49.246419, 4.062374, 2.26, -0.78, -0.69, 9.77
49.246419, 4.062374, 2.26, -0.51, -0.68, 9.94
49.246419, 4.062374, 0.00, -0.40, 1.69, 9.40
49.246419, 4.062374, 0.00, -0.32, 1.24, 9.79
49.246419, 4.062374, 0.00, -0.25, 0.91, 9.76
49.246419, 4.062374, 0.00, -0.52, 1.02, 9.77
49.246419, 4.062374, 0.00, -0.58, 1.12, 9.78
49.246419, 4.062374, 0.00, -0.56, 1.10, 9.79
49.246419, 4.062374, 0.00, -0.43, 1.25, 9.89
49.246419, 4.062374, 0.00, -0.26, 1.23, 9.89
49.246419, 4.062374, 0.00, -0.19, 1.06, 9.81
49.246419, 4.062374, 0.00, -0.50, 1.52, 9.62
49.246419, 4.062374, 0.00, -0.45, 2.15, 9.68
49.246419, 4.062374, 0.00, -0.43, 2.38, 9.39
49.246419, 4.062374, 0.00, -0.32, 1.66, 10.02
49.246419, 4.062374, 0.00, -0.59, 1.94, 9.41
49.246430, 4.062342, 1.40, -0.62, 1.58, 10.59
49.246436, 4.062314, 1.74, -0.42, 0.09, 9.41
49.246436, 4.062314, 1.74, -0.80, -0.16, 10.01
49.246444, 4.062298, 0.81, -0.71, 0.69, 9.82
49.246444, 4.062298, 0.81, -0.60, 0.83, 10.06
49.246444, 4.062298, 0.00, -0.68, 0.70, 9.53
49.246444, 4.062298, 0.00, -0.69, 0.68, 10.02
49.246444, 4.062298, 0.00, -0.39, 0.68, 9.86
49.246444, 4.062298, 0.00, -0.69, 1.78, 9.50
49.246444, 4.062298, 0.00, -0.70, 1.89, 9.66
49.246444, 4.062298, 0.00, -0.75, 1.24, 9.81
49.246451, 4.062266, 0.85, -0.55, 1.42, 9.72
49.246451, 4.062266, 0.85, -0.71, 2.07, 9.66
49.246460, 4.062254, 1.57, -0.56, 1.56, 9.02
49.246460, 4.062254, 1.57, -0.60, 1.42, 9.09
49.246474, 4.062237, 1.92, -0.87, 0.23, 10.14
49.246474, 4.062237, 1.92, -0.77, 0.17, 9.62
49.246489, 4.062221, 1.14, -0.71, 0.30, 9.61
49.246489, 4.062221, 1.14, -0.69, 0.69, 9.78
49.246489, 4.062221, 0.00, -0.55, 0.51, 9.61
49.246489, 4.062221, 0.00, -0.62, 0.96, 9.63
49.246489, 4.062221, 0.00, -0.83, 1.11, 9.71
49.246489, 4.062221, 0.00, -0.62, 1.24, 9.81
49.246489, 4.062221, 0.00, -0.40, 1.94, 9.73
49.246489, 4.062221, 0.00, -0.53, 2.58, 9.56
49.246489, 4.062221, 0.00, -0.40, 2.54, 9.99
49.246489, 4.062221, 0.00, -0.11, 2.64, 9.56
49.246504, 4.062202, 1.41, -0.03, 3.02, 10.24
49.246504, 4.062202, 1.41, -0.34, 2.73, 9.77
49.246525, 4.062181, 3.50, -0.92, 2.53, 10.14
49.246525, 4.062181, 3.50, -2.15, 1.69, 9.06
49.246564, 4.062166, 4.38, -2.86, 1.51, 10.39
49.246564, 4.062166, 4.38, -3.24, 1.54, 10.00
49.246607, 4.062147, 4.87, -2.65, 1.16, 9.99
49.246607, 4.062147, 4.87, -4.06, 0.82, 10.37
49.246647, 4.062115, 5.09, -3.16, 0.98, 8.54
49.246647, 4.062115, 5.09, -3.73, 0.47, 9.73
49.246671, 4.062062, 4.52, -4.21, 1.17, 9.97
49.246671, 4.062062, 4.52, -3.19, 1.77, 9.47
49.246669, 4.061989, 5.00, -2.18, 0.79, 9.88
49.246669, 4.061989, 5.00, -1.56, 1.01, 9.58
49.246644, 4.061919, 5.31, -1.23, 1.28, 9.18
49.246644, 4.061919, 5.31, -0.29, 1.65, 9.84
49.246596, 4.061877, 5.03, 0.18, 2.34, 10.65
49.246550, 4.061832, 5.45, -0.30, 1.99, 9.43
49.246550, 4.061832, 5.45, 1.83, 3.76, 10.94
49.246504, 4.061781, 5.95, -0.14, 2.78, 12.55
49.246504, 4.061781, 5.95, 0.11, 2.92, 10.19
49.246463, 4.061702, 6.53, -0.35, 2.44, 9.79
49.246463, 4.061702, 6.53, -0.77, 2.63, 9.28
49.246429, 4.061608, 7.67, -0.86, 2.37, 10.37
49.246429, 4.061608, 7.67, -0.49, 2.51, 8.79
49.246392, 4.061502, 8.39, -0.42, 2.53, 9.21
49.246392, 4.061502, 8.39, -0.19, 2.04, 10.41
49.246350, 4.061382, 9.68, -1.18, 2.04, 10.20
49.246350, 4.061382, 9.68, -1.01, 2.36, 9.07
49.246305, 4.061246, 10.77, -1.18, 2.60, 9.50
49.246305, 4.061246, 10.77, 1.21, 1.65, 8.36
49.246258, 4.061103, 11.48, -0.71, 1.95, 10.29
49.246258, 4.061103, 11.48, 0.07, 1.83, 10.06
49.246210, 4.060951, 11.74, 0.26, 2.16, 9.30
49.246210, 4.060951, 11.74, 0.13, 2.29, 10.41
49.246164, 4.060790, 12.88, -0.37, 3.32, 8.74
49.246164, 4.060790, 12.88, 0.04, 2.59, 8.90
49.246120, 4.060616, 13.33, -0.83, 1.42, 9.10
49.246120, 4.060616, 13.33, -0.69, 2.16, 8.89
49.246083, 4.060432, 13.96, -1.20, 2.15, 11.34
49.246083, 4.060432, 13.96, -0.74, 1.50, 7.59
49.246051, 4.060239, 14.33, -0.26, 1.50, 9.50
49.246051, 4.060239, 14.33, -0.52, 0.45, 9.42
49.246022, 4.060045, 14.07, -0.90, 0.06, 9.53
49.246022, 4.060045, 14.07, 0.51, 0.83, 11.79
49.246002, 4.059856, 13.10, -0.57, 0.45, 10.00
49.246002, 4.059856, 13.10, -1.02, 0.34, 8.95
49.245987, 4.059677, 12.08, -0.71, 0.56, 9.67
49.245987, 4.059677, 12.08, -0.04, 0.24, 9.90
49.245975, 4.059515, 11.10, -0.55, -0.74, 9.62
49.245975, 4.059515, 11.10, -0.56, -0.32, 9.55
49.245967, 4.059374, 9.52, -0.32, -0.76, 10.32
49.245967, 4.059374, 9.52, -0.52, -0.30, 10.11
49.245962, 4.059259, 7.61, -1.15, 0.14, 9.52
49.245962, 4.059259, 7.61, -0.71, 0.56, 9.05
49.245958, 4.059169, 6.22, -0.57, 1.02, 9.52
49.245958, 4.059169, 6.22, -0.46, 0.68, 9.50
49.245955, 4.059091, 5.51, -0.75, 1.03, 9.73
49.245955, 4.059091, 5.51, -0.88, 1.71, 9.36
49.245953, 4.059022, 5.13, -0.93, 1.74, 9.55
49.245953, 4.059022, 5.13, -0.24, 1.94, 10.19
49.245949, 4.058947, 5.57, -0.84, 1.76, 9.69
49.245945, 4.058866, 5.89, -0.87, 1.91, 9.76
49.245945, 4.058866, 5.89, -0.77, 2.40, 8.77
49.245938, 4.058776, 6.53, -2.11, 1.92, 8.62
49.245938, 4.058776, 6.53, -1.54, 2.25, 10.16
49.245930, 4.058681, 7.12, -1.75, 2.55, 9.79
49.245930, 4.058681, 7.12, -0.99, 1.90, 10.23
49.245916, 4.058581, 7.74, -1.86, 1.78, 8.68
49.245916, 4.058581, 7.74, -1.91, 3.32, 8.61
49.245895, 4.058478, 8.45, -0.06, 2.30, 9.36
49.245895, 4.058478, 8.45, -0.89, 1.45, 10.40
49.245868, 4.058371, 8.61, -1.47, 2.17, 9.54
49.245868, 4.058371, 8.61, -0.81, 1.46, 8.61
49.245837, 4.058256, 9.02, -1.19, 1.43, 10.09
49.245837, 4.058256, 9.02, -0.90, 2.37, 8.65
49.245803, 4.058130, 9.60, -0.26, 1.81, 10.07
49.245803, 4.058130, 9.60, -0.69, 1.76, 9.98
49.245766, 4.058001, 10.55, -0.56, 1.72, 9.65
49.245766, 4.058001, 10.55, -0.45, 1.92, 8.83
49.245728, 4.057863, 10.47, -1.27, 1.27, 8.37
49.245728, 4.057863, 10.47, -0.15, 1.74, 9.28
49.245685, 4.057712, 11.46, -0.57, 1.27, 9.63
49.245685, 4.057712, 11.46, -0.45, 1.18, 9.16
49.245640, 4.057563, 11.65, 0.34, 0.28, 9.72
49.245640, 4.057563, 11.65, -0.65, 1.35, 10.21
49.245597, 4.057415, 11.15, -0.71, 0.95, 9.96
49.245597, 4.057415, 11.15, -0.87, 1.18, 9.88
49.245559, 4.057281, 10.54, -0.24, 1.36, 11.17
49.245559, 4.057281, 10.54, -1.08, 0.84, 10.24
49.245524, 4.057155, 9.99, -0.74, 0.91, 10.13
49.245524, 4.057155, 9.99, -0.59, 1.28, 10.04
49.245490, 4.057036, 9.54, -0.27, 1.69, 9.85
49.245490, 4.057036, 9.54, -0.84, 1.48, 9.62
49.245457, 4.056924, 8.80, -0.16, 1.49, 9.86
49.245457, 4.056924, 8.80, -0.76, 0.70, 9.73
49.245427, 4.056818, 8.60, -1.02, 1.37, 9.62
49.245427, 4.056818, 8.60, -0.70, 1.18, 10.29
49.245396, 4.056706, 8.31, -0.96, 0.73, 10.34
49.245396, 4.056706, 8.31, -0.79, 0.98, 9.73
49.245367, 4.056602, 7.98, -0.91, 1.39, 9.29
49.245367, 4.056602, 7.98, -1.97, -0.72, 6.21
49.245341, 4.056505, 7.41, -0.78, 0.82, 9.46
49.245315, 4.056413, 7.12, -0.33, 0.96, 7.37
49.245315, 4.056413, 7.12, -0.81, 0.85, 8.70
49.245291, 4.056330, 6.93, -0.35, 1.35, 9.59
49.245291, 4.056330, 6.93, -0.32, 1.14, 9.37
49.245270, 4.056250, 6.74, -0.54, 1.02, 10.23
49.245270, 4.056250, 6.74, -0.35, 1.32, 10.09
49.245247, 4.056169, 6.48, -0.86, 0.95, 9.65
49.245247, 4.056169, 6.48, -0.66, 0.92, 9.42
49.245224, 4.056088, 6.11, -0.72, 0.66, 10.53
49.245224, 4.056088, 6.11, 0.25, 0.20, 6.70
49.245202, 4.056016, 6.01, -0.16, 1.32, 9.66
49.245202, 4.056016, 6.01, -1.18, 0.52, 9.43
49.245181, 4.055946, 5.84, -0.91, 1.58, 9.16
49.245181, 4.055946, 5.84, -0.35, 1.34, 10.04
49.245160, 4.055874, 5.68, -0.92, 1.71, 9.13
49.245160, 4.055874, 5.68, -0.68, 1.69, 9.70
49.245139, 4.055800, 5.92, -0.74, 1.93, 9.19
49.245139, 4.055800, 5.92, -0.47, 1.75, 10.03
49.245115, 4.055719, 6.29, -0.18, 1.92, 8.59
49.245115, 4.055719, 6.29, -0.63, 1.46, 9.29
49.245092, 4.055633, 6.58, -0.67, 1.53, 10.27
49.245092, 4.055633, 6.58, -0.68, 1.09, 9.67
49.245067, 4.055547, 6.45, -0.72, 0.79, 9.97
49.245067, 4.055547, 6.45, -0.93, 0.98, 8.91
49.245044, 4.055463, 6.09, -0.62, 1.02, 9.91
49.245044, 4.055463, 6.09, -1.12, 1.17, 9.42
49.245022, 4.055386, 5.95, -0.61, 1.58, 9.03
49.245022, 4.055386, 5.95, 1.41, 0.92, 9.20
49.245002, 4.055303, 5.83, 2.18, 1.09, 10.32
49.245002, 4.055303, 5.83, 0.21, 0.87, 10.48
49.244983, 4.055232, 5.26, 0.73, 1.51, 8.82
49.244983, 4.055232, 5.26, 2.22, 2.15, 11.68
49.244984, 4.055155, 5.53, 0.82, 1.54, 11.97
49.244984, 4.055155, 5.53, -0.48, 1.63, 9.90
49.245008, 4.055077, 6.72, -0.43, 1.46, 9.22
49.245008, 4.055077, 6.72, -1.24, 0.97, 10.70
49.245055, 4.055003, 7.94, -1.53, 1.68, 8.71
49.245055, 4.055003, 7.94, -0.08, 1.74, 10.69
49.245108, 4.054917, 8.67, -0.91, 2.10, 8.70
49.245108, 4.054917, 8.67, -1.14, 0.84, 9.71
49.245167, 4.054819, 9.65, -1.46, 1.39, 6.15
49.245226, 4.054712, 10.47, -0.50, 0.00, 11.75
49.245226, 4.054712, 10.47, -1.19, 1.70, 6.71
49.245286, 4.054593, 11.24, -1.00, 0.72, 7.76
49.245286, 4.054593, 11.24, 0.47, 1.81, 11.83
49.245348, 4.054468, 11.51, -0.68, 0.37, 10.01
49.245348, 4.054468, 11.51, 0.32, 0.58, 11.85
49.245413, 4.054340, 11.96, -1.46, 2.28, 9.71
49.245413, 4.054340, 11.96, 0.57, 0.66, 10.88
49.245483, 4.054196, 12.54, 1.38, -0.22, 8.95
49.245483, 4.054196, 12.54, 0.81, 0.48, 8.03
49.245552, 4.054054, 12.98, 0.56, 0.79, 11.95
49.245552, 4.054054, 12.98, -1.81, 0.77, 9.38
49.245620, 4.053912, 12.98, -0.10, 1.02, 8.26
49.245620, 4.053912, 12.98, -1.94, 1.94, 10.05
49.245692, 4.053769, 13.06, -0.01, 1.82, 7.33
49.245692, 4.053769, 13.06, -1.22, 0.18, 12.97
49.245768, 4.053631, 13.09, -1.36, 1.30, 7.89
49.245768, 4.053631, 13.09, 1.00, 0.93, 8.49
49.245838, 4.053490, 13.09, 1.47, 1.64, 11.27
49.245838, 4.053490, 13.09, -0.41, 0.68, 8.77
49.245916, 4.053350, 12.89, 1.23, -0.19, 11.05
49.245916, 4.053350, 12.89, 0.94, -0.65, 9.75
49.245988, 4.053216, 12.32, -2.09, 0.46, 6.67
49.245988, 4.053216, 12.32, -2.40, 0.12, 9.59
49.246057, 4.053087, 11.95, -0.38, 0.79, 10.77
49.246057, 4.053087, 11.95, -0.48, 0.14, 9.60
49.246122, 4.052956, 11.59, -0.24, 0.68, 7.54
49.246122, 4.052956, 11.59, -1.19, 0.59, 11.57
49.246187, 4.052831, 11.33, -1.04, 0.66, 11.59
49.246187, 4.052831, 11.33, -0.32, 1.26, 10.57
49.246250, 4.052709, 11.24, -1.20, -0.58, 4.65
49.246250, 4.052709, 11.24, -1.14, -0.35, 10.74
49.246318, 4.052589, 11.24, -0.87, 0.58, 10.70
49.246318, 4.052589, 11.24, -0.20, 0.34, 8.77
49.246377, 4.052469, 10.89, -2.31, -0.84, 7.22
49.246377, 4.052469, 10.89, -1.15, 0.23, 10.59
49.246437, 4.052354, 10.43, 0.48, 0.28, 9.99
49.246437, 4.052354, 10.43, -0.34, 0.03, 9.81
49.246493, 4.052245, 9.86, -0.06, 0.79, 9.32
49.246493, 4.052245, 9.86, -0.50, -0.12, 10.75
49.246544, 4.052139, 9.17, -0.97, 1.48, 9.46
49.246544, 4.052139, 9.17, -0.04, 0.33, 10.10
49.246590, 4.052037, 8.84, -0.23, 0.64, 10.86
49.246636, 4.051937, 8.30, -0.07, 0.84, 10.12
49.246636, 4.051937, 8.30, -0.74, -0.21, 10.35
49.246679, 4.051846, 7.81, -0.05, 0.54, 9.52
49.246679, 4.051846, 7.81, -0.34, 1.27, 10.22
49.246720, 4.051763, 7.44, -0.23, 0.34, 9.44
49.246720, 4.051763, 7.44, 0.43, 0.84, 10.27
49.246757, 4.051681, 6.92, 0.65, -0.08, 8.02
49.246757, 4.051681, 6.92, -0.33, -0.34, 9.42
49.246789, 4.051607, 6.10, -0.34, -0.47, 8.55
49.246789, 4.051607, 6.10, -0.58, 0.03, 10.62
49.246817, 4.051551, 5.15, -0.35, 0.22, 9.63
49.246817, 4.051551, 5.15, 0.17, -0.20, 11.36
49.246840, 4.051508, 4.25, 1.15, -0.34, 10.68
49.246840, 4.051508, 4.25, 0.97, 0.33, 9.53
49.246857, 4.051472, 3.21, -0.34, -0.65, 10.22
49.246857, 4.051472, 3.21, -0.16, -0.46, 10.67
49.246871, 4.051440, 2.36, -0.10, -0.20, 9.03
49.246871, 4.051440, 2.36, -0.25, -0.53, 10.06
49.246879, 4.051421, 1.18, 0.26, 0.03, 9.49
49.246879, 4.051421, 1.18, 0.12, 0.33, 10.22
49.246879, 4.051421, 0.00, 0.01, 0.42, 9.86
49.246879, 4.051421, 0.00, 0.04, 0.39, 9.93
49.246879, 4.051421, 0.00, 0.04, 0.91, 9.86
49.246879, 4.051421, 0.00, -0.00, 0.79, 9.83
49.246879, 4.051421, 0.00, -0.04, 0.72, 9.87
49.246879, 4.051421, 0.00, -0.04, 0.82, 9.84
49.246879, 4.051421, 0.00, 0.01, 0.80, 9.84
49.246879, 4.051421, 0.00, 0.02, 0.82, 9.86
49.246879, 4.051421, 0.00, -0.01, 0.78, 9.78
49.246879, 4.051421, 0.00, 0.02, 0.81, 9.78
49.246879, 4.051421, 0.00, 0.07, 0.75, 9.89
49.246879, 4.051421, 0.00, 0.02, 0.81, 9.84
49.246879, 4.051421, 0.00, 0.10, 0.81, 9.88
49.246879, 4.051421, 0.00, -0.01, 0.79, 9.81
49.246879, 4.051421, 0.00, 0.02, 0.78, 9.82
49.246879, 4.051421, 0.00, -0.02, 0.78, 9.80
49.246879, 4.051421, 0.00, -0.08, 0.79, 9.84
49.246879, 4.051421, 0.00, 0.02, 0.80, 9.83
49.246879, 4.051421, 0.00, 0.04, 0.82, 9.81
49.246879, 4.051421, 0.00, -0.03, 0.79, 9.81
49.246879, 4.051421, 0.00, -0.03, 0.73, 9.85
49.246879, 4.051421, 0.00, -0.02, 0.78, 9.91
49.246879, 4.051421, 0.00, 0.00, 0.79, 9.84
49.246879, 4.051421, 0.00, 0.07, 0.81, 9.81
49.246879, 4.051421, 0.00, 0.03, 0.79, 9.92
49.246879, 4.051421, 0.00, 0.01, 0.76, 9.82
49.246879, 4.051421, 0.00, 0.05, 0.80, 9.84
49.246879, 4.051421, 0.00, 0.03, 0.81, 9.84
49.246879, 4.051421, 0.00, 0.03, 0.95, 9.97
49.246879, 4.051421, 0.00, 0.00, 0.79, 9.82
49.246879, 4.051421, 0.00, 0.02, 0.80, 9.84
49.246879, 4.051421, 0.00, 0.02, 0.88, 9.86
49.246879, 4.051421, 0.00, 0.01, 0.78, 9.81
49.246879, 4.051421, 0.00, 0.01, 0.80, 9.84
49.246879, 4.051421, 0.00, 0.02, 0.82, 9.86
49.246879, 4.051421, 0.00, 0.07, 0.83, 9.86
49.246879, 4.051421, 0.00, 0.02, 0.81, 9.89
49.246879, 4.051421, 0.00, -0.00, 0.83, 9.85
49.246879, 4.051421, 0.00, 0.02, 0.78, 9.83
49.246879, 4.051421, 0.00, 0.03, 0.84, 9.80
49.246879, 4.051421, 0.00, 0.03, 0.83, 9.81
49.246879, 4.051421, 0.00, 0.04, 0.77, 9.87
49.246879, 4.051421, 0.00, 0.03, 0.82, 9.79
49.246879, 4.051421, 0.00, -0.05, 0.80, 9.83
49.246879, 4.051421, 0.00, 0.01, 0.81, 9.84
49.246879, 4.051421, 0.00, 0.02, 0.76, 9.82
49.246879, 4.051421, 0.00, 0.01, 0.83, 9.82
49.246879, 4.051421, 0.00, -0.07, 0.72, 9.80
49.246879, 4.051421, 0.00, 0.01, 0.79, 9.80
49.246879, 4.051421, 0.00, 0.02, 0.77, 9.82
49.246879, 4.051421, 0.00, 0.03, 0.77, 9.85
49.246879, 4.051421, 0.00, 0.01, 0.80, 9.82
49.246879, 4.051421, 0.00, 0.01, 0.78, 9.82
49.246882, 4.051402, 0.00, -0.04, 0.90, 9.96
49.246882, 4.051402, 0.00, -0.00, 0.78, 9.77
49.246882, 4.051402, 0.00, 0.01, 0.80, 9.80
49.246882, 4.051402, 0.00, 0.03, 0.78, 9.84
49.246882, 4.051402, 0.00, 0.01, 0.79, 9.82
49.246882, 4.051402, 0.00, -0.02, 0.84, 9.82
49.246882, 4.051402, 0.00, 0.01, 0.75, 9.77
49.246882, 4.051402, 0.00, 0.02, 0.79, 9.87
49.246882, 4.051402, 0.01, 0.03, 0.81, 9.84
49.246882, 4.051402, 0.01, 0.01, 0.82, 9.79
49.246882, 4.051402, 0.01, -0.01, 0.81, 9.77
49.246882, 4.051402, 0.00, 0.03, 0.77, 9.96
49.246882, 4.051402, 0.00, -0.03, 0.79, 9.89
49.246882, 4.051401, 0.01, 0.05, 0.80, 9.83
49.246882, 4.051401, 0.01, 0.04, 0.80, 9.83
49.246882, 4.051401, 0.01, 0.03, 0.80, 9.82
49.246882, 4.051401, 0.01, 0.02, 0.81, 9.81
49.246882, 4.051401, 0.01, 0.03, 0.77, 9.77
49.246882, 4.051401, 0.01, 0.04, 0.79, 9.85
49.246882, 4.051401, 0.02, -0.00, 0.77, 9.83
49.246882, 4.051401, 0.02, 0.04, 0.80, 9.86
49.246882, 4.051401, 0.02, -0.00, 0.79, 9.81
49.246882, 4.051401, 0.02, 0.00, 0.79, 9.84
49.246882, 4.051401, 0.00, 0.03, 0.79, 9.83
49.246882, 4.051401, 0.00, 0.01, 0.83, 9.84
49.246882, 4.051401, 0.02, 0.01, 0.79, 9.84
49.246882, 4.051401, 0.02, 0.04, 0.79, 9.83
49.246882, 4.051401, 0.03, 0.05, 0.78, 9.83
49.246882, 4.051401, 0.03, 0.01, 0.79, 9.82
49.246882, 4.051401, 0.00, 0.01, 0.81, 9.81
49.246882, 4.051401, 0.00, 0.02, 0.80, 9.83
49.246882, 4.051401, 0.00, 0.01, 0.81, 9.81
49.246882, 4.051401, 0.00, 0.06, 0.80, 9.83
49.246882, 4.051401, 0.00, 0.08, 1.14, 9.80
49.246882, 4.051401, 0.00, -0.05, 1.55, 9.72
49.246882, 4.051402, 0.03, 0.10, 1.87, 9.65
49.246882, 4.051402, 0.03, -0.30, 2.41, 9.30
49.246882, 4.051401, 0.05, -0.26, 2.22, 9.62
49.246882, 4.051401, 0.05, 0.42, 0.82, 11.70
49.246883, 4.051399, 0.52, -0.08, 2.02, 9.48
49.246883, 4.051399, 0.52, -0.53, 1.31, 9.19
49.246891, 4.051380, 1.24, -0.17, 1.13, 8.17
49.246891, 4.051380, 1.24, -0.81, 1.47, 8.84
49.246909, 4.051343, 2.48, -0.73, 1.15, 9.86
49.246909, 4.051343, 2.48, -1.30, 1.40, 9.64
49.246935, 4.051290, 3.47, -2.23, -0.15, 11.23
49.246935, 4.051290, 3.47, -2.30, 0.57, 9.21
49.246960, 4.051236, 4.01, -2.68, 0.73, 9.71
49.246960, 4.051236, 4.01, -3.07, 0.70, 9.10
49.246972, 4.051176, 4.26, -3.96, 0.61, 9.75
49.246972, 4.051176, 4.26, -4.26, 1.07, 9.10
49.246968, 4.051107, 4.41, -4.19, 1.28, 9.99
49.246943, 4.051030, 4.57, -3.12, 2.01, 9.60
49.246943, 4.051030, 4.57, -2.43, 2.10, 9.63
49.246896, 4.050975, 4.70, -1.47, 2.48, 9.46
49.246896, 4.050975, 4.70, -0.98, 2.56, 9.82
49.246838, 4.050937, 4.87, -0.73, 2.67, 9.52
49.246838, 4.050937, 4.87, -0.72, 3.21, 9.73
49.246762, 4.050917, 7.72, -1.29, 1.65, 9.36
49.246762, 4.050917, 7.72, -1.06, 0.91, 9.23
49.246688, 4.050879, 8.18, -0.64, 1.62, 10.89
49.246688, 4.050879, 8.18, -1.35, 1.10, 9.15
49.246613, 4.050840, 7.97, -0.45, 1.68, 9.73
49.246613, 4.050840, 7.97, -1.20, 1.67, 9.38
49.246544, 4.050807, 7.75, -0.43, 1.53, 10.48
49.246544, 4.050807, 7.75, -0.80, 1.66, 8.45
49.246472, 4.050780, 8.22, -0.74, 2.17, 9.73
49.246472, 4.050780, 8.22, -0.03, 1.22, 9.28
49.246399, 4.050754, 8.18, 0.28, 2.28, 9.32
49.246399, 4.050754, 8.18, 0.06, 2.59, 8.80
49.246326, 4.050711, 8.65, -0.27, 2.73, 9.58
49.246326, 4.050711, 8.65, -0.80, 2.16, 9.88
49.246245, 4.050657, 9.50, -1.25, 2.29, 9.01
49.246245, 4.050657, 9.50, -1.10, 1.94, 9.02
49.246159, 4.050601, 10.14, -0.49, 2.13, 10.20
49.246159, 4.050601, 10.14, -1.20, 1.56, 8.17
49.246073, 4.050542, 10.52, -0.65, 1.33, 9.17
49.246073, 4.050542, 10.52, -0.46, 1.48, 9.80
49.245978, 4.050490, 11.02, -0.54, 1.00, 9.12
49.245978, 4.050490, 11.02, -0.09, 0.51, 9.22
49.245884, 4.050445, 10.51, 0.82, 2.62, 10.70
49.245884, 4.050445, 10.51, -0.78, 1.13, 11.16
49.245795, 4.050407, 10.07, -1.02, 1.28, 11.16
49.245795, 4.050407, 10.07, -0.23, 1.58, 10.60
49.245707, 4.050370, 9.63, -0.54, 0.97, 8.99
49.245707, 4.050370, 9.63, -0.79, -0.34, 9.27
49.245624, 4.050333, 8.98, -0.39, 0.53, 10.16
49.245624, 4.050333, 8.98, -0.98, 0.71, 9.73
49.245551, 4.050301, 7.91, -0.75, 1.15, 8.79
49.245551, 4.050301, 7.91, -0.83, 1.13, 9.94
49.245482, 4.050268, 7.29, -0.79, 1.03, 9.42
49.245482, 4.050268, 7.29, -0.72, 1.41, 9.49
49.245417, 4.050239, 7.25, -0.28, 1.27, 8.82
49.245417, 4.050239, 7.25, -0.25, 1.05, 9.88
49.245355, 4.050209, 7.07, -0.65, 1.07, 9.71
49.245297, 4.050181, 6.74, -0.72, 1.71, 10.06
49.245297, 4.050181, 6.74, -0.30, 2.07, 10.92
49.245236, 4.050153, 7.20, -0.52, 1.56, 10.00
49.245236, 4.050153, 7.20, -1.35, 2.03, 9.26
49.245171, 4.050130, 7.35, -0.96, 2.08, 9.26
49.245171, 4.050130, 7.35, -1.31, 1.53, 9.86
49.245104, 4.050104, 7.69, -0.04, 1.84, 9.78
49.245104, 4.050104, 7.69, -0.43, 1.67, 10.18
49.245038, 4.050072, 7.68, -0.54, 2.10, 10.12
49.245038, 4.050072, 7.68, -0.69, 1.73, 9.93
49.244970, 4.050040, 7.89, 0.05, 1.99, 8.66
49.244970, 4.050040, 7.89, -0.47, 1.73, 9.51
49.244900, 4.050006, 8.25, -0.56, 1.51, 10.30
49.244900, 4.050006, 8.25, -0.60, 1.15, 9.80
49.244830, 4.049967, 8.10, -0.52, 1.23, 8.79
49.244830, 4.049967, 8.10, -0.64, 1.08, 8.65
49.244762, 4.049932, 7.91, -0.98, 1.36, 10.94
49.244762, 4.049932, 7.91, 0.50, 1.65, 10.52
49.244693, 4.049895, 7.78, -0.95, 2.17, 10.84
49.244693, 4.049895, 7.78, -0.72, 2.01, 8.68
49.244625, 4.049861, 7.97, -0.85, 2.09, 10.76
49.244625, 4.049861, 7.97, -1.14, 1.72, 10.09
49.244555, 4.049825, 8.28, -1.12, 1.79, 11.86
49.244555, 4.049825, 8.28, -0.58, 1.37, 9.86
49.244482, 4.049791, 8.71, 0.07, 2.19, 9.69
49.244482, 4.049791, 8.71, 0.34, 1.80, 8.35
49.244406, 4.049751, 8.77, 0.26, 1.56, 8.39
49.244406, 4.049751, 8.77, 0.10, 2.18, 9.92
49.244326, 4.049709, 9.44, -0.36, 1.15, 10.04
49.244326, 4.049709, 9.44, -0.62, 1.91, 8.91
49.244249, 4.049646, 9.89, -0.98, 1.40, 10.40
49.244249, 4.049646, 9.89, -0.67, 2.24, 10.09
49.244172, 4.049571, 10.26, -0.15, 1.71, 9.83
49.244172, 4.049571, 10.26, -0.13, 1.81, 10.33
49.244090, 4.049484, 10.77, 0.28, 1.60, 10.18
49.244090, 4.049484, 10.77, -0.40, 1.43, 9.75
49.244007, 4.049393, 11.22, -0.63, 1.90, 9.61
49.244007, 4.049393, 11.22, -0.74, 1.59, 9.51
49.243919, 4.049299, 11.66, -1.29, 1.70, 10.08
49.243830, 4.049202, 12.19, -0.82, 1.13, 10.30
49.243830, 4.049202, 12.19, -0.55, 1.47, 9.25
49.243738, 4.049101, 12.49, -0.34, 0.86, 9.60
49.243738, 4.049101, 12.49, -0.61, 0.92, 10.10
49.243644, 4.048998, 12.66, -0.34, 1.12, 10.52
49.243644, 4.048998, 12.66, -0.41, 0.90, 7.71
49.243553, 4.048892, 12.62, -0.79, 0.56, 9.72
49.243553, 4.048892, 12.62, -0.85, 0.73, 9.00
49.243457, 4.048796, 12.60, -0.61, 2.04, 9.63
49.243457, 4.048796, 12.60, -0.49, 1.58, 9.54
49.243363, 4.048698, 12.48, -0.61, 1.10, 9.99
49.243363, 4.048698, 12.48, -1.30, 1.36, 9.43
49.243273, 4.048597, 12.38, 0.33, 0.80, 10.54
49.243273, 4.048597, 12.38, -0.82, 1.05, 10.02
49.243184, 4.048491, 12.26, -0.26, 0.67, 10.63
49.243184, 4.048491, 12.26, -0.79, 1.78, 8.45
49.243096, 4.048385, 12.32, -0.44, 0.86, 9.83
49.243096, 4.048385, 12.32, -0.24, 1.49, 9.49
49.243009, 4.048277, 12.36, -0.88, 0.44, 9.90
49.243009, 4.048277, 12.36, -0.84, 0.93, 10.18
49.242921, 4.048171, 12.36, -1.19, 0.72, 10.00
49.242921, 4.048171, 12.36, -1.20, 1.47, 10.64
49.242834, 4.048065, 12.51, -1.34, 1.92, 9.67
49.242834, 4.048065, 12.51, 0.29, 1.91, 10.83
49.242742, 4.047962, 12.89, 0.23, 1.23, 10.37
49.242742, 4.047962, 12.89, -0.42, 1.56, 9.96
49.242648, 4.047854, 13.27, 0.43, 1.60, 8.67
49.242648, 4.047854, 13.27, 0.92, 0.56, 11.43
49.242553, 4.047747, 13.52, -0.19, 1.21, 8.82
49.242553, 4.047747, 13.52, -0.34, 1.83, 9.91
49.242456, 4.047627, 13.89, -0.84, 1.32, 8.96
49.242456, 4.047627, 13.89, -0.48, 0.99, 9.77
49.242361, 4.047497, 14.06, -0.69, 1.01, 10.00
49.242361, 4.047497, 14.06, -0.42, 0.50, 9.22
49.242268, 4.047365, 14.14, -1.11, 0.23, 9.19
49.242268, 4.047365, 14.14, -0.74, 1.18, 12.10
49.242177, 4.047233, 13.90, -0.60, -0.41, 10.09
49.242177, 4.047233, 13.90, -1.03, -1.35, 10.30
49.242089, 4.047104, 13.23, -0.67, 0.06, 10.66
49.242089, 4.047104, 13.23, 0.00, -1.05, 10.52
49.242011, 4.046988, 11.44, -1.33, 0.79, 10.93
49.241942, 4.046888, 10.47, -0.99, 0.62, 9.67
49.241942, 4.046888, 10.47, 0.07, 0.79, 9.11
49.241875, 4.046790, 10.29, -0.79, 1.35, 8.14
49.241875, 4.046790, 10.29, -0.04, 0.87, 8.52
49.241811, 4.046693, 10.13, 0.22, 1.07, 11.22
49.241811, 4.046693, 10.13, -0.05, -0.54, 10.51
49.241748, 4.046596, 9.87, -0.27, 0.42, 9.28
49.241748, 4.046596, 9.87, 0.53, 0.44, 10.54
49.241699, 4.046498, 9.07, -0.23, 0.26, 9.87
49.241699, 4.046498, 9.07, 0.37, -0.14, 9.87
49.241654, 4.046399, 8.65, -0.09, -0.60, 11.01
49.241654, 4.046399, 8.65, -0.34, -0.42, 9.90
49.241612, 4.046300, 7.61, -0.25, -0.52, 10.54
49.241612, 4.046300, 7.61, -0.39, -0.61, 9.70
49.241584, 4.046223, 5.65, -0.53, -0.48, 10.65
49.241584, 4.046223, 5.65, -0.55, -0.23, 9.92
49.241568, 4.046172, 3.82, -0.33, -0.14, 9.87
49.241568, 4.046172, 3.82, -0.51, -0.59, 9.96
49.241558, 4.046142, 2.30, -0.51, -0.58, 9.93
49.241558, 4.046142, 2.30, -0.51, -0.26, 10.04
49.241558, 4.046142, 0.00, -0.50, 0.29, 9.96
49.241558, 4.046142, 0.00, -0.59, 1.21, 9.92
49.241558, 4.046142, 0.00, -0.56, 0.91, 9.67
49.241558, 4.046142, 0.00, -0.50, 0.97, 9.80
49.241558, 4.046142, 0.00, -0.57, 1.05, 9.86
49.241558, 4.046142, 0.00, -0.49, 0.96, 9.83
49.241558, 4.046142, 0.00, -0.56, 0.96, 9.83
49.241558, 4.046142, 0.00, -0.52, 0.96, 9.77
49.241558, 4.046142, 0.00, -0.54, 0.96, 9.76
49.241558, 4.046142, 0.00, -0.57, 1.01, 9.79
49.241558, 4.046142, 0.00, -0.59, 0.97, 9.71
49.241558, 4.046142, 0.00, -0.55, 0.98, 9.80
49.241558, 4.046142, 0.00, -0.54, 0.99, 9.80
49.241558, 4.046142, 0.00, -0.58, 1.02, 9.84
49.241558, 4.046142, 0.00, -0.54, 0.98, 9.77
49.241558, 4.046142, 0.00, -0.56, 0.99, 9.77
49.241558, 4.046142, 0.00, -0.58, 0.97, 9.78
49.241558, 4.046142, 0.00, -0.57, 0.98, 9.78
49.241558, 4.046142, 0.00, -0.55, 1.01, 9.83
49.241558, 4.046142, 0.00, -0.55, 0.94, 9.75
49.241558, 4.046142, 0.00, -0.54, 1.02, 9.80
49.241558, 4.046142, 0.00, -0.56, 0.97, 9.78
49.241558, 4.046142, 0.00, -0.55, 0.99, 9.77
49.241558, 4.046142, 0.00, -0.55, 1.01, 9.80
49.241558, 4.046142, 0.00, -0.52, 1.00, 9.81
49.241558, 4.046142, 0.00, -0.55, 0.97, 9.81
49.241558, 4.046142, 0.00, -0.54, 1.01, 9.80
49.241558, 4.046142, 0.00, -0.55, 1.00, 9.81
49.241558, 4.046142, 0.00, -0.54, 1.01, 9.84
49.241558, 4.046142, 0.00, -0.54, 0.99, 9.82
49.241558, 4.046142, 0.00, -0.57, 1.00, 9.78
49.241558, 4.046142, 0.00, -0.61, 0.97, 9.80
49.241558, 4.046142, 0.00, -0.54, 1.56, 9.68
49.241558, 4.046142, 0.00, -0.52, 1.99, 9.68
49.241558, 4.046142, 0.00, -0.57, 2.44, 9.74
49.241558, 4.046142, 0.00, -0.43, 2.54, 9.77
49.241558, 4.046142, 0.00, -0.66, 2.56, 9.31
49.241543, 4.046113, 2.40, -0.54, 2.40, 9.50
49.241543, 4.046113, 2.40, -0.69, 2.37, 9.75
49.241527, 4.046073, 3.67, -0.47, 2.04, 9.95
49.241527, 4.046073, 3.67, -0.36, 2.34, 9.38
49.241507, 4.046015, 5.13, -0.80, 2.18, 10.29
49.241507, 4.046015, 5.13, -0.89, 2.01, 9.94
49.241483, 4.045946, 6.22, -0.58, 1.85, 9.01
49.241483, 4.045946, 6.22, -0.61, 1.56, 9.05
49.241457, 4.045868, 7.01, -0.76, 2.08, 11.14
49.241457, 4.045868, 7.01, 0.14, 1.67, 9.73
49.241429, 4.045774, 7.59, 0.39, 1.33, 10.15
49.241429, 4.045774, 7.59, 0.36, 1.28, 10.21
49.241405, 4.045682, 7.69, 0.90, 1.02, 9.96
49.241405, 4.045682, 7.69, 0.89, 0.72, 10.83
49.241391, 4.045581, 7.53, 1.70, 1.21, 9.76
49.241391, 4.045581, 7.53, 0.96, 1.52, 9.46
49.241386, 4.045463, 8.46, 0.95, 1.64, 9.59
49.241386, 4.045463, 8.46, 0.24, 1.58, 11.23
49.241399, 4.045335, 8.74, 0.18, 1.59, 11.94
49.241399, 4.045335, 8.74, -0.64, 0.96, 9.05
49.241418, 4.045211, 8.81, -0.86, 1.04, 9.79
49.241418, 4.045211, 8.81, -1.84, 0.19, 8.73
49.241439, 4.045091, 8.44, -1.69, 0.59, 10.07
49.241439, 4.045091, 8.44, -1.74, 1.03, 9.62
49.241456, 4.044974, 8.09, -0.57, 0.79, 9.43
49.241457, 4.044861, 7.87, -2.09, 1.05, 8.78
49.241457, 4.044861, 7.87, -2.12, -0.25, 10.42
49.241445, 4.044756, 7.60, -1.58, -0.70, 10.25
49.241445, 4.044756, 7.60, -0.45, -0.67, 10.31
49.241433, 4.044667, 5.87, -1.94, -1.39, 10.53
49.241433, 4.044667, 5.87, -0.87, -0.29, 10.81
49.241415, 4.044613, 3.22, -0.65, 0.44, 9.97
49.241415, 4.044613, 3.22, -0.66, 0.76, 9.94
49.241399, 4.044574, 2.49, -0.37, 0.07, 9.54
49.241399, 4.044574, 2.49, -0.63, 0.06, 10.17
49.241387, 4.044553, 1.40, -0.31, -0.22, 10.07
49.241387, 4.044553, 1.40, -0.27, -0.16, 9.96
49.241387, 4.044553, 0.00, -0.30, 0.93, 9.81
49.241387, 4.044553, 0.00, -0.38, 1.06, 9.70
49.241387, 4.044553, 0.00, -0.34, 1.15, 9.78
49.241387, 4.044553, 0.00, -0.41, 1.81, 9.78
49.241387, 4.044553, 0.00, -0.45, 2.33, 9.74
49.241387, 4.044553, 0.00, -0.65, 2.23, 9.55
49.241387, 4.044553, 0.00, -0.89, 2.45, 9.66
49.241387, 4.044553, 0.00, -0.84, 2.66, 9.92
49.241363, 4.044531, 2.01, -0.93, 2.59, 9.94
49.241363, 4.044531, 2.01, -1.06, 2.60, 8.71
49.241341, 4.044506, 3.52, -1.62, 2.36, 9.50
49.241341, 4.044506, 3.52, -1.18, 2.72, 9.22
49.241301, 4.044479, 5.14, -1.00, 2.65, 9.39
49.241301, 4.044479, 5.14, -0.27, 2.56, 9.72
49.241246, 4.044444, 7.11, -0.99, 2.67, 9.52
49.241246, 4.044444, 7.11, 0.11, 2.85, 10.49
49.241179, 4.044402, 8.46, -1.18, 2.71, 10.59
49.241179, 4.044402, 8.46, -1.99, 1.88, 10.60
49.241101, 4.044355, 9.60, -2.79, 2.13, 8.85
49.241101, 4.044355, 9.60, -3.26, 2.06, 9.60
49.241012, 4.044306, 10.52, -3.72, 2.85, 10.42
49.241012, 4.044306, 10.52, -0.87, 1.17, 9.53
49.240914, 4.044288, 10.93, -1.35, 1.20, 11.36
49.240914, 4.044288, 10.93, -1.58, 3.15, 11.25
49.240813, 4.044306, 11.17, -0.57, 1.88, 9.39
49.240813, 4.044306, 11.17, -0.81, 1.70, 9.97
49.240708, 4.044341, 11.56, -0.36, 1.14, 8.83
49.240708, 4.044341, 11.56, -1.07, 1.81, 8.17
49.240601, 4.044376, 11.60, -0.79, 1.62, 9.52
49.240497, 4.044411, 11.71, -0.37, 2.49, 9.20
49.240497, 4.044411, 11.71, -0.37, 1.53, 9.55
49.240390, 4.044445, 12.17, -1.07, 2.46, 9.63
49.240390, 4.044445, 12.17, -0.71, 2.01, 9.16
49.240277, 4.044479, 12.86, -0.25, 2.13, 8.78
49.240277, 4.044479, 12.86, -0.63, 2.84, 8.61
49.240160, 4.044514, 13.37, -1.13, 1.71, 8.98
49.240160, 4.044514, 13.37, -1.22, 2.48, 9.68
49.240037, 4.044552, 14.19, -1.90, 1.47, 8.84
49.240037, 4.044552, 14.19, -0.78, 2.11, 9.64
49.239907, 4.044590, 14.87, -1.62, 2.05, 9.64
49.239907, 4.044590, 14.87, -0.20, 1.60, 10.16
49.239774, 4.044630, 15.27, -0.89, 2.59, 8.83
49.239774, 4.044630, 15.27, -0.54, 1.32, 9.86
49.239638, 4.044671, 15.56, -0.87, 1.51, 8.59
49.239638, 4.044671, 15.56, -1.60, 1.77, 9.69
49.239499, 4.044712, 15.94, -1.55, 1.36, 9.07
49.239499, 4.044712, 15.94, -0.96, 0.49, 9.96
49.239360, 4.044748, 15.96, -1.15, 0.75, 8.99
49.239360, 4.044748, 15.96, -0.51, 0.56, 9.07
49.239222, 4.044788, 15.73, -0.25, 1.41, 9.52
49.239222, 4.044788, 15.73, 0.74, 0.21, 9.33
49.239086, 4.044828, 15.42, 0.95, 1.10, 10.56
49.239086, 4.044828, 15.42, 0.76, 0.82, 9.14
49.238949, 4.044862, 15.33, 1.34, 0.83, 8.56
49.238949, 4.044862, 15.33, 0.45, 0.96, 8.83
49.238807, 4.044873, 15.03, 0.45, 1.10, 11.54
49.238807, 4.044873, 15.03, 0.75, 1.02, 10.25
49.238663, 4.044860, 15.12, 0.38, 1.27, 9.20
49.238663, 4.044860, 15.12, -0.30, 1.19, 9.39
49.238522, 4.044815, 15.21, -1.47, 1.19, 9.68
49.238522, 4.044815, 15.21, -0.87, 1.57, 10.13
49.238391, 4.044742, 15.27, -0.88, 0.81, 9.14
49.238391, 4.044742, 15.27, -0.44, 1.24, 8.09
49.238264, 4.044660, 15.32, -1.08, 1.33, 9.84
49.238264, 4.044660, 15.32, -1.48, 0.71, 9.47
49.238138, 4.044579, 15.38, -0.68, 0.86, 10.10
49.238138, 4.044579, 15.38, -0.91, 1.18, 9.47
49.238010, 4.044497, 15.28, -0.95, 1.14, 9.23
49.238010, 4.044497, 15.28, -0.94, 1.36, 9.74
49.237885, 4.044413, 15.23, 0.44, 0.68, 10.74
49.237759, 4.044328, 15.33, -1.41, 1.51, 10.07
49.237759, 4.044328, 15.33, -1.50, 0.29, 8.58
49.237630, 4.044242, 15.58, -1.36, 1.16, 8.08
49.237630, 4.044242, 15.58, -1.20, 1.47, 9.77
49.237501, 4.044159, 15.78, -1.37, 1.51, 9.32
49.237501, 4.044159, 15.78, -0.79, 1.05, 8.84
49.237369, 4.044074, 16.08, -0.99, 1.07, 10.58
49.237369, 4.044074, 16.08, -1.47, 0.49, 8.37
49.237234, 4.043989, 16.27, -0.55, 1.06, 11.58
49.237234, 4.043989, 16.27, -1.09, 1.39, 9.78
49.237098, 4.043903, 16.22, -1.47, 0.91, 8.56
49.237098, 4.043903, 16.22, -1.20, 1.51, 9.94
49.236963, 4.043816, 16.28, -0.72, 1.34, 8.93
49.236963, 4.043816, 16.28, -0.85, 1.29, 9.90
49.236827, 4.043727, 16.48, -0.44, 1.15, 11.32
49.236827, 4.043727, 16.48, 0.37, 1.61, 10.58
49.236692, 4.043630, 16.64, 0.44, 1.28, 9.91
49.236692, 4.043630, 16.64, -0.29, 0.86, 8.34
49.236560, 4.043522, 16.75, -0.64, 1.52, 8.93
49.236560, 4.043522, 16.75, -0.50, 1.25, 9.46
49.236428, 4.043407, 16.70, -0.31, 1.08, 8.98
49.236428, 4.043407, 16.70, -0.79, 1.18, 9.17
49.236301, 4.043282, 16.78, -0.70, 0.70, 9.38
49.236301, 4.043282, 16.78, -0.26, 1.11, 8.65
49.236177, 4.043152, 17.11, -0.23, 1.74, 10.41
49.236177, 4.043152, 17.11, 0.16, 1.68, 10.46
49.236055, 4.043011, 17.03, -1.18, 2.03, 10.18
49.236055, 4.043011, 17.03, 0.01, 1.09, 10.04
49.235939, 4.042862, 17.29, -0.24, 1.48, 10.18
49.235939, 4.042862, 17.29, -0.82, 1.38, 9.50
49.235820, 4.042703, 17.14, -1.07, 2.71, 10.74
49.235820, 4.042703, 17.14, -0.72, 1.60, 9.67
49.235712, 4.042544, 17.18, -0.65, 1.76, 9.81
49.235712, 4.042544, 17.18, -0.68, 1.75, 11.02
49.235605, 4.042379, 17.32, -0.38, 1.16, 10.20
49.235605, 4.042379, 17.32, -0.16, 1.07, 9.33
49.235501, 4.042210, 17.24, -0.33, 1.16, 10.44
49.235501, 4.042210, 17.24, -0.47, 0.34, 9.02
49.235399, 4.042036, 16.95, -0.37, 1.03, 9.93
49.235399, 4.042036, 16.95, 0.86, 1.06, 10.83
49.235292, 4.041842, 16.76, 0.64, 0.43, 7.82
49.235194, 4.041653, 16.27, 0.10, 0.19, 10.54
49.235194, 4.041653, 16.27, -0.18, 1.24, 10.38
49.235101, 4.041466, 15.56, -0.85, 0.64, 10.65
49.235101, 4.041466, 15.56, -1.40, 0.33, 9.89
49.235015, 4.041294, 14.94, -1.53, 0.79, 10.52
49.235015, 4.041294, 14.94, -1.73, 0.87, 9.32
49.234934, 4.041138, 14.48, 0.84, 1.04, 10.33
49.234934, 4.041138, 14.48, 1.02, 0.45, 9.15
49.234855, 4.040991, 13.52, 0.83, -0.51, 8.68
49.234855, 4.040991, 13.52, 0.26, -0.07, 8.08
49.234789, 4.040844, 12.80, 2.55, 1.04, 13.11
49.234789, 4.040844, 12.80, 2.20, 1.19, 8.15
49.234742, 4.040685, 12.54, 2.47, 1.68, 8.15
49.234742, 4.040685, 12.54, 2.76, 0.91, 10.58
49.234726, 4.040510, 12.80, 3.45, 0.97, 10.98
49.234726, 4.040510, 12.80, 3.30, 1.09, 9.20
49.234735, 4.040334, 12.85, 2.96, 0.50, 9.36
49.234735, 4.040334, 12.85, 2.62, 0.86, 10.28
49.234787, 4.040151, 13.22, 1.74, 1.36, 8.63
49.234787, 4.040151, 13.22, 0.60, 1.88, 9.12
49.234868, 4.039985, 14.27, -0.85, 2.62, 10.06
49.234868, 4.039985, 14.27, -0.52, 2.42, 9.10
49.234973, 4.039840, 15.10, -0.93, 1.86, 10.51
49.234973, 4.039840, 15.10, -1.34, 1.92, 8.06
49.235077, 4.039691, 16.30, -0.70, 1.09, 8.88
49.235077, 4.039691, 16.30, 0.42, 1.79, 9.65
49.235187, 4.039533, 17.62, -1.10, 2.72, 10.92
49.235187, 4.039533, 17.62, -1.10, 1.93, 12.50
49.235304, 4.039364, 18.51, -1.03, 1.62, 7.40
49.235304, 4.039364, 18.51, -0.62, 1.77, 12.15
49.235424, 4.039179, 19.24, 0.22, 2.08, 9.81
49.235424, 4.039179, 19.24, -0.85, 1.85, 8.63
49.235548, 4.038986, 19.71, -0.95, 1.29, 9.06
49.235548, 4.038986, 19.71, 0.16, 1.30, 10.11
49.235675, 4.038790, 20.14, -0.07, 1.49, 9.66
49.235675, 4.038790, 20.14, 0.13, 1.59, 10.42
49.235805, 4.038591, 20.51, -0.51, 1.48, 8.99
49.235805, 4.038591, 20.51, 0.03, 1.50, 9.83
49.235940, 4.038401, 20.75, 0.18, 1.87, 10.77
49.235940, 4.038401, 20.75, -0.03, 1.95, 9.67
49.236082, 4.038212, 21.05, -0.84, 1.98, 8.29
49.236234, 4.038027, 21.55, 0.09, 1.17, 10.43
49.236234, 4.038027, 21.55, -0.41, 2.08, 11.05
49.236387, 4.037848, 21.92, -0.76, 1.56, 9.11
49.236387, 4.037848, 21.92, -1.40, 0.98, 9.19
49.236544, 4.037665, 22.19, -1.49, 1.24, 8.48
49.236544, 4.037665, 22.19, 0.11, 2.12, 10.77
49.236705, 4.037482, 22.52, -0.23, 2.38, 9.63
49.236705, 4.037482, 22.52, -1.24, 1.58, 9.74
49.236869, 4.037296, 22.83, -0.26, 1.29, 8.70
49.236869, 4.037296, 22.83, -0.68, 3.14, 10.81
49.237036, 4.037104, 23.14, -0.28, 0.97, 8.02
49.237036, 4.037104, 23.14, -0.34, 2.54, 9.95
49.237205, 4.036907, 23.33, -0.70, 2.61, 10.56
49.237205, 4.036907, 23.33, -0.42, 1.69, 8.55
49.237372, 4.036710, 23.51, -1.10, 1.93, 12.34
49.237372, 4.036710, 23.51, -1.66, 1.36, 8.40
49.237541, 4.036508, 23.77, -0.45, 1.43, 9.57
49.237541, 4.036508, 23.77, -0.77, 1.45, 8.73
49.237712, 4.036301, 23.91, -0.96, 1.69, 13.20
49.237712, 4.036301, 23.91, -0.05, 1.21, 9.84
49.237886, 4.036097, 24.09, -0.72, 1.60, 10.25
49.237886, 4.036097, 24.09, -0.37, 1.65, 8.69
49.238059, 4.035890, 23.87, -0.60, 1.32, 8.78
49.238059, 4.035890, 23.87, -0.58, 1.23, 9.12
49.238235, 4.035691, 23.93, -0.37, 0.63, 10.90
49.238235, 4.035691, 23.93, -1.25, 0.72, 8.64
49.238413, 4.035502, 23.87, -0.51, 1.41, 8.64
49.238413, 4.035502, 23.87, -1.12, 1.76, 10.46
49.238587, 4.035313, 24.03, -0.57, 1.79, 12.28
49.238587, 4.035313, 24.03, 0.06, 2.28, 12.22
49.238762, 4.035122, 24.08, 0.52, 1.75, 11.46
49.238762, 4.035122, 24.08, -0.27, 0.95, 9.49
49.238940, 4.034937, 23.91, -0.20, 0.69, 8.71
49.238940, 4.034937, 23.91, -0.83, 1.25, 11.05
49.239118, 4.034759, 23.46, -0.96, 1.20, 9.05
49.239118, 4.034759, 23.46, -0.21, 1.15, 11.14
49.239293, 4.034589, 23.14, -1.11, 1.73, 10.38
49.239293, 4.034589, 23.14, -0.94, 1.48, 8.49
49.239465, 4.034419, 23.18, -0.53, 1.81, 11.49
49.239639, 4.034251, 23.30, -0.66, 1.35, 8.59
49.239639, 4.034251, 23.30, -1.11, 2.11, 9.16
49.239820, 4.034076, 23.77, 0.47, 1.21, 10.45
49.239820, 4.034076, 23.77, -1.39, 2.24, 8.06
49.240004, 4.033896, 24.11, -0.16, 1.86, 8.49
49.240004, 4.033896, 24.11, -1.01, 1.46, 9.04
49.240191, 4.033717, 24.58, -1.30, 1.21, 9.89
49.240191, 4.033717, 24.58, -1.13, 1.36, 11.04
49.240378, 4.033538, 24.78, -0.10, 1.49, 9.70
49.240378, 4.033538, 24.78, 0.01, 1.50, 9.36
49.240567, 4.033357, 25.02, -1.09, 0.93, 8.00
49.240567, 4.033357, 25.02, -0.44, 1.77, 9.93
49.240759, 4.033175, 25.25, -0.52, 0.47, 10.26
49.240759, 4.033175, 25.25, 0.32, 2.36, 9.45
49.240955, 4.032995, 25.41, -0.18, 0.71, 10.40
49.240955, 4.032995, 25.41, 0.24, 1.15, 8.76
49.241149, 4.032804, 25.54, -0.82, 1.77, 8.35
49.241149, 4.032804, 25.54, -1.02, 1.35, 10.80
49.241343, 4.032614, 25.75, -1.35, 0.99, 11.32
49.241343, 4.032614, 25.75, -0.51, 1.50, 10.84
49.241537, 4.032426, 25.94, -1.43, 0.94, 11.31
49.241537, 4.032426, 25.94, -0.34, 1.98, 8.88
49.241736, 4.032242, 26.01, -0.44, 1.10, 9.52
49.241736, 4.032242, 26.01, -0.89, 1.58, 8.59
49.241938, 4.032062, 25.91, -0.29, 1.09, 8.55
49.241938, 4.032062, 25.91, -0.35, 1.13, 10.08
49.242138, 4.031877, 25.83, -0.63, 1.92, 9.46
49.242138, 4.031877, 25.83, -0.17, 1.29, 9.74
49.242338, 4.031692, 25.89, -0.42, 0.89, 10.12
49.242338, 4.031692, 25.89, -0.42, 1.13, 11.64
49.242535, 4.031511, 25.82, -0.90, 0.43, 11.00
49.242535, 4.031511, 25.82, -0.81, 1.09, 10.78
49.242739, 4.031342, 25.82, -0.75, 1.54, 9.22
49.242739, 4.031342, 25.82, 0.56, 1.08, 9.14
49.242945, 4.031171, 25.72, -0.36, 0.57, 8.22
49.242945, 4.031171, 25.72, -0.38, 1.16, 11.37
49.243151, 4.031006, 25.71, -0.90, 1.46, 8.02
49.243151, 4.031006, 25.71, -0.97, 1.48, 9.37
49.243354, 4.030832, 25.58, -0.40, 1.30, 10.18
49.243354, 4.030832, 25.58, -0.48, 1.12, 9.44
49.243554, 4.030657, 25.54, -0.18, 1.52, 10.15
49.243751, 4.030480, 25.51, -0.63, 1.78, 9.36
49.243751, 4.030480, 25.51, -1.07, 0.99, 11.04
49.243949, 4.030307, 25.46, -0.14, 0.57, 9.98
49.243949, 4.030307, 25.46, -1.01, 1.67, 10.07
49.244146, 4.030130, 25.48, -1.21, 1.36, 10.32
49.244146, 4.030130, 25.48, -0.95, 0.86, 8.23
49.244341, 4.029958, 25.40, -0.90, 1.50, 7.87
49.244341, 4.029958, 25.40, -0.62, 0.97, 10.57
49.244538, 4.029778, 25.34, -0.14, 1.36, 9.02
49.244538, 4.029778, 25.34, -1.35, 1.00, 10.11
49.244733, 4.029596, 25.30, -1.58, 0.65, 8.18
49.244733, 4.029596, 25.30, -0.67, 1.18, 11.49
49.244927, 4.029410, 25.18, -0.34, 1.36, 8.39
49.244927, 4.029410, 25.18, -1.25, 1.57, 11.36
49.245119, 4.029221, 25.52, -0.17, 1.26, 8.96
49.245119, 4.029221, 25.52, -0.39, 1.54, 10.32
49.245311, 4.029028, 25.04, 0.21, 0.88, 9.16
49.245311, 4.029028, 25.04, -0.93, 1.44, 10.43
49.245498, 4.028837, 25.04, 0.29, 1.04, 12.02
49.245498, 4.028837, 25.04, 0.03, 1.42, 8.82
49.245682, 4.028646, 24.90, -0.28, 0.68, 10.25
49.245682, 4.028646, 24.90, -1.33, 0.90, 9.26
49.245864, 4.028455, 24.87, -0.48, 1.03, 8.74
49.245864, 4.028455, 24.87, -0.23, 0.63, 11.56
49.246049, 4.028264, 24.85, -1.01, 1.41, 12.43
49.246049, 4.028264, 24.85, -0.16, 1.23, 9.24
49.246227, 4.028067, 24.84, -0.53, 1.62, 9.13
49.246227, 4.028067, 24.84, -0.06, 1.17, 7.70
49.246403, 4.027863, 24.62, -0.61, 2.18, 7.85
49.246403, 4.027863, 24.62, -0.30, 0.91, 13.22
49.246579, 4.027658, 24.62, -1.06, 1.36, 9.39
49.246579, 4.027658, 24.62, -1.01, 1.31, 8.70
49.246755, 4.027451, 24.61, -0.45, 1.93, 9.23
49.246755, 4.027451, 24.61, -0.17, 0.96, 10.06
49.246931, 4.027244, 24.62, -0.13, 0.75, 8.86
49.246931, 4.027244, 24.62, -0.75, 1.16, 10.63
49.247103, 4.027035, 24.60, -0.68, 1.15, 9.27
49.247103, 4.027035, 24.60, -0.58, 0.96, 10.16
49.247271, 4.026821, 24.51, -0.68, 1.84, 7.41
49.247271, 4.026821, 24.51, -0.61, 1.45, 7.14
49.247437, 4.026603, 24.52, 0.24, 1.21, 11.30
49.247437, 4.026603, 24.52, 0.11, 1.34, 11.15
49.247602, 4.026376, 24.51, -0.76, 1.51, 11.82
49.247762, 4.026145, 24.48, 0.11, 0.37, 11.49
49.247762, 4.026145, 24.48, -0.88, 1.36, 9.95
49.247926, 4.025924, 24.52, -0.45, 1.02, 8.95
49.247926, 4.025924, 24.52, -1.03, 1.31, 10.54
49.248090, 4.025701, 24.45, 0.26, 2.30, 8.99
49.248090, 4.025701, 24.45, -0.87, 1.82, 9.84
49.248256, 4.025478, 24.51, 0.23, 2.10, 9.45
49.248256, 4.025478, 24.51, 0.83, 1.72, 10.53
49.248420, 4.025251, 24.52, -0.01, 1.49, 10.09
49.248420, 4.025251, 24.52, 0.13, 1.18, 11.10
49.248581, 4.025021, 24.59, -0.38, 2.29, 9.59
49.248581, 4.025021, 24.59, 0.20, 1.62, 9.14
49.248747, 4.024804, 24.56, -1.41, 1.02, 9.73
49.248747, 4.024804, 24.56, 0.06, 1.60, 9.19
49.248911, 4.024579, 24.59, 0.56, 0.70, 9.73
49.248911, 4.024579, 24.59, 0.25, 1.62, 10.32
49.249077, 4.024353, 24.54, 0.40, 0.50, 10.02
49.249077, 4.024353, 24.54, 0.78, 0.95, 11.71
49.249240, 4.024124, 24.51, -0.32, 1.07, 11.24
49.249240, 4.024124, 24.51, 0.57, 1.50, 9.70
49.249402, 4.023894, 24.45, 0.41, 1.07, 8.01
49.249402, 4.023894, 24.45, 0.35, 1.65, 9.63
49.249565, 4.023668, 24.41, 0.06, 1.81, 7.07
49.249565, 4.023668, 24.41, -0.47, 1.24, 9.55
49.249725, 4.023439, 24.47, -0.11, 1.58, 9.27
49.249725, 4.023439, 24.47, -0.46, 1.35, 7.26
49.249888, 4.023215, 24.37, 0.45, 1.53, 7.67
49.249888, 4.023215, 24.37, 0.09, 1.12, 9.74
49.250049, 4.022986, 24.35, 1.62, 1.55, 6.24
49.250049, 4.022986, 24.35, -0.13, 0.45, 9.48
49.250208, 4.022758, 24.37, 0.43, 1.63, 8.73
49.250208, 4.022758, 24.37, -0.19, 1.49, 11.93
49.250365, 4.022531, 24.25, -0.38, 1.41, 11.10
49.250365, 4.022531, 24.25, -1.01, 0.94, 8.59
49.250520, 4.022306, 24.01, 0.57, 1.36, 8.70
49.250520, 4.022306, 24.01, -1.22, 0.96, 11.82
49.250675, 4.022078, 23.81, -0.29, 1.54, 7.36
49.250826, 4.021851, 23.73, 0.62, 1.44, 10.59
49.250826, 4.021851, 23.73, 0.37, 1.85, 11.99
49.250977, 4.021639, 23.09, -0.59, 0.67, 10.75
49.250977, 4.021639, 23.09, -1.34, 0.76, 9.86
49.251128, 4.021422, 22.65, 1.14, 1.14, 9.38
49.251128, 4.021422, 22.65, -0.57, 1.19, 9.15
49.251270, 4.021212, 22.22, 1.38, 1.44, 11.36
49.251270, 4.021212, 22.22, 0.82, 0.95, 10.70
49.251409, 4.021000, 21.62, 1.08, 1.27, 7.91
49.251409, 4.021000, 21.62, 0.13, 1.25, 11.20
49.251544, 4.020790, 21.14, -1.28, 0.89, 10.53
49.251544, 4.020790, 21.14, 0.65, 1.34, 9.46
49.251681, 4.020585, 20.58, -1.23, 1.04, 9.50
49.251681, 4.020585, 20.58, -0.67, 0.13, 8.84
49.251808, 4.020373, 20.10, -0.03, 1.43, 9.57
49.251808, 4.020373, 20.10, 0.30, 0.71, 12.43
49.251923, 4.020158, 19.29, -1.12, -0.01, 10.59
49.251923, 4.020158, 19.29, -1.44, 0.40, 8.57
49.252025, 4.019942, 18.52, -0.87, 0.49, 10.85
49.252025, 4.019942, 18.52, -0.95, 1.17, 8.89
49.252117, 4.019730, 17.79, -0.09, 0.66, 12.24
49.252117, 4.019730, 17.79, -0.89, 1.20, 11.24
49.252206, 4.019532, 16.89, -0.51, 1.33, 9.39
49.252206, 4.019532, 16.89, -0.45, 0.99, 10.53
49.252288, 4.019344, 15.89, -2.90, 0.21, 9.01
49.252288, 4.019344, 15.89, -0.08, 1.19, 9.95
49.252365, 4.019162, 15.03, 0.20, 0.66, 9.95
49.252365, 4.019162, 15.03, 0.41, 1.05, 10.22
49.252436, 4.018992, 14.17, 1.62, 0.58, 10.63
49.252436, 4.018992, 14.17, 1.70, 0.57, 9.84
49.252512, 4.018847, 13.32, 1.89, 0.99, 10.41
49.252512, 4.018847, 13.32, 1.85, 0.90, 9.34
49.252591, 4.018727, 12.73, 2.12, 0.65, 9.37
49.252591, 4.018727, 12.73, 1.26, 1.04, 10.26
49.252684, 4.018651, 12.16, 2.40, 1.53, 10.78
49.252684, 4.018651, 12.16, 1.92, 1.27, 9.31
49.252780, 4.018601, 12.21, 2.23, 0.81, 9.86
49.252780, 4.018601, 12.21, 2.81, 1.40, 8.74
49.252901, 4.018598, 11.93, 2.36, 1.07, 10.17
49.252901, 4.018598, 11.93, 2.44, 1.64, 8.81
49.253013, 4.018632, 11.92, 1.14, 1.63, 10.45
49.253119, 4.018695, 11.93, 0.70, 1.27, 9.32
49.253119, 4.018695, 11.93, 1.46, 1.03, 9.87
49.253221, 4.018786, 11.97, -0.66, 1.58, 9.35
49.253221, 4.018786, 11.97, -0.26, 1.72, 9.77
49.253313, 4.018883, 12.32, -0.63, 1.05, 9.76
49.253313, 4.018883, 12.32, -0.81, 1.44, 8.90
49.253405, 4.018977, 12.59, -0.39, 1.41, 9.65
49.253405, 4.018977, 12.59, -0.13, 0.77, 9.74
49.253505, 4.019064, 12.74, -0.48, 1.01, 9.72
49.253505, 4.019064, 12.74, -0.23, 0.82, 10.73
49.253605, 4.019154, 12.64, -0.46, 0.15, 9.64
49.253605, 4.019154, 12.64, -0.97, 0.35, 11.37
49.253703, 4.019242, 12.48, -0.36, -0.12, 9.93
49.253703, 4.019242, 12.48, -0.68, 1.00, 12.61
49.253793, 4.019332, 11.91, 0.02, 1.06, 10.71
49.253793, 4.019332, 11.91, -0.25, -0.47, 8.37
49.253883, 4.019423, 11.63, 0.48, 0.78, 9.28
49.253883, 4.019423, 11.63, -0.70, 0.23, 9.28
49.253968, 4.019513, 11.25, -0.69, -0.14, 10.95
49.253968, 4.019513, 11.25, -0.35, 0.68, 10.38
49.254046, 4.019603, 10.92, -0.99, -0.90, 10.02
49.254046, 4.019603, 10.92, -0.49, -0.93, 9.30
49.254126, 4.019686, 9.74, -0.40, -0.92, 9.60
49.254126, 4.019686, 9.74, -2.14, -0.26, 11.62
49.254192, 4.019758, 8.36, -0.06, -0.31, 9.07
49.254192, 4.019758, 8.36, -0.39, -0.28, 9.61
49.254247, 4.019819, 7.24, -0.26, 0.29, 9.34
49.254247, 4.019819, 7.24, 0.02, -0.16, 9.57
49.254293, 4.019872, 6.57, -0.60, 0.16, 9.11
49.254293, 4.019872, 6.57, -0.79, -0.23, 9.99
49.254341, 4.019924, 5.82, -0.90, 0.00, 10.73
49.254341, 4.019924, 5.82, -0.53, 0.13, 8.68
49.254382, 4.019965, 4.99, -0.54, 0.10, 10.07
49.254382, 4.019965, 4.99, -0.24, 0.37, 10.17
49.254418, 4.020008, 4.33, -0.68, 0.53, 9.39
49.254418, 4.020008, 4.33, -0.64, 0.67, 10.12
49.254443, 4.020039, 3.71, -0.64, 0.18, 9.95
49.254443, 4.020039, 3.71, -0.57, 0.25, 10.21
49.254470, 4.020069, 3.12, -0.36, 0.42, 10.17
49.254470, 4.020069, 3.12, -0.27, 0.15, 9.94
49.254470, 4.020069, 0.00, -0.34, 0.20, 9.95
49.254470, 4.020069, 0.00, -0.46, -0.10, 10.18
49.254470, 4.020069, 0.00, -0.54, 0.37, 9.59
49.254470, 4.020069, 0.00, -0.36, 0.59, 9.94
49.254470, 4.020069, 0.00, -0.37, 0.53, 9.85
49.254470, 4.020069, 0.00, -0.50, 0.50, 9.77
49.254470, 4.020069, 0.00, -0.42, 1.10, 10.06
49.254470, 4.020069, 0.00, -0.42, 1.13, 9.80
49.254470, 4.020069, 0.00, -0.42, 1.06, 9.82
49.254470, 4.020069, 0.00, -0.49, 1.10, 9.80
49.254470, 4.020069, 0.00, -0.42, 1.10, 9.83
49.254470, 4.020069, 0.00, -0.43, 1.06, 9.75
49.254470, 4.020069, 0.00, -0.50, 1.14, 9.86
49.254470, 4.020069, 0.00, -0.42, 1.11, 9.76
49.254470, 4.020069, 0.00, -0.45, 0.93, 9.75
49.254470, 4.020069, 0.00, -0.44, 1.16, 9.88
49.254470, 4.020069, 0.00, -0.40, 1.02, 9.69
49.254470, 4.020069, 0.00, -0.48, 1.08, 9.83
49.254470, 4.020069, 0.00, -0.42, 1.17, 9.80
49.254470, 4.020069, 0.00, -0.47, 1.16, 9.86
49.254470, 4.020069, 0.00, -0.37, 1.00, 9.83
49.254470, 4.020069, 0.00, -0.44, 1.09, 9.82
49.254470, 4.020069, 0.00, -0.46, 1.02, 9.82
49.254470, 4.020069, 0.00, -0.40, 1.07, 9.80
49.254470, 4.020069, 0.00, -0.45, 1.09, 9.72
49.254470, 4.020069, 0.00, -0.43, 1.05, 9.83
49.254470, 4.020069, 0.00, -0.43, 1.16, 9.84
49.254470, 4.020069, 0.00, -0.43, 1.13, 9.81
49.254470, 4.020069, 0.00, -0.38, 1.07, 9.85
49.254470, 4.020069, 0.00, -0.34, 1.09, 9.67
49.254470, 4.020069, 0.00, -0.47, 1.00, 9.84
49.254470, 4.020069, 0.00, -0.42, 1.15, 9.79
49.254470, 4.020069, 0.00, -0.45, 1.13, 9.82
49.254470, 4.020069, 0.00, -0.42, 1.07, 9.78
49.254470, 4.020069, 0.00, -0.47, 1.05, 9.81
49.254470, 4.020069, 0.00, -0.40, 1.03, 9.78
49.254470, 4.020069, 0.00, -0.43, 1.13, 9.84
49.254470, 4.020069, 0.00, -0.47, 1.10, 9.76
49.254470, 4.020069, 0.00, -0.47, 1.12, 9.74
49.254533, 4.020122, 0.00, -0.45, 1.10, 9.76
49.254533, 4.020122, 0.00, -0.47, 2.11, 9.62
49.254533, 4.020122, 0.00, -0.27, 3.32, 9.20
49.254533, 4.020122, 0.00, -0.48, 3.40, 9.77
49.254533, 4.020122, 0.00, -1.03, 3.15, 9.41
49.254554, 4.020148, 2.84, -0.21, 2.73, 9.56
49.254554, 4.020148, 2.84, -0.53, 2.70, 9.62
49.254595, 4.020193, 5.32, -0.48, 2.93, 9.57
49.254595, 4.020193, 5.32, -0.28, 2.13, 9.58
49.254644, 4.020252, 6.41, -0.51, 2.21, 9.91
49.254644, 4.020252, 6.41, -0.69, 1.89, 9.68
49.254698, 4.020318, 7.09, -0.44, 2.10, 10.16
49.254698, 4.020318, 7.09, -1.82, 1.77, 10.25
49.254751, 4.020377, 7.57, -1.17, 1.80, 9.90
49.254751, 4.020377, 7.57, -0.97, 1.30, 9.95
49.254808, 4.020440, 7.46, -0.81, 1.19, 10.52
49.254808, 4.020440, 7.46, -0.28, 1.06, 10.00
49.254865, 4.020499, 7.73, -0.19, 0.71, 9.75
49.254865, 4.020499, 7.73, -0.36, 0.92, 10.69
49.254921, 4.020556, 7.23, -0.36, 1.01, 9.70
49.254921, 4.020556, 7.23, -0.29, 1.34, 9.96
49.254971, 4.020606, 6.94, -0.09, 1.19, 9.97
49.254971, 4.020606, 6.94, -0.51, 0.31, 8.86
49.255017, 4.020655, 6.45, 0.05, 0.84, 9.52
49.255017, 4.020655, 6.45, 0.17, 0.14, 10.86
49.255055, 4.020698, 5.83, -0.11, 0.51, 9.75
49.255055, 4.020698, 5.83, -0.34, 0.66, 9.22
49.255089, 4.020741, 5.19, 0.33, 0.14, 10.00
49.255089, 4.020741, 5.19, 0.44, 0.79, 10.20
49.255119, 4.020776, 4.06, 0.00, 0.29, 10.52
49.255119, 4.020776, 4.06, -0.68, 0.71, 9.22
49.255145, 4.020803, 3.21, -0.11, 0.23, 10.38
49.255145, 4.020803, 3.21, -0.08, 0.45, 9.60
49.255145, 4.020803, 0.00, -0.07, 0.43, 9.50
49.255145, 4.020803, 0.00, -0.16, 0.54, 9.77
49.255145, 4.020803, 0.00, -0.09, 0.98, 9.89
49.255145, 4.020803, 0.00, -0.18, 0.98, 9.81
49.255145, 4.020803, 0.00, -0.15, 0.68, 9.85
49.255145, 4.020803, 0.00, -0.27, 0.65, 9.83
49.255145, 4.020803, 0.00, -0.24, 1.12, 9.74
49.255145, 4.020803, 0.00, -0.19, 1.33, 9.74
49.255145, 4.020803, 0.00, -0.12, 1.36, 9.73
49.255145, 4.020803, 0.00, -0.17, 1.31, 9.77
49.255145, 4.020803, 0.00, -0.20, 1.32, 9.76
49.255145, 4.020803, 0.00, -0.19, 1.30, 9.78
49.255145, 4.020803, 0.00, -0.18, 1.33, 9.78
49.255145, 4.020803, 0.00, -0.18, 1.40, 9.80
49.255145, 4.020803, 0.00, -0.21, 1.33, 9.77
49.255145, 4.020803, 0.00, -0.18, 1.30, 9.73
49.255145, 4.020803, 0.00, -0.19, 1.31, 9.74
49.255145, 4.020803, 0.00, -0.20, 1.31, 9.74
49.255145, 4.020803, 0.00, -0.17, 1.33, 9.75
49.255145, 4.020803, 0.00, -0.23, 1.34, 9.73
49.255145, 4.020803, 0.00, -0.20, 1.34, 9.78
49.255145, 4.020803, 0.00, -0.19, 1.31, 9.74
49.255145, 4.020803, 0.00, -0.20, 1.35, 9.79
49.255145, 4.020803, 0.00, -0.22, 1.33, 9.77
49.255145, 4.020803, 0.00, -0.20, 1.35, 9.77
49.255145, 4.020803, 0.00, -0.21, 1.33, 9.73
49.255145, 4.020803, 0.00, -0.20, 1.30, 9.74
49.255145, 4.020803, 0.00, -0.15, 1.33, 9.78
49.255145, 4.020803, 0.00, -0.22, 1.35, 9.79
49.255145, 4.020803, 0.00, -0.20, 1.35, 9.79
49.255145, 4.020803, 0.00, -0.23, 1.33, 9.76
49.255145, 4.020803, 0.00, -0.24, 1.31, 9.69
49.255145, 4.020803, 0.00, -0.16, 1.34, 9.75
49.255145, 4.020803, 0.00, -0.23, 1.34, 9.79
49.255145, 4.020803, 0.00, -0.19, 1.33, 9.76
49.255145, 4.020803, 0.00, -0.15, 1.32, 9.82
49.255145, 4.020803, 0.00, -0.18, 1.39, 9.77
49.255145, 4.020803, 0.00, -0.22, 1.25, 9.73
49.255145, 4.020803, 0.00, -0.20, 1.34, 9.77
49.255145, 4.020803, 0.00, -0.23, 1.34, 9.73
49.255145, 4.020803, 0.00, -0.18, 1.29, 9.77
49.255145, 4.020803, 0.00, -0.18, 1.36, 9.77
49.255145, 4.020803, 0.00, -0.17, 1.34, 9.79
49.255145, 4.020803, 0.00, -0.22, 1.30, 9.71
49.255145, 4.020803, 0.00, -0.19, 1.30, 9.79
49.255145, 4.020803, 0.00, -0.17, 1.35, 9.79
49.255145, 4.020803, 0.00, -0.21, 1.27, 9.71
49.255145, 4.020803, 0.00, -0.21, 1.34, 9.82
49.255145, 4.020803, 0.00, -0.27, 1.31, 9.73
49.255145, 4.020803, 0.00, -0.22, 1.32, 9.77
49.255145, 4.020803, 0.00, -0.21, 1.30, 9.72
49.255145, 4.020803, 0.00, -0.22, 1.32, 9.73
49.255145, 4.020803, 0.00, -0.18, 1.37, 9.78
49.255145, 4.020803, 0.00, -0.20, 1.33, 9.80
49.255145, 4.020803, 0.00, -0.17, 1.38, 9.79
49.255145, 4.020803, 0.00, -0.16, 1.31, 9.68
49.255145, 4.020803, 0.00, -0.17, 1.33, 9.73
49.255145, 4.020803, 0.00, -0.22, 1.33, 9.77
49.255145, 4.020803, 0.00, -0.19, 1.33, 9.78
49.255145, 4.020803, 0.00, -0.17, 1.35, 9.76
49.255145, 4.020803, 0.00, -0.23, 1.34, 9.74
49.255145, 4.020803, 0.00, -0.20, 1.31, 9.80
49.255145, 4.020803, 0.00, -0.22, 1.33, 9.78
49.255145, 4.020803, 0.00, -0.17, 1.37, 9.76
49.255145, 4.020803, 0.00, -0.19, 1.33, 9.80
49.255145, 4.020803, 0.00, -0.14, 1.32, 9.76
49.255145, 4.020803, 0.00, -0.24, 1.37, 9.73
49.255145, 4.020803, 0.00, -0.24, 1.34, 9.76
49.255145, 4.020803, 0.00, -0.16, 1.36, 9.76
49.255145, 4.020803, 0.00, -0.22, 1.34, 9.74
49.255145, 4.020803, 0.00, -0.19, 1.34, 9.78
49.255145, 4.020803, 0.00, -0.16, 1.34, 9.76
49.255145, 4.020803, 0.00, -0.19, 1.32, 9.75
49.255145, 4.020803, 0.00, -0.22, 1.29, 9.75
49.255145, 4.020803, 0.00, -0.19, 1.34, 9.77
49.255145, 4.020803, 0.00, -0.18, 1.36, 9.78
49.255145, 4.020803, 0.00, -0.21, 1.35, 9.81
49.255145, 4.020803, 0.00, -0.19, 1.41, 9.81
49.255145, 4.020803, 0.00, -0.21, 1.33, 9.80
49.255145, 4.020803, 0.00, -0.16, 1.33, 9.75
49.255145, 4.020803, 0.00, -0.16, 1.37, 9.75
49.255145, 4.020803, 0.00, -0.24, 1.36, 9.73
49.255145, 4.020803, 0.00, -0.21, 1.33, 9.76
49.255145, 4.020803, 0.00, -0.18, 1.31, 9.77
49.255145, 4.020803, 0.00, -0.24, 1.32, 9.75
49.255145, 4.020803, 0.00, -0.23, 1.36, 9.72
49.255145, 4.020803, 0.00, -0.20, 1.36, 9.77
49.255145, 4.020803, 0.00, -0.28, 1.34, 9.73
49.255145, 4.020803, 0.00, -0.15, 1.32, 9.74
49.255145, 4.020803, 0.00, -0.10, 1.33, 9.74
49.255145, 4.020803, 0.00, -0.17, 1.36, 9.73
49.255145, 4.020803, 0.00, -0.20, 1.33, 9.72
49.255145, 4.020803, 0.00, -0.17, 1.32, 9.73
49.255145, 4.020803, 0.00, -0.19, 1.29, 9.73
49.255145, 4.020803, 0.00, -0.24, 1.35, 9.77
49.255145, 4.020803, 0.00, -0.19, 1.29, 9.69
49.255145, 4.020803, 0.00, -0.15, 1.36, 9.77
49.255145, 4.020803, 0.00, -0.18, 1.39, 9.78
49.255145, 4.020803, 0.00, -0.34, 1.35, 9.94
49.255145, 4.020803, 0.00, -0.16, 1.34, 9.75
49.255145, 4.020803, 0.00, -0.31, 1.33, 9.87
49.255145, 4.020803, 0.00, -0.24, 1.31, 9.74
49.255145, 4.020803, 0.00, -0.22, 1.34, 9.72
49.255145, 4.020803, 0.00, -0.14, 1.38, 9.77
49.255145, 4.020803, 0.00, -0.17, 1.32, 9.75
49.255145, 4.020803, 0.00, -0.23, 1.29, 9.77
49.255145, 4.020803, 0.00, -0.21, 1.36, 9.74
49.255145, 4.020803, 0.00, -0.23, 1.24, 9.78
49.255145, 4.020803, 0.00, -0.22, 1.34, 9.81
49.255145, 4.020803, 0.00, -0.20, 1.35, 9.71
49.255145, 4.020803, 0.00, -0.22, 1.31, 9.88
49.255145, 4.020803, 0.00, -0.14, 1.75, 9.66
49.255145, 4.020803, 0.00, -0.16, 1.34, 9.84
49.255195, 4.020851, 0.00, -0.24, 0.96, 9.80
49.255195, 4.020851, 0.00, -0.22, 1.36, 9.65
49.255195, 4.020851, 0.00, -0.23, 1.35, 9.68
49.255195, 4.020851, 0.00, -0.20, 1.32, 9.76
49.255195, 4.020851, 0.00, -0.23, 1.34, 9.82
49.255195, 4.020851, 0.00, -0.18, 1.29, 9.56
49.255195, 4.020851, 0.00, -0.20, 1.30, 9.65
49.255195, 4.020851, 0.00, -0.19, 1.34, 9.78
49.255195, 4.020851, 0.00, -0.27, 1.30, 9.79
49.255195, 4.020851, 0.00, -0.15, 1.36, 9.80
49.255195, 4.020851, 0.00, -0.21, 1.29, 9.70
49.255195, 4.020851, 0.00, -0.21, 1.32, 9.71
49.255195, 4.020851, 0.00, -0.12, 1.37, 9.76
49.255195, 4.020851, 0.00, -0.14, 2.31, 9.48
49.255195, 4.020851, 0.00, 0.08, 3.46, 9.49
49.255195, 4.020851, 0.00, -0.24, 3.12, 9.33
49.255195, 4.020851, 0.00, -0.00, 3.63, 9.33
49.255195, 4.020851, 0.00, -0.12, 3.23, 9.34
49.255208, 4.020871, 2.46, -0.38, 2.74, 9.92
49.255208, 4.020871, 2.46, -0.01, 2.59, 9.02
49.255240, 4.020906, 4.87, -1.25, 2.95, 10.03
49.255240, 4.020906, 4.87, -2.83, 2.18, 9.87
49.255286, 4.020955, 6.25, -3.12, 0.65, 9.44
49.255344, 4.021004, 6.77, -3.52, 1.81, 8.90
49.255344, 4.021004, 6.77, -3.09, 1.81, 9.51
49.255411, 4.021020, 7.26, -3.63, 1.73, 8.72
49.255411, 4.021020, 7.26, -2.64, 1.66, 9.11
49.255484, 4.020990, 8.37, -1.89, 2.12, 10.14
49.255484, 4.020990, 8.37, -1.04, 2.46, 9.05
49.255552, 4.020912, 9.10, -0.40, 2.07, 9.88
49.255552, 4.020912, 9.10, -0.47, 2.94, 10.37
49.255622, 4.020820, 9.89, 0.59, 2.63, 11.43
49.255622, 4.020820, 9.89, 0.24, 2.28, 7.12
49.255694, 4.020718, 10.36, -0.30, 2.54, 11.88
49.255694, 4.020718, 10.36, -0.59, 1.88, 10.67
49.255772, 4.020619, 11.27, -0.97, 0.99, 9.55
49.255772, 4.020619, 11.27, -1.31, 0.97, 9.87
49.255854, 4.020521, 11.75, 0.33, 0.72, 8.88
49.255854, 4.020521, 11.75, -1.03, 0.14, 9.42
49.255938, 4.020431, 11.08, -1.30, -0.65, 11.66
49.255938, 4.020431, 11.08, 0.16, 1.28, 12.01
49.256022, 4.020350, 10.82, -1.07, 0.34, 10.51
49.256022, 4.020350, 10.82, -1.10, 0.08, 10.66
49.256022, 4.020350, 10.82, -0.92, 0.74, 10.08
49.256022, 4.020350, 10.82, 0.15, 1.28, 10.30
49.256022, 4.020350, 10.82, -0.14, 0.30, 9.18
49.256022, 4.020350, 10.82, -0.55, 0.11, 9.45
49.256253, 4.020130, 9.42, 0.29, 1.19, 10.95
49.256253, 4.020130, 9.42, -0.66, 0.38, 9.19
49.256319, 4.020067, 8.41, -1.05, 0.11, 8.11
49.256319, 4.020067, 8.41, -0.00, 0.31, 9.87
49.256378, 4.020018, 7.28, 1.68, 0.32, 10.32
49.256378, 4.020018, 7.28, 1.61, 0.60, 9.69
49.256444, 4.019978, 6.79, 1.93, 0.29, 10.08
49.256444, 4.019978, 6.79, 1.70, 1.04, 9.12
49.256473, 4.019991, 4.46, 3.02, 1.66, 7.99
49.256473, 4.019991, 4.46, 2.16, 1.49, 10.51
49.256515, 4.020039, 6.00, 2.32, 2.16, 9.39
49.256515, 4.020039, 6.00, 0.93, 2.46, 11.43
49.256562, 4.020116, 6.16, 0.60, 2.01, 10.61
49.256562, 4.020116, 6.16, -0.63, 1.44, 12.68
49.256593, 4.020210, 6.89, -0.03, 0.43, 10.11
49.256623, 4.020300, 6.91, -1.39, 1.08, 9.91
49.256623, 4.020300, 6.91, 0.09, -0.35, 8.31
49.256653, 4.020386, 6.12, 0.86, 1.23, 11.08
49.256653, 4.020386, 6.12, -0.24, 0.89, 11.02
49.256680, 4.020464, 5.91, -1.31, 1.73, 8.71
49.256680, 4.020464, 5.91, -0.29, 1.90, 8.72
49.256702, 4.020541, 5.77, -1.23, 2.66, 9.28
49.256702, 4.020541, 5.77, -0.18, 2.49, 10.23
49.256730, 4.020627, 6.17, -0.36, 2.49, 8.97
49.256730, 4.020627, 6.17, -0.44, 2.50, 9.10
49.256765, 4.020720, 6.98, -0.03, 2.33, 10.52
49.256765, 4.020720, 6.98, -1.20, 2.30, 10.52
49.256804, 4.020810, 7.81, -1.04, 0.99, 8.89
49.256804, 4.020810, 7.81, -1.22, 0.96, 9.13
49.256846, 4.020898, 7.67, -1.88, 2.19, 10.23
49.256846, 4.020898, 7.67, 0.57, 0.79, 12.08
49.256898, 4.020984, 8.53, 0.08, -0.03, 9.16
49.256898, 4.020984, 8.53, -0.14, 0.13, 12.60
49.256959, 4.021060, 8.33, -0.63, 0.05, 9.83
49.256959, 4.021060, 8.33, -0.43, 0.78, 11.25
49.257016, 4.021132, 7.50, -0.61, -1.39, 10.26
49.257016, 4.021132, 7.50, -0.46, 4.36, 9.52
49.257061, 4.021190, 6.03, -0.34, -0.78, 4.09
49.257061, 4.021190, 6.03, -0.36, 1.63, 10.23
49.257103, 4.021250, 5.32, -0.72, 0.96, 10.00
49.257103, 4.021250, 5.32, -0.31, 0.90, 9.12
49.257129, 4.021303, 4.93, 0.33, 0.73, 10.20
49.257129, 4.021303, 4.93, 0.54, 0.79, 8.77
49.257159, 4.021352, 4.70, -0.26, 1.54, 10.16
49.257159, 4.021352, 4.70, -1.07, 1.13, 9.97
49.257187, 4.021399, 4.42, -0.53, 1.27, 7.24
49.257187, 4.021399, 4.42, 0.38, 0.17, 9.76
49.257214, 4.021439, 3.90, 0.50, 1.27, 10.22
49.257214, 4.021439, 3.90, 0.25, 1.20, 11.82
49.257240, 4.021474, 3.85, -0.37, 1.42, 9.49
49.257240, 4.021474, 3.85, 0.11, 1.62, 9.72
49.257263, 4.021508, 3.78, -0.44, 1.14, 10.03
49.257263, 4.021508, 3.78, -0.11, 1.24, 9.75
49.257281, 4.021538, 3.09, -0.06, 1.26, 10.35
49.257294, 4.021561, 2.71, -0.39, 0.66, 9.60
49.257294, 4.021561, 2.71, -0.16, 0.44, 9.89
49.257304, 4.021579, 1.87, -0.31, 0.38, 10.22
49.257304, 4.021579, 1.87, -0.18, 0.28, 10.33
49.257313, 4.021594, 1.22, -0.21, 0.90, 9.73
49.257313, 4.021594, 1.22, -0.23, 1.58, 9.75
49.257321, 4.021607, 0.96, -0.28, 1.47, 9.80
49.257321, 4.021607, 0.96, -0.38, 1.52, 9.67
49.257331, 4.021620, 0.98, -0.26, 1.53, 9.70
49.257331, 4.021620, 0.98, -0.20, 1.70, 9.66
49.257339, 4.021633, 1.22, -0.12, 2.21, 9.43
49.257339, 4.021633, 1.22, -0.18, 2.37, 9.57
49.257345, 4.021641, 1.78, -0.23, 1.61, 9.89
49.257345, 4.021641, 1.78, -0.45, 1.22, 9.57
49.257356, 4.021657, 2.10, 0.29, 1.11, 9.88
49.257356, 4.021657, 2.10, 0.23, 1.39, 9.76
49.257368, 4.021674, 2.05, 0.03, 1.69, 9.32
49.257368, 4.021674, 2.05, -0.18, 1.59, 9.67
49.257382, 4.021691, 1.88, -0.10, 1.40, 9.84
49.257382, 4.021691, 1.88, 0.11, 1.47, 9.75
49.257395, 4.021708, 1.96, 0.66, 1.12, 9.35
49.257395, 4.021708, 1.96, -0.36, 1.52, 9.38
49.257406, 4.021727, 1.93, -0.05, 1.41, 9.80
49.257406, 4.021727, 1.93, 0.61, 2.35, 9.00
49.257419, 4.021745, 2.21, 0.14, 1.13, 10.31
49.257419, 4.021745, 2.21, -0.39, 1.18, 9.76
49.257431, 4.021764, 1.86, 0.20, 1.39, 9.54
49.257431, 4.021764, 1.86, -0.07, 1.55, 9.40
49.257444, 4.021785, 2.15, -0.15, 1.22, 9.55
49.257444, 4.021785, 2.15, -0.09, 1.74, 9.55
49.257459, 4.021806, 2.08, -0.06, 0.89, 9.58
49.257459, 4.021806, 2.08, -0.71, 0.91, 10.29
49.257474, 4.021825, 1.77, -0.20, 1.23, 9.06
49.257474, 4.021825, 1.77, -0.09, 0.96, 9.33
49.257485, 4.021840, 1.48, -0.60, 0.83, 10.08
49.257485, 4.021840, 1.48, -0.16, 0.71, 9.63
49.257495, 4.021852, 0.86, -0.05, 0.83, 9.84
49.257495, 4.021852, 0.86, -0.07, 1.15, 10.05
49.257495, 4.021852, 0.00, -0.23, 1.13, 9.97
49.257495, 4.021852, 0.00, -0.01, 0.83, 9.94
49.257495, 4.021852, 0.00, -0.09, 1.38, 9.94
49.257495, 4.021852, 0.00, -0.10, 1.26, 9.76
49.257495, 4.021852, 0.00, -0.11, 1.40, 9.73
49.257495, 4.021852, 0.00, -0.12, 1.36, 9.76
49.257495, 4.021852, 0.00, -0.14, 1.32, 9.77
49.257495, 4.021852, 0.00, -0.13, 1.34, 9.77
49.257495, 4.021852, 0.00, -0.11, 1.36, 9.77
49.257495, 4.021852, 0.00, -0.12, 1.34, 9.77
49.257495, 4.021852, 0.00, -0.10, 1.40, 9.75
49.257495, 4.021852, 0.00, -0.11, 1.36, 9.81
49.257495, 4.021852, 0.00, -0.11, 1.34, 9.76
49.257495, 4.021852, 0.00, -0.13, 1.35, 9.78
49.257495, 4.021852, 0.00, -0.13, 1.33, 9.75
49.257495, 4.021852, 0.00, -0.13, 1.38, 9.75
49.257495, 4.021852, 0.00, -0.13, 1.35, 9.82
49.257495, 4.021852, 0.00, -0.11, 1.37, 9.77
49.257495, 4.021852, 0.00, -0.13, 1.36, 9.80
49.257495, 4.021852, 0.00, -0.14, 1.36, 9.74
49.257495, 4.021852, 0.00, -0.09, 1.34, 9.70
49.257495, 4.021852, 0.00, -0.12, 1.36, 9.75
49.257495, 4.021852, 0.00, -0.13, 1.37, 9.73
49.257495, 4.021852, 0.00, -0.12, 1.35, 9.76
49.257495, 4.021852, 0.00, -0.12, 1.35, 9.78
49.257495, 4.021852, 0.00, -0.11, 1.36, 9.74
49.257495, 4.021852, 0.00, -0.15, 1.35, 9.77
49.257495, 4.021852, 0.00, -0.11, 1.36, 9.78
49.257495, 4.021852, 0.00, -0.09, 1.37, 9.76
49.257495, 4.021852, 0.00, -0.11, 1.36, 9.74
49.257495, 4.021852, 0.00, -0.11, 1.34, 9.77
49.257495, 4.021852, 0.00, -0.15, 1.36, 9.76
49.257495, 4.021852, 0.00, -0.12, 1.34, 9.73
49.257495, 4.021852, 0.00, -0.12, 1.34, 9.77
49.257495, 4.021852, 0.00, -0.15, 1.35, 9.77
49.257495, 4.021852, 0.00, -0.12, 1.34, 9.77
49.257495, 4.021852, 0.00, -0.13, 1.34, 9.82
49.257495, 4.021852, 0.00, -0.13, 1.36, 9.79
49.257495, 4.021852, 0.00, -0.09, 1.36, 9.73
49.257495, 4.021852, 0.00, -0.12, 1.36, 9.75
49.257495, 4.021852, 0.00, -0.14, 1.35, 9.75
49.257495, 4.021852, 0.00, -0.11, 1.36, 9.78
49.257495, 4.021852, 0.00, -0.10, 1.36, 9.78
49.257495, 4.021852, 0.00, -0.12, 1.34, 9.74
49.257495, 4.021852, 0.00, -0.13, 1.36, 9.76
49.257495, 4.021852, 0.00, -0.13, 1.30, 9.76
49.257495, 4.021852, 0.00, -0.10, 1.36, 9.76
49.257495, 4.021852, 0.00, -0.15, 1.34, 9.74
49.257495, 4.021852, 0.00, -0.12, 1.33, 9.75
49.257495, 4.021852, 0.00, -0.11, 1.35, 9.76
49.257495, 4.021852, 0.00, -0.14, 1.36, 9.77
49.257495, 4.021852, 0.00, -0.13, 1.36, 9.76
49.257495, 4.021852, 0.00, -0.10, 1.36, 9.79
49.257495, 4.021852, 0.00, -0.14, 1.33, 9.77
49.257495, 4.021852, 0.00, -0.11, 1.34, 9.75
49.257495, 4.021852, 0.00, -0.09, 1.36, 9.78
49.257495, 4.021852, 0.00, -0.12, 1.34, 9.75
49.257495, 4.021852, 0.00, -0.10, 1.34, 9.74
49.257495, 4.021852, 0.00, -0.12, 1.34, 9.77
49.257495, 4.021852, 0.00, -0.14, 1.35, 9.78
49.257495, 4.021852, 0.00, -0.12, 1.34, 9.78
49.257495, 4.021852, 0.00, -0.11, 1.32, 9.73
49.257495, 4.021852, 0.00, -0.11, 1.34, 9.77
49.257495, 4.021852, 0.00, -0.11, 1.34, 9.75
49.257495, 4.021852, 0.00, -0.10, 1.36, 9.73
49.257495, 4.021852, 0.00, -0.11, 1.34, 9.77
49.257495, 4.021852, 0.00, -0.13, 1.36, 9.75
49.257495, 4.021852, 0.00, -0.14, 1.36, 9.80
49.257495, 4.021852, 0.00, -0.08, 1.34, 9.74
49.257495, 4.021852, 0.00, -0.09, 1.35, 9.75
49.257495, 4.021852, 0.00, -0.14, 1.55, 9.64
49.257495, 4.021852, 0.00, -0.15, 1.43, 9.82
49.257495, 4.021852, 0.00, -0.12, 1.40, 9.78
49.257495, 4.021852, 0.00, -0.24, 1.57, 9.76
49.257495, 4.021852, 0.00, -0.37, 1.43, 9.80
49.257495, 4.021852, 0.00, -0.25, 1.00, 9.86
49.257495, 4.021852, 0.00, -0.15, 1.48, 9.66
49.257495, 4.021852, 0.00, -0.21, 1.42, 9.73
49.257495, 4.021852, 0.00, -0.16, 1.38, 9.75
49.257495, 4.021852, 0.00, -0.23, 1.37, 9.77
49.257495, 4.021852, 0.00, -0.22, 1.40, 9.77
49.257495, 4.021852, 0.00, -0.16, 1.39, 9.76
49.257495, 4.021852, 0.00, -0.18, 1.36, 9.77
49.257495, 4.021852, 0.00, -0.23, 1.39, 9.77
49.257495, 4.021852, 0.00, -0.17, 1.37, 9.78
49.257495, 4.021852, 0.00, -0.20, 1.39, 9.80
49.257495, 4.021852, 0.00, -0.19, 1.40, 9.78
49.257495, 4.021852, 0.00, -0.20, 1.36, 9.74
49.257495, 4.021852, 0.00, -0.19, 1.38, 9.76
49.257495, 4.021852, 0.00, -0.19, 1.38, 9.78
49.257495, 4.021852, 0.00, -0.15, 1.36, 9.74
49.257495, 4.021852, 0.00, -0.22, 1.38, 9.75
49.257495, 4.021852, 0.00, -0.20, 1.37, 9.77
49.257495, 4.021852, 0.00, -0.18, 1.40, 9.75
49.257495, 4.021852, 0.00, -0.18, 1.39, 9.78
49.257495, 4.021852, 0.00, -0.21, 1.38, 9.78
49.257495, 4.021852, 0.00, -0.19, 1.38, 9.78
49.257495, 4.021852, 0.00, -0.18, 1.41, 9.77
49.257495, 4.021852, 0.00, -0.17, 1.40, 9.77
49.257495, 4.021852, 0.00, -0.20, 1.37, 9.75
49.257495, 4.021852, 0.00, -0.20, 1.37, 9.79
49.257495, 4.021852, 0.00, -0.20, 1.38, 9.77
49.257495, 4.021852, 0.00, -0.21, 1.36, 9.75
49.257495, 4.021852, 0.00, -0.18, 1.37, 9.76
49.257495, 4.021852, 0.00, -0.17, 1.37, 9.75
49.257495, 4.021852, 0.00, -0.14, 1.38, 9.75
49.257495, 4.021852, 0.00, -0.22, 1.37, 9.73
49.257495, 4.021852, 0.00, -0.18, 1.39, 9.73
49.257495, 4.021852, 0.00, -0.23, 1.39, 9.73
49.257495, 4.021852, 0.00, -0.20, 1.37, 9.77
49.257495, 4.021852, 0.00, -0.18, 1.36, 9.74
49.257495, 4.021852, 0.00, -0.20, 1.38, 9.74
49.257495, 4.021852, 0.00, -0.21, 1.41, 9.74
49.257495, 4.021852, 0.00, -0.16, 1.38, 9.77
49.257495, 4.021852, 0.00, -0.17, 1.40, 9.77
49.257495, 4.021852, 0.00, -0.18, 1.39, 9.76
49.257495, 4.021852, 0.00, -0.20, 1.40, 9.74
49.257495, 4.021852, 0.00, -0.20, 1.37, 9.74
49.257495, 4.021852, 0.00, -0.18, 1.38, 9.75
49.257495, 4.021852, 0.00, -0.17, 1.37, 9.79
49.257495, 4.021852, 0.00, -0.20, 1.42, 9.78
49.257495, 4.021852, 0.00, -0.16, 1.40, 9.78
49.257495, 4.021852, 0.00, -0.20, 1.38, 9.75
49.257495, 4.021852, 0.00, -0.20, 1.40, 9.75
49.257495, 4.021852, 0.00, -0.06, 1.54, 9.66
49.257495, 4.021852, 0.00, -0.18, 1.07, 9.73
49.257495, 4.021852, 0.00, -0.17, 1.28, 9.89
49.257495, 4.021852, 0.00, -0.22, 1.61, 9.67
49.257495, 4.021852, 0.00, -0.15, 1.74, 9.70
49.257495, 4.021852, 0.00, -0.25, 1.76, 9.65
49.257495, 4.021852, 0.00, -0.17, 1.85, 9.69
49.257495, 4.021852, 0.00, -0.39, 1.77, 9.94
49.257495, 4.021852, 0.00, -0.43, 1.77, 9.69
49.257495, 4.021852, 0.00, -0.32, 1.80, 9.59
49.257509, 4.021868, 0.81, -0.26, 0.41, 9.90
49.257509, 4.021868, 0.81, -0.19, 0.53, 9.99
49.257509, 4.021868, 0.00, -0.17, 1.05, 9.85
49.257509, 4.021868, 0.00, -0.32, 1.37, 9.84
49.257509, 4.021868, 0.00, -0.18, 1.43, 9.81
49.257509, 4.021868, 0.00, -0.22, 1.43, 9.75
49.257509, 4.021868, 0.00, -0.19, 1.40, 9.77
49.257509, 4.021868, 0.00, -0.21, 1.40, 9.73
49.257509, 4.021868, 0.00, -0.19, 1.42, 9.79
49.257509, 4.021868, 0.00, -0.22, 1.42, 9.82
49.257509, 4.021868, 0.00, -0.20, 1.39, 9.78
49.257509, 4.021868, 0.00, -0.22, 1.39, 9.78
49.257509, 4.021868, 0.00, -0.18, 1.41, 9.80
49.257509, 4.021868, 0.00, -0.19, 1.43, 9.79
49.257509, 4.021868, 0.00, -0.18, 1.41, 9.75
49.257509, 4.021868, 0.00, -0.20, 1.39, 9.76
49.257509, 4.021868, 0.00, -0.20, 1.40, 9.77
49.257509, 4.021868, 0.00, -0.23, 1.41, 9.79
49.257509, 4.021868, 0.00, -0.23, 1.42, 9.72
49.257509, 4.021868, 0.00, -0.20, 1.43, 9.73
49.257509, 4.021868, 0.00, -0.23, 1.41, 9.76
49.257509, 4.021868, 0.00, -0.23, 1.45, 9.78
49.257509, 4.021868, 0.00, -0.19, 1.39, 9.77
49.257509, 4.021868, 0.00, -0.14, 2.80, 9.57
49.257509, 4.021868, 0.00, -0.07, 3.26, 9.59
49.257509, 4.021868, 0.00, -0.19, 2.86, 9.91
49.257509, 4.021868, 0.00, -0.81, 3.02, 9.79
49.257509, 4.021868, 0.00, -1.09, 2.47, 9.86
49.257529, 4.021892, 2.61, -1.38, 2.93, 9.62
49.257529, 4.021892, 2.61, -1.66, 2.78, 8.93
49.257561, 4.021923, 4.67, -1.27, 2.56, 9.30
49.257561, 4.021923, 4.67, -1.26, 2.10, 9.72
49.257606, 4.021947, 4.98, -1.75, 3.05, 9.19
49.257606, 4.021947, 4.98, -0.94, 2.56, 9.37
49.257662, 4.021949, 6.31, -0.31, 2.30, 9.57
49.257725, 4.021929, 6.84, -0.19, 2.55, 9.51
49.257725, 4.021929, 6.84, 0.67, 3.22, 10.27
49.257807, 4.021890, 7.81, 1.39, 3.39, 10.15
49.257807, 4.021890, 7.81, 2.35, 2.11, 9.62
49.257891, 4.021837, 8.43, 0.77, 2.67, 9.56
49.257891, 4.021837, 8.43, -0.22, 1.88, 10.25
49.257987, 4.021798, 9.46, 0.11, 2.44, 10.02
49.257987, 4.021798, 9.46, 0.34, 2.71, 9.39
49.258093, 4.021794, 10.59, -0.46, 2.37, 8.69
49.258093, 4.021794, 10.59, -0.12, 1.94, 7.76
49.258203, 4.021794, 11.58, 1.58, -0.14, 12.41
49.258203, 4.021794, 11.58, -0.35, 1.89, 9.85
49.258322, 4.021811, 12.42, -0.38, 1.60, 10.18
49.258322, 4.021811, 12.42, -0.09, 1.70, 9.94
49.258448, 4.021835, 12.99, -1.83, 1.25, 10.16
49.258448, 4.021835, 12.99, -0.81, 0.44, 10.10
49.258573, 4.021859, 12.85, 0.24, 0.57, 11.25
49.258573, 4.021859, 12.85, 0.17, 0.88, 8.03
49.258694, 4.021875, 12.79, -0.28, 0.93, 10.20
49.258694, 4.021875, 12.79, 1.03, 1.96, 8.80
49.258810, 4.021903, 12.55, 1.68, 1.74, 12.63
49.258810, 4.021903, 12.55, 2.45, 0.78, 10.42
49.258940, 4.021954, 12.68, 1.87, 1.88, 10.74
49.258940, 4.021954, 12.68, 0.61, 0.95, 9.62
49.259058, 4.022019, 12.59, -0.20, 1.49, 8.70
49.259058, 4.022019, 12.59, -0.13, 1.28, 10.54
49.259162, 4.022091, 12.39, -0.42, 1.48, 8.53
49.259162, 4.022091, 12.39, 0.93, 2.19, 7.79
49.259269, 4.022169, 12.16, -0.57, 1.13, 8.24
49.259269, 4.022169, 12.16, -1.03, 1.00, 9.08
49.259371, 4.022245, 11.89, -0.86, 1.24, 9.71
49.259371, 4.022245, 11.89, -0.82, 1.08, 11.48
49.259468, 4.022330, 11.45, -0.70, 2.15, 7.37
49.259468, 4.022330, 11.45, 0.02, 0.88, 9.86
49.259556, 4.022415, 10.74, -0.50, 0.36, 10.77
49.259556, 4.022415, 10.74, -1.67, 0.67, 10.37
49.259635, 4.022496, 9.77, -2.93, 0.89, 9.94
49.259635, 4.022496, 9.77, -3.43, 0.42, 9.60
49.259702, 4.022567, 8.95, -3.10, 1.38, 9.26
49.259766, 4.022618, 8.45, -3.10, 1.51, 9.63
49.259766, 4.022618, 8.45, -2.96, 1.52, 9.69
49.259828, 4.022647, 7.61, -1.99, 1.22, 10.17
49.259828, 4.022647, 7.61, -1.56, 1.08, 9.45
49.259899, 4.022644, 8.52, -0.87, 0.34, 9.96
49.259899, 4.022644, 8.52, -1.11, 0.44, 8.81
49.259982, 4.022570, 7.95, -1.44, 0.01, 9.66
49.259982, 4.022570, 7.95, -0.91, 0.29, 10.43
49.260043, 4.022514, 6.91, -0.67, 0.37, 10.48
49.260043, 4.022514, 6.91, -0.77, 0.34, 10.54
49.260098, 4.022487, 6.15, -0.64, -0.26, 9.77
49.260098, 4.022487, 6.15, -0.90, 0.25, 10.16
49.260144, 4.022465, 4.99, -0.36, 0.24, 9.69
49.260144, 4.022465, 4.99, -0.91, 0.49, 9.86
49.260181, 4.022451, 4.16, -1.11, 0.18, 10.30
49.260181, 4.022451, 4.16, -0.72, 0.03, 10.45
49.260203, 4.022442, 2.19, -0.70, 0.12, 9.51
49.260203, 4.022442, 2.19, -0.67, -0.10, 9.80
49.260218, 4.022437, 1.25, -0.88, -0.15, 8.48
49.260218, 4.022437, 1.25, -0.67, 0.38, 10.07
49.260218, 4.022437, 0.00, -0.67, 0.76, 9.83
49.260218, 4.022437, 0.00, -0.64, 0.53, 9.78
49.260218, 4.022437, 0.00, -0.56, 1.32, 9.99
49.260218, 4.022437, 0.00, -0.63, 1.19, 9.64
49.260218, 4.022437, 0.00, -0.66, 1.12, 9.74
49.260218, 4.022437, 0.00, -0.66, 1.19, 9.73
49.260218, 4.022437, 0.00, -0.63, 1.22, 9.71
49.260218, 4.022437, 0.00, -0.76, 2.74, 9.44
49.260218, 4.022437, 0.00, -0.59, 3.02, 9.41
49.260218, 4.022437, 0.00, -0.38, 2.89, 9.60
49.260218, 4.022437, 0.00, -0.53, 2.74, 10.01
49.260218, 4.022437, 0.00, -0.32, 3.33, 9.75
49.260252, 4.022407, 2.99, 1.42, 2.45, 9.92
49.260252, 4.022407, 2.99, 1.76, 2.39, 9.47
49.260288, 4.022387, 4.43, 1.88, 1.74, 10.89
49.260288, 4.022387, 4.43, 2.85, 2.15, 9.49
49.260327, 4.022367, 4.30, 2.49, 2.55, 10.55
49.260327, 4.022367, 4.30, 2.06, 2.42, 9.19
49.260367, 4.022381, 4.54, 1.19, 3.47, 9.83
49.260367, 4.022381, 4.54, -0.32, 2.83, 9.79
49.260418, 4.022451, 6.43, -0.41, 2.44, 10.94
49.260471, 4.022559, 7.59, -0.01, 3.44, 10.46
49.260471, 4.022559, 7.59, -1.84, 2.42, 9.10
49.260531, 4.022667, 8.90, 0.25, 2.08, 8.81
49.260531, 4.022667, 8.90, -0.75, 2.13, 10.94
49.260600, 4.022778, 9.40, -1.25, 1.66, 8.06
49.260600, 4.022778, 9.40, -1.02, 1.41, 10.02
49.260663, 4.022903, 9.47, -0.88, 2.19, 9.35
49.260663, 4.022903, 9.47, 0.37, 3.58, 9.35
49.260728, 4.023040, 10.94, -0.14, 1.81, 10.30
49.260728, 4.023040, 10.94, -0.96, 1.81, 11.25
49.260805, 4.023192, 12.09, -1.02, 0.78, 10.48
49.260805, 4.023192, 12.09, -1.14, 1.33, 8.40
49.260875, 4.023355, 12.33, -0.72, 1.46, 9.38
49.260875, 4.023355, 12.33, -3.12, 0.65, 8.22
49.260944, 4.023511, 11.89, -1.73, 1.24, 10.78
49.260944, 4.023511, 11.89, 0.45, -0.15, 10.49
49.261017, 4.023663, 12.01, -0.58, 1.10, 10.54
49.261017, 4.023663, 12.01, -0.80, 1.11, 9.82
49.261085, 4.023818, 12.39, -0.31, 0.89, 10.53
49.261085, 4.023818, 12.39, -1.13, 1.25, 10.82
49.261155, 4.023962, 12.19, -0.25, 0.42, 9.08
49.261155, 4.023962, 12.19, -1.36, 1.33, 8.90
49.261231, 4.024105, 12.24, -2.92, -0.74, 11.56
49.261231, 4.024105, 12.24, 0.19, 0.48, 10.37
49.261300, 4.024240, 11.87, -1.25, -0.53, 9.38
49.261300, 4.024240, 11.87, -0.23, 0.26, 10.95
49.261363, 4.024363, 10.82, -0.70, 0.45, 9.17
49.261363, 4.024363, 10.82, -0.79, -0.13, 9.49
49.261424, 4.024481, 9.90, -0.30, -0.97, 10.71
49.261424, 4.024481, 9.90, -0.57, -0.42, 9.85
49.261475, 4.024584, 8.31, -0.42, -0.47, 9.60
49.261475, 4.024584, 8.31, -0.30, -0.23, 10.97
49.261522, 4.024673, 7.26, -0.56, -1.25, 9.87
49.261522, 4.024673, 7.26, -0.68, -0.80, 10.26
49.261552, 4.024754, 4.80, -0.58, -1.30, 10.31
49.261552, 4.024754, 4.80, -0.62, -0.53, 9.88
49.261571, 4.024806, 2.74, -0.48, 0.64, 9.59
49.261571, 4.024806, 2.74, -0.62, 1.41, 9.62
49.261580, 4.024838, 1.40, -1.00, 2.04, 9.41
49.261580, 4.024838, 1.40, -1.92, 2.00, 9.48
49.261590, 4.024863, 1.91, -1.79, 2.10, 9.90
49.261590, 4.024863, 1.91, -2.55, 2.11, 9.83
49.261602, 4.024882, 2.11, -2.14, 1.67, 9.87
49.261624, 4.024890, 3.25, -2.70, 1.89, 9.67
49.261624, 4.024890, 3.25, -2.55, 1.99, 8.64
49.261657, 4.024868, 5.15, -1.26, 1.88, 9.84
49.261657, 4.024868, 5.15, -1.55, 2.13, 9.26
49.261697, 4.024823, 5.17, -2.03, 2.22, 9.85
49.261697, 4.024823, 5.17, -0.94, 1.47, 11.77
49.261736, 4.024761, 6.33, -2.28, 2.00, 10.60
49.261736, 4.024761, 6.33, -1.39, 1.98, 8.27
49.261761, 4.024671, 7.19, -2.54, 1.39, 11.78
49.261761, 4.024671, 7.19, -0.33, 2.61, 9.86
49.261773, 4.024563, 7.27, -1.86, 1.86, 8.94
49.261773, 4.024563, 7.27, -0.79, 2.62, 9.54
49.261793, 4.024450, 8.27, -0.16, 2.59, 11.22
49.261793, 4.024450, 8.27, -0.73, 1.15, 9.84
49.261806, 4.024316, 9.23, 0.27, 2.75, 9.65
49.261806, 4.024316, 9.23, -1.17, 1.50, 11.29
49.261818, 4.024167, 9.42, 0.26, 1.48, 9.44
49.261818, 4.024167, 9.42, 0.56, 1.41, 9.05
49.261834, 4.024025, 9.73, 0.10, 0.93, 8.57
49.261834, 4.024025, 9.73, 1.42, 2.59, 6.94
49.261853, 4.023885, 9.58, 1.32, 0.48, 9.50
49.261853, 4.023885, 9.58, 0.35, 1.38, 9.50
49.261875, 4.023748, 9.22, 1.68, 0.46, 9.10
49.261875, 4.023748, 9.22, -0.66, 0.36, 10.47
49.261895, 4.023618, 9.15, 1.39, 1.38, 9.75
49.261895, 4.023618, 9.15, -0.06, 0.76, 10.78
49.261915, 4.023496, 8.65, -0.69, 0.39, 9.69
49.261915, 4.023496, 8.65, -0.68, 0.23, 9.89
49.261932, 4.023382, 7.92, -0.41, 1.72, 9.06
49.261932, 4.023382, 7.92, -0.19, 1.44, 9.37
49.261949, 4.023274, 7.67, -0.74, 0.10, 9.91
49.261949, 4.023274, 7.67, -0.66, 0.99, 9.68
49.261964, 4.023174, 6.84, -0.27, 0.62, 9.13
49.261964, 4.023174, 6.84, -0.84, 0.80, 9.49
49.261978, 4.023087, 6.15, -1.71, 0.06, 10.64
49.261978, 4.023087, 6.15, -2.25, -0.38, 8.20
49.261987, 4.023012, 4.99, -1.82, -0.82, 8.59
49.261987, 4.023012, 4.99, -1.02, -0.75, 9.42
49.261995, 4.022962, 3.17, -0.32, -0.36, 9.81
49.261995, 4.022962, 3.17, -0.20, 0.07, 9.71
49.262001, 4.022934, 1.59, 0.08, 0.31, 9.83
49.262001, 4.022934, 0.00, 0.07, 0.81, 9.60
49.262001, 4.022934, 0.00, 0.24, 1.18, 9.85
49.262001, 4.022934, 0.00, -0.46, 1.35, 9.80
49.262001, 4.022934, 0.00, -1.78, -0.04, 10.23
49.262001, 4.022934, 0.00, -1.14, 0.98, 10.14
49.262001, 4.022934, 0.00, -0.68, 1.70, 9.67
49.262001, 4.022934, 0.00, -0.40, 2.11, 9.54
49.262001, 4.022934, 0.00, 0.26, 2.10, 9.25
49.262001, 4.022934, 0.00, -1.70, 1.84, 10.98
49.262001, 4.022934, 0.00, -0.59, 1.76, 9.65
49.262001, 4.022934, 0.00, -0.53, 1.17, 9.88
49.262001, 4.022934, 0.00, -0.42, 1.20, 9.73
49.262001, 4.022934, 0.00, -0.45, 1.42, 9.77
49.262001, 4.022934, 0.00, -0.41, 1.40, 9.49
49.262001, 4.022934, 0.00, -0.50, 1.24, 9.21
49.262001, 4.022934, 0.00, -0.24, 1.42, 9.90
49.262001, 4.022934, 0.00, -0.42, 1.31, 9.54
49.262001, 4.022934, 0.00, -0.61, 1.13, 9.55
49.262001, 4.022934, 0.00, -0.41, 1.00, 9.79
49.262001, 4.022934, 0.00, -0.36, 1.24, 9.84
