Location-lat,Location-long,Speed,Accelerometer-X,Accelerometer-Y,Accelerometer-Z
49.035889,4.316932,29.72,-0.23,2.45,8.56
49.035889,4.316932,29.72,0.62,2.95,10.58
49.035889,4.316932,29.72,0.47,3.1,9.4
48.952843,4.34634,0.0,-0.77,5.5,8.08
48.952843,4.34634,0.0,1.23,6.37,7.26
48.952843,4.34634,0.0,0.16,6.14,8.09
48.952843,4.34634,0.0,0.49,5.77,7.86
48.952843,4.34634,0.0,3.28,6.9,7.38
49.051803,4.169273,21.3,2.08,7.15,6.35
49.051803,4.169273,21.3,-0.87,7.46,6.08
49.051968,4.169043,20.3,-0.41,7.77,6.15
49.051968,4.169043,20.3,0.66,7.23,7.14
49.052104,4.168857,19.99,-3.62,3.63,6.0
49.052104,4.168857,19.99,-3.24,3.59,10.18
49.052237,4.168674,20.06,2.28,0.72,11.97
49.052237,4.168674,20.06,4.82,1.25,8.94
49.052237,4.168674,20.06,4.1,-0.28,4.57
49.052452,4.168407,20.41,3.85,-2.63,7.42
49.052452,4.168407,20.41,1.75,-1.58,7.59
49.052596,4.168227,20.58,1.14,-0.73,8.89
49.052596,4.168227,20.58,1.06,-3.12,10.88
49.05274,4.168043,20.84,0.88,-2.43,8.88
49.05274,4.168043,20.84,1.75,-2.61,10.62
49.052883,4.16786,21.05,0.63,-3.33,9.65
49.052883,4.16786,21.05,1.3,-1.84,9.23
49.05303,4.167672,21.24,0.46,-1.36,7.12
49.053178,4.167482,21.5,0.24,-1.92,9.94
49.053178,4.167482,21.5,1.15,-1.53,9.77
49.053326,4.167293,21.76,0.48,-2.36,10.63
49.053326,4.167293,21.76,1.85,-1.82,8.84
49.053476,4.167099,22.07,1.64,-2.74,9.46
49.053476,4.167099,22.07,0.67,-3.42,11.34
49.053627,4.166903,22.27,0.95,-2.04,9.86
49.053627,4.166903,22.27,1.48,-2.26,10.41
49.053782,4.166706,22.48,0.91,-2.23,8.37
49.053782,4.166706,22.48,0.63,-3.37,10.64
49.053938,4.166509,22.62,0.9,-1.8,8.33
49.053938,4.166509,22.62,-0.11,-2.05,9.43
49.054095,4.166311,22.77,1.89,-0.99,7.46
49.054095,4.166311,22.77,0.83,-1.15,9.84
49.054251,4.166113,22.72,2.26,-0.96,9.42
49.054251,4.166113,22.72,2.08,-1.99,10.2
49.054407,4.165917,22.39,0.85,-1.72,9.59
49.054407,4.165917,22.39,0.95,-2.68,7.2
49.054561,4.165724,22.2,1.81,-3.55,11.38
49.054561,4.165724,22.2,1.4,-2.16,8.8
49.054714,4.165532,22.11,1.77,-2.0,8.39
49.054714,4.165532,22.11,1.23,-0.88,9.49
49.054866,4.16534,22.04,1.67,-2.2,10.49
49.054866,4.16534,22.04,2.1,-0.56,8.21
49.055017,4.165148,22.04,1.33,-1.12,10.54
49.055017,4.165148,22.04,1.71,-2.14,9.28
49.055168,4.164958,21.85,1.13,-2.57,10.8
49.055168,4.164958,21.85,1.6,-1.59,9.56
49.05532,4.164768,21.85,1.84,-3.39,10.27
49.05532,4.164768,21.85,0.93,-2.99,10.16
49.055472,4.164579,21.77,1.32,-3.19,11.01
49.055472,4.164579,21.77,0.8,-2.19,10.69
49.05562,4.164386,21.68,0.25,-2.22,10.11
49.05562,4.164386,21.68,1.74,-1.91,8.83
49.055767,4.164191,21.85,1.06,-3.47,8.75
49.055767,4.164191,21.85,1.49,-2.3,10.86
49.055915,4.163997,22.0,-0.26,-2.98,10.22
49.055915,4.163997,22.0,1.24,-1.97,9.06
49.056068,4.163804,22.13,0.95,-2.39,9.71
49.056068,4.163804,22.13,0.9,-1.57,8.86
49.056222,4.16361,22.3,1.81,-3.16,9.58
49.056222,4.16361,22.3,1.34,-2.38,8.9
49.056378,4.163409,22.46,0.65,-3.3,9.54
49.056537,4.163213,22.48,0.98,-1.77,8.75
49.056537,4.163213,22.48,1.47,-2.15,8.56
49.056693,4.163017,22.32,2.0,-1.09,9.06
49.056693,4.163017,22.32,1.36,-2.52,8.77
49.056847,4.162822,22.34,1.81,-1.95,9.35
49.056847,4.162822,22.34,1.43,-1.63,9.59
49.057003,4.162627,22.41,2.24,-1.47,9.46
49.057003,4.162627,22.41,0.82,-2.11,10.59
49.05716,4.162433,22.42,1.09,-2.61,10.82
49.05716,4.162433,22.42,-0.07,-3.54,10.49
49.057316,4.16224,22.46,0.22,-2.86,10.23
49.057316,4.16224,22.46,0.67,-3.39,9.87
49.057473,4.162045,22.42,1.44,-2.19,9.46
49.057473,4.162045,22.42,1.82,-2.08,8.49
49.057628,4.161849,22.37,0.95,-2.05,9.55
49.057628,4.161849,22.37,2.56,-2.46,9.2
49.057783,4.161655,22.24,0.74,-2.48,9.56
49.057783,4.161655,22.24,1.99,-1.9,9.07
49.057936,4.161461,22.18,1.92,-0.96,9.65
49.057936,4.161461,22.18,1.5,-2.71,9.5
49.058089,4.161263,22.18,0.93,-2.3,10.78
49.058089,4.161263,22.18,0.89,-2.88,8.75
49.058243,4.16107,22.07,0.97,-2.42,10.83
49.058243,4.16107,22.07,2.16,-1.79,8.71
49.058389,4.16088,21.92,1.36,-2.47,9.46
49.058389,4.16088,21.92,0.99,-1.39,9.12
49.058539,4.160695,21.77,1.07,-0.7,9.83
49.058539,4.160695,21.77,1.13,-2.89,9.74
49.058692,4.160506,21.77,1.19,-1.85,11.33
49.058692,4.160506,21.77,1.05,-2.49,10.09
49.058843,4.16032,21.77,1.43,-2.28,8.99
49.058843,4.16032,21.77,0.86,-2.15,10.42
49.058992,4.160133,21.73,0.62,-2.3,9.44
49.058992,4.160133,21.73,1.24,-2.67,10.29
49.059145,4.159942,21.71,1.36,-1.49,8.17
49.059145,4.159942,21.71,0.22,-3.55,10.77
49.059296,4.15975,21.77,1.24,-2.09,8.91
49.059296,4.15975,21.77,1.15,-2.56,11.85
49.05945,4.159559,21.97,0.26,-1.38,6.23
49.05945,4.159559,21.97,1.31,-2.82,10.08
49.059604,4.159364,22.04,1.18,-3.43,8.69
49.059604,4.159364,22.04,1.26,-2.94,9.27
49.059758,4.159171,22.32,1.49,-1.27,9.58
49.059911,4.158976,22.27,1.43,-2.86,10.18
49.059911,4.158976,22.27,1.42,-2.43,8.78
49.060068,4.158784,22.34,0.8,-1.55,9.36
49.060068,4.158784,22.34,0.83,-1.62,9.14
49.060222,4.158585,22.4,1.5,-2.1,9.26
49.060222,4.158585,22.4,1.02,-1.44,7.78
49.060378,4.158388,22.55,1.03,-2.85,9.85
49.060378,4.158388,22.55,0.8,-2.67,9.12
49.060538,4.158193,22.76,1.72,-2.26,9.79
49.060538,4.158193,22.76,1.43,-1.83,9.49
49.060697,4.157998,22.77,1.06,-2.77,9.16
49.060697,4.157998,22.77,1.41,-1.84,8.28
49.060859,4.157805,22.86,0.07,-2.05,9.77
49.060859,4.157805,22.86,1.75,-2.18,8.82
49.061015,4.157602,22.97,1.53,-2.4,9.23
49.061015,4.157602,22.97,2.06,-2.1,9.28
49.061172,4.157397,23.06,0.46,-2.51,9.08
49.061172,4.157397,23.06,1.3,-1.58,9.18
49.061331,4.157194,23.11,1.97,-1.03,9.11
49.061331,4.157194,23.11,0.79,-1.46,9.7
49.061492,4.156995,23.19,0.15,-1.47,8.94
49.061492,4.156995,23.19,1.42,-2.96,9.59
49.061654,4.156796,23.2,1.72,-1.47,9.23
49.061654,4.156796,23.2,2.15,-1.5,9.04
49.061815,4.156592,23.2,1.41,-1.85,10.47
49.061815,4.156592,23.2,1.56,-2.25,10.48
49.061976,4.156391,23.15,1.22,-0.77,8.98
49.061976,4.156391,23.15,1.7,-2.85,9.24
49.062135,4.156189,23.07,1.85,-1.48,7.19
49.062135,4.156189,23.07,1.98,-2.54,9.86
49.062295,4.15599,22.89,1.97,-2.58,10.0
49.062295,4.15599,22.89,0.97,-2.46,9.78
49.062453,4.155791,22.67,1.27,-2.22,9.84
49.062453,4.155791,22.67,0.96,-2.54,10.0
49.062609,4.155595,22.37,2.33,-1.55,9.89
49.062609,4.155595,22.37,2.6,-1.38,9.18
49.062766,4.155405,22.29,0.76,-3.55,10.87
49.062766,4.155405,22.29,1.83,-3.04,8.57
49.062921,4.155214,22.14,1.58,-1.64,9.39
49.062921,4.155214,22.14,1.18,-2.46,9.74
49.063074,4.155024,22.0,1.56,-2.8,9.29
49.063074,4.155024,22.0,1.04,-2.73,9.42
49.063226,4.154832,21.92,0.57,-2.66,11.02
49.063378,4.154638,22.04,1.85,-2.23,9.06
49.063378,4.154638,22.04,1.76,-2.84,10.39
49.063532,4.154448,22.06,1.13,-2.64,9.11
49.063532,4.154448,22.06,2.04,-1.64,7.88
49.063687,4.154256,22.07,1.87,-2.74,10.71
49.063687,4.154256,22.07,0.86,-1.8,9.95
49.06384,4.154065,22.18,1.08,-2.31,9.06
49.06384,4.154065,22.18,1.34,-2.7,10.02
49.063992,4.153869,22.19,2.06,-1.86,8.96
49.063992,4.153869,22.19,1.35,-1.84,9.77
49.064144,4.153675,22.24,1.03,-1.87,10.89
49.064144,4.153675,22.24,1.46,-1.55,8.81
49.064294,4.153475,22.14,0.87,-2.45,10.07
49.064294,4.153475,22.14,1.79,-1.48,9.98
49.06445,4.153283,22.26,1.49,-0.79,8.06
49.06445,4.153283,22.26,0.65,-2.44,10.26
49.064606,4.153089,22.37,2.1,-2.21,8.26
49.064606,4.153089,22.37,1.47,-2.94,10.43
49.064763,4.152894,22.41,1.86,-2.72,8.81
49.064763,4.152894,22.41,1.23,-2.51,10.04
49.064921,4.1527,22.5,2.43,-2.18,10.2
49.064921,4.1527,22.5,0.43,-2.76,10.48
49.065077,4.152502,22.51,1.42,-1.87,10.44
49.065077,4.152502,22.51,1.47,-3.06,8.6
49.065232,4.152305,22.48,1.14,-1.81,9.74
49.065232,4.152305,22.48,1.96,-2.2,8.79
49.065389,4.152113,22.43,1.57,-1.02,9.81
49.065389,4.152113,22.43,1.64,-2.15,8.94
49.065543,4.151917,22.48,0.97,-2.68,10.81
49.065543,4.151917,22.48,1.39,-1.88,8.76
49.065696,4.151719,22.39,0.86,-2.47,9.84
49.065696,4.151719,22.39,1.38,-1.99,9.26
49.06585,4.151522,22.4,-0.57,-4.13,11.07
49.06585,4.151522,22.4,0.92,-1.39,8.89
49.066007,4.151324,22.35,0.85,-3.21,10.61
49.066007,4.151324,22.35,1.02,-2.04,10.58
49.066159,4.151129,22.22,2.22,-1.5,10.44
49.066159,4.151129,22.22,2.03,-1.97,8.93
49.066311,4.150935,22.1,1.36,-2.29,10.61
49.066311,4.150935,22.1,0.6,-3.59,10.82
49.066464,4.150745,21.83,1.07,-2.87,9.3
49.066464,4.150745,21.83,0.8,-3.84,8.39
49.066616,4.15056,21.48,1.57,-2.04,9.78
49.066764,4.150374,21.4,1.75,-2.08,8.57
49.066764,4.150374,21.4,1.87,-1.63,9.07
49.066913,4.150188,21.39,0.65,-3.36,10.14
49.066913,4.150188,21.39,0.86,-2.72,9.58
49.067057,4.150001,21.42,0.83,-1.9,9.35
49.067057,4.150001,21.42,0.78,-2.27,9.89
49.06721,4.149815,21.4,0.35,-2.84,11.29
49.06721,4.149815,21.4,1.25,-2.02,9.37
49.067361,4.149634,21.28,1.02,-3.41,10.32
49.067361,4.149634,21.28,1.4,-1.75,9.48
49.067509,4.149451,21.34,1.75,-1.9,9.84
49.067509,4.149451,21.34,1.32,-2.23,8.52
49.067655,4.149261,21.24,0.92,-2.52,9.12
49.067655,4.149261,21.24,1.26,-2.55,9.62
49.067803,4.149072,21.3,1.13,-1.71,9.19
49.067803,4.149072,21.3,1.94,-0.44,8.5
49.06795,4.148883,21.46,-0.17,-3.4,9.43
49.06795,4.148883,21.46,1.27,-2.31,8.01
49.068098,4.148692,21.49,-0.01,-1.81,9.83
49.068098,4.148692,21.49,1.11,-2.02,9.54
49.068247,4.1485,21.68,1.71,-1.36,8.05
49.068247,4.1485,21.68,0.52,-2.08,9.83
49.068396,4.148307,21.83,0.66,-2.17,10.65
49.068396,4.148307,21.83,1.16,-1.44,10.19
49.06855,4.14812,21.95,0.17,-1.87,11.48
49.06855,4.14812,21.95,0.12,-2.09,9.43
49.068701,4.14793,21.98,1.1,-2.48,9.91
49.068701,4.14793,21.98,0.34,-3.35,11.19
49.068856,4.147738,22.15,0.95,-2.72,9.92
49.068856,4.147738,22.15,0.82,-1.8,10.42
49.069012,4.147544,22.38,0.1,-2.66,9.35
49.069012,4.147544,22.38,1.63,-2.6,10.53
49.069168,4.14735,22.39,0.46,-2.62,9.5
49.069168,4.14735,22.39,2.03,-1.97,9.04
49.069324,4.147155,22.5,0.81,-2.5,8.98
49.069324,4.147155,22.5,1.22,-2.91,9.09
49.069478,4.14696,22.53,0.68,-1.38,8.93
49.069478,4.14696,22.53,1.16,-2.68,9.82
49.069633,4.146759,22.53,1.13,-2.47,9.0
49.069785,4.146561,22.51,0.34,-2.04,11.92
49.069785,4.146561,22.51,1.33,-1.57,9.43
49.069937,4.146364,22.51,2.2,-2.3,9.03
49.069937,4.146364,22.51,0.67,-1.44,10.12
49.070088,4.146171,22.45,1.63,-1.74,9.55
49.070088,4.146171,22.45,0.88,-2.59,10.38
49.07024,4.145973,22.39,0.61,-2.42,9.84
49.07024,4.145973,22.39,1.22,-1.65,7.87
49.070402,4.145782,22.47,1.27,-2.33,11.08
49.070402,4.145782,22.47,1.74,-2.54,9.17
49.070561,4.14559,22.5,0.6,-2.48,9.18
49.070561,4.14559,22.5,1.21,-2.4,9.93
49.070717,4.145391,22.57,0.73,-2.39,10.74
49.070717,4.145391,22.57,1.25,-1.27,9.44
49.070878,4.145191,22.6,1.2,-2.0,9.87
49.070878,4.145191,22.6,1.07,-2.21,9.45
49.071034,4.144994,22.56,1.01,-2.62,9.68
49.071034,4.144994,22.56,0.63,-2.42,10.03
49.071184,4.144796,22.51,0.53,-1.6,8.38
49.071184,4.144796,22.51,1.45,-1.25,10.2
49.071338,4.1446,22.42,0.31,-2.05,8.55
49.071338,4.1446,22.42,0.11,-2.4,11.31
49.071489,4.144403,22.47,0.61,-2.52,10.07
49.071489,4.144403,22.47,1.74,-2.08,9.72
49.07165,4.14421,22.44,1.3,-1.69,9.54
49.07165,4.14421,22.44,0.61,-3.63,9.98
49.071813,4.14402,22.45,1.58,-0.16,9.13
49.071813,4.14402,22.45,0.91,-0.85,9.19
49.07197,4.143828,22.35,1.48,-1.41,8.06
49.07197,4.143828,22.35,1.41,-2.0,9.43
49.072126,4.143631,22.28,0.99,-1.83,10.1
49.072126,4.143631,22.28,-0.41,-2.16,9.96
49.072279,4.143432,22.31,0.57,-2.8,10.27
49.072279,4.143432,22.31,0.55,-1.58,9.84
49.072433,4.143238,22.17,0.65,-2.47,8.97
49.072433,4.143238,22.17,0.71,-3.59,9.98
49.072588,4.143049,22.09,0.35,-2.67,10.12
49.072588,4.143049,22.09,0.98,-2.98,9.26
49.07274,4.142857,22.03,2.47,-2.07,9.85
49.07274,4.142857,22.03,0.93,-2.74,10.2
49.07289,4.142659,22.01,1.26,-2.7,9.82
49.07289,4.142659,22.01,0.49,-1.22,9.35
49.073041,4.142467,21.98,1.49,-2.59,8.85
49.073189,4.14228,21.3,1.1,-2.07,10.54
49.073189,4.14228,21.3,2.05,-2.4,9.17
49.073333,4.142099,20.41,1.91,-2.72,11.34
49.073333,4.142099,20.41,3.17,-0.87,8.36
49.073468,4.14193,18.85,2.5,-2.58,9.21
49.073468,4.14193,18.85,1.74,-0.96,8.71
49.073588,4.141769,17.45,1.96,-0.88,8.97
49.073588,4.141769,17.45,2.09,-2.87,9.02
49.0737,4.141621,16.24,2.15,-2.62,9.29
49.0737,4.141621,16.24,2.82,-1.94,7.86
49.073803,4.141486,14.66,1.99,-2.8,9.73
49.073803,4.141486,14.66,2.19,-2.4,9.82
49.073899,4.141359,13.74,1.19,-2.94,9.68
49.073899,4.141359,13.74,2.39,-1.88,8.04
49.073979,4.141238,12.88,1.94,-2.24,9.51
49.073979,4.141238,12.88,1.64,-2.42,9.56
49.074049,4.141128,11.28,1.59,-1.82,9.5
49.074049,4.141128,11.28,1.48,-0.2,9.05
49.074118,4.141027,10.58,0.96,0.46,9.69
49.074118,4.141027,10.58,0.87,0.44,11.16
49.074191,4.140941,10.2,0.78,-0.73,10.61
49.074191,4.140941,10.2,0.57,-2.06,9.6
49.074277,4.140883,10.0,0.36,-3.28,9.29
49.074277,4.140883,10.0,1.26,-5.2,9.2
49.074362,4.140828,10.15,1.43,-5.12,8.45
49.074362,4.140828,10.15,0.93,-5.07,8.69
49.074437,4.140745,9.91,1.58,-4.94,8.97
49.074437,4.140745,9.91,2.26,-4.24,7.91
49.074489,4.140627,9.75,1.77,-2.24,8.94
49.074489,4.140627,9.75,1.59,-0.09,9.35
49.074524,4.140485,9.31,0.56,-0.65,10.47
49.074524,4.140485,9.31,0.55,2.26,11.16
49.074552,4.140357,9.33,-1.07,1.73,10.12
49.074552,4.140357,9.33,-0.94,-0.53,10.97
49.074603,4.140269,9.91,-0.73,-1.15,9.87
49.074603,4.140269,9.91,-0.92,-2.11,10.49
49.074689,4.140197,11.45,-0.89,-2.1,10.18
49.074689,4.140197,11.45,-0.6,-2.95,10.03
49.074783,4.140131,12.64,0.04,-2.63,8.96
49.074783,4.140131,12.64,-0.08,-2.94,10.11
49.074891,4.140051,13.73,0.55,-3.03,9.38
49.074891,4.140051,13.73,-0.36,-2.34,8.74
49.075005,4.139957,14.59,0.01,-2.14,8.59
49.075124,4.139839,15.5,-0.45,-3.03,9.63
49.075124,4.139839,15.5,0.46,-3.39,9.87
49.075236,4.139707,16.16,0.52,-2.49,9.79
49.075236,4.139707,16.16,0.29,-2.78,10.5
49.075348,4.139558,16.97,-0.18,-2.52,9.05
49.075348,4.139558,16.97,0.15,-2.42,8.2
49.075463,4.139401,17.71,-0.33,-3.48,8.87
49.075463,4.139401,17.71,0.24,-1.4,7.24
49.07559,4.139243,18.28,0.38,-2.66,9.67
49.07559,4.139243,18.28,-0.53,-2.47,10.33
49.075714,4.139078,18.91,-0.44,-3.49,10.66
49.075714,4.139078,18.91,0.72,-2.97,9.39
49.075849,4.138905,19.6,0.98,-1.9,8.73
49.075849,4.138905,19.6,0.5,-2.96,11.25
49.075987,4.138726,20.14,0.95,-2.14,9.71
49.075987,4.138726,20.14,0.21,-1.48,10.51
49.076131,4.138545,20.56,-0.12,-2.31,9.5
49.076131,4.138545,20.56,-0.04,-1.03,8.84
49.076275,4.138365,20.77,0.08,-1.98,10.64
49.076275,4.138365,20.77,0.51,-1.94,10.43
49.076423,4.138179,21.12,0.13,-1.7,8.51
49.076423,4.138179,21.12,0.62,-2.03,7.02
49.076575,4.137994,21.39,1.23,-2.23,12.03
49.076575,4.137994,21.39,0.67,-2.29,10.21
49.076728,4.137807,21.51,0.69,-2.58,11.33
49.076728,4.137807,21.51,1.35,-2.73,8.65
49.076882,4.137623,21.69,1.91,-1.97,8.5
49.076882,4.137623,21.69,0.64,-2.04,9.84
49.077035,4.137435,21.72,0.81,-2.63,9.68
49.077035,4.137435,21.72,1.02,-1.92,8.93
49.077183,4.13725,21.86,1.43,-2.2,9.1
49.077183,4.13725,21.86,0.39,-3.38,9.06
49.077332,4.13706,22.05,-0.17,-3.86,10.54
49.077332,4.13706,22.05,1.09,-2.46,8.94
49.077478,4.136867,22.21,0.4,-2.21,10.55
49.077478,4.136867,22.21,1.92,-1.96,8.93
49.077623,4.136669,21.93,1.85,-1.82,8.61
49.077623,4.136669,21.93,1.59,-2.91,10.6
49.077767,4.136478,21.89,0.96,-3.03,9.85
49.077767,4.136478,21.89,1.03,-2.55,9.06
49.077918,4.13629,21.56,1.96,-1.76,8.49
49.077918,4.13629,21.56,0.73,-2.52,9.8
49.078069,4.136101,21.53,1.51,-2.19,8.43
49.078219,4.135914,21.49,0.73,-1.94,9.69
49.078219,4.135914,21.49,1.2,-1.69,9.23
49.078377,4.135724,21.5,1.43,-1.22,9.63
49.078377,4.135724,21.5,0.66,-2.87,7.64
49.078532,4.135535,21.54,0.32,-2.99,9.27
49.078532,4.135535,21.54,1.62,-1.95,9.84
49.078683,4.13535,21.57,2.01,-1.65,7.97
49.078683,4.13535,21.57,0.87,-1.96,9.96
49.078834,4.135159,21.88,1.29,-2.08,9.61
49.078834,4.135159,21.88,1.7,-2.06,9.66
49.078986,4.134967,21.96,0.62,-1.69,9.59
49.078986,4.134967,21.96,1.33,-1.6,8.93
49.079137,4.134776,22.06,0.69,-1.46,11.59
49.079137,4.134776,22.06,0.56,-2.5,9.42
49.079284,4.134583,22.22,1.21,-0.7,10.47
49.079284,4.134583,22.22,1.04,-2.3,9.23
49.079437,4.134392,22.11,1.52,-1.96,8.02
49.079437,4.134392,22.11,0.75,-3.15,10.01
49.079591,4.1342,21.93,1.73,-3.29,8.61
49.079591,4.1342,21.93,0.06,-2.61,10.24
49.079742,4.134007,21.89,1.44,-2.62,10.4
49.079742,4.134007,21.89,2.24,-2.94,9.09
49.079898,4.133811,21.98,0.9,-1.81,10.12
49.079898,4.133811,21.98,2.22,-1.54,9.94
49.080053,4.133618,21.97,0.79,-2.48,10.49
49.080053,4.133618,21.97,0.54,-3.24,12.71
49.080212,4.133426,22.06,1.23,-2.57,10.16
49.080212,4.133426,22.06,1.38,-2.28,7.74
49.080366,4.133236,22.07,1.24,-2.1,10.32
49.080366,4.133236,22.07,0.02,-3.04,11.37
49.080521,4.133046,22.06,1.75,-0.89,8.86
49.080521,4.133046,22.06,0.41,-1.58,8.18
49.080676,4.132856,22.45,0.63,-2.43,11.81
49.080676,4.132856,22.45,1.95,-2.19,9.3
49.080831,4.132655,22.47,0.91,-2.53,8.94
49.080831,4.132655,22.47,1.07,-1.55,8.17
49.080989,4.132455,22.57,1.16,-1.78,10.12
49.080989,4.132455,22.57,1.12,-2.56,9.57
49.081152,4.132259,22.58,0.96,-2.91,9.39
49.081152,4.132259,22.58,0.99,-3.64,10.16
49.081309,4.132062,22.65,1.42,-1.25,9.7
49.081465,4.131863,22.65,0.58,-2.55,9.34
49.081465,4.131863,22.65,0.9,-2.72,9.1
49.08162,4.131667,22.61,1.23,-2.34,10.01
49.08162,4.131667,22.61,0.3,-1.53,8.98
49.081775,4.13147,22.72,1.24,-2.94,10.33
49.081775,4.13147,22.72,0.45,-2.65,10.32
49.081933,4.131274,22.67,1.05,-2.04,9.68
49.081933,4.131274,22.67,0.24,-3.63,10.14
49.082087,4.131075,22.82,1.03,-2.15,7.74
49.082087,4.131075,22.82,0.44,-2.41,8.92
49.082241,4.130878,22.8,1.44,-3.21,7.08
49.082241,4.130878,22.8,0.85,-2.36,9.32
49.082402,4.130676,22.79,1.25,-2.56,10.42
49.082402,4.130676,22.79,1.29,-1.4,8.18
49.082563,4.130476,22.79,1.02,-1.57,8.89
49.082563,4.130476,22.79,0.7,-1.69,8.33
49.082722,4.130272,22.86,1.61,-2.26,8.95
49.082722,4.130272,22.86,0.88,-1.78,8.83
49.08288,4.130073,22.87,0.11,-2.15,9.5
49.08288,4.130073,22.87,0.77,-3.16,10.09
49.083039,4.129876,22.81,1.66,-2.67,8.59
49.083039,4.129876,22.81,0.11,-2.29,9.92
49.083199,4.129678,22.87,0.75,-1.91,10.62
49.083199,4.129678,22.87,-0.69,-2.52,10.21
49.083358,4.129479,22.85,1.05,-2.47,8.66
49.083358,4.129479,22.85,1.54,-2.12,8.44
49.083515,4.129278,22.88,2.01,-1.44,8.95
49.083515,4.129278,22.88,1.21,-1.34,8.03
49.083673,4.129081,22.87,2.1,-3.29,9.75
49.083673,4.129081,22.87,1.04,-1.18,9.19
49.083831,4.128884,22.71,0.58,-3.21,9.59
49.083831,4.128884,22.71,1.27,-0.94,8.09
49.08399,4.128689,22.51,0.32,-2.69,9.78
49.08399,4.128689,22.51,0.5,-2.09,9.39
49.084142,4.128489,22.3,-0.48,-2.53,11.3
49.084142,4.128489,22.3,0.33,-0.24,9.53
49.084288,4.128291,22.16,0.69,-0.96,9.4
49.084288,4.128291,22.16,1.2,-1.15,8.03
49.084439,4.128099,21.87,0.32,-2.6,10.39
49.084589,4.127911,21.7,0.55,-2.79,9.13
49.084589,4.127911,21.7,0.38,-2.1,9.84
49.084739,4.127721,21.56,1.82,-2.02,7.89
49.084739,4.127721,21.56,0.51,-2.34,11.02
49.08489,4.127535,21.38,0.23,-1.49,9.62
49.08489,4.127535,21.38,0.56,-0.98,9.22
49.085039,4.127351,21.19,-0.17,-1.94,7.54
49.085039,4.127351,21.19,0.71,-2.18,10.06
49.085185,4.127168,21.16,0.48,-2.63,9.27
49.085185,4.127168,21.16,0.97,-2.61,10.08
49.085328,4.126983,21.1,-0.08,-2.01,8.05
49.085328,4.126983,21.1,-0.32,-2.03,8.34
49.085475,4.126801,21.17,0.23,-3.14,10.87
49.085475,4.126801,21.17,0.5,-3.17,9.78
49.085619,4.126613,21.19,-0.71,-3.2,10.51
49.085619,4.126613,21.19,-0.12,-3.26,10.23
49.085764,4.126423,21.32,-0.01,-2.48,9.78
49.085764,4.126423,21.32,0.62,-2.26,9.84
49.085913,4.126241,21.37,-1.11,-2.57,10.18
49.085913,4.126241,21.37,-0.04,-2.56,10.37
49.086057,4.126056,21.57,0.93,-1.28,9.17
49.086057,4.126056,21.57,0.02,-2.28,9.85
49.086207,4.125868,21.79,0.06,-3.01,8.15
49.086207,4.125868,21.79,-0.48,-2.69,10.34
49.086363,4.12568,22.08,-0.21,-3.7,11.24
49.086363,4.12568,22.08,0.45,-2.01,8.03
49.086516,4.125491,22.45,-0.24,-3.09,9.86
49.086516,4.125491,22.45,0.28,-2.51,10.05
49.086668,4.125292,22.78,-0.08,-2.7,8.33
49.086668,4.125292,22.78,0.08,-2.09,8.28
49.086826,4.12509,22.99,0.97,-0.5,8.4
49.086826,4.12509,22.99,0.84,-1.92,9.01
49.086983,4.124886,23.01,0.79,-1.28,8.3
49.086983,4.124886,23.01,-0.64,-1.53,9.97
49.087144,4.124684,23.04,0.27,-1.92,8.73
49.087144,4.124684,23.04,-0.48,-2.37,9.47
49.087303,4.124484,23.04,0.18,-2.02,10.71
49.087303,4.124484,23.04,-0.03,-3.65,10.06
49.087466,4.124291,23.07,0.58,-3.4,10.65
49.087466,4.124291,23.07,-0.82,-2.42,10.76
49.087627,4.124091,23.11,-0.05,-2.5,10.34
49.087787,4.123888,23.1,0.99,-2.88,9.67
49.087787,4.123888,23.1,1.6,-1.86,9.14
49.087943,4.12369,22.55,0.29,-2.09,9.41
49.087943,4.12369,22.55,1.28,-2.09,8.66
49.088088,4.12349,21.96,0.53,-2.37,10.3
49.088088,4.12349,21.96,1.08,-2.12,10.39
49.08824,4.123299,21.78,1.1,-2.62,10.22
49.08824,4.123299,21.78,1.04,-2.32,10.08
49.088396,4.12311,21.74,0.71,-2.33,9.87
49.088396,4.12311,21.74,2.01,-1.7,7.54
49.088546,4.122919,21.64,1.07,-3.12,9.67
49.088546,4.122919,21.64,1.38,-1.49,8.31
49.088699,4.122733,21.73,0.92,-1.5,8.03
49.088699,4.122733,21.73,0.85,-1.77,8.13
49.08885,4.122545,21.83,1.22,-2.44,8.54
49.08885,4.122545,21.83,1.32,-1.98,9.83
49.089,4.122353,21.96,0.75,-2.36,9.29
49.089,4.122353,21.96,1.77,-2.05,8.99
49.089142,4.122156,21.89,-0.07,-2.13,9.54
49.089142,4.122156,21.89,0.02,-0.88,8.59
49.089285,4.12196,22.23,1.94,-2.12,9.81
49.089285,4.12196,22.23,1.18,-1.52,8.83
49.089438,4.12176,22.3,2.37,-2.02,7.71
49.089438,4.12176,22.3,1.53,-0.45,9.43
49.089588,4.121568,22.01,1.85,-0.96,9.3
49.089588,4.121568,22.01,0.6,-0.89,9.07
49.089737,4.121377,21.8,1.66,-2.42,10.87
49.089737,4.121377,21.8,1.58,-2.79,8.69
49.089888,4.12119,21.64,0.33,-3.87,9.54
49.089888,4.12119,21.64,0.59,-2.04,10.57
49.090042,4.121001,21.58,0.45,-1.3,11.27
49.090042,4.121001,21.58,0.93,-2.06,10.06
49.090203,4.120816,21.55,0.96,-1.91,9.18
49.090203,4.120816,21.55,0.48,-1.58,9.49
49.090362,4.120625,21.58,0.91,-2.23,8.55
49.090362,4.120625,21.58,0.83,-2.38,9.3
49.09052,4.120442,21.61,0.93,-2.39,9.02
49.09052,4.120442,21.61,0.79,-2.42,8.78
49.09067,4.120256,21.77,1.22,-3.13,10.93
49.09067,4.120256,21.77,0.67,-2.17,9.6
49.090806,4.120068,22.08,1.73,-2.27,8.45
49.090806,4.120068,22.08,1.43,-1.25,7.03
49.090948,4.119875,22.15,3.24,-2.22,7.34
49.091096,4.119676,22.05,0.91,-1.68,10.92
49.091096,4.119676,22.05,1.07,-2.15,9.43
49.091241,4.11948,22.05,1.45,-2.29,8.33
49.091241,4.11948,22.05,0.18,-2.24,10.48
49.091394,4.119281,22.13,0.69,-1.59,9.93
49.091394,4.119281,22.13,0.87,-1.48,8.99
49.091553,4.119082,22.27,1.64,-1.82,9.73
49.091553,4.119082,22.27,2.17,-1.54,8.82
49.091725,4.118881,22.15,1.79,-2.2,8.99
49.091725,4.118881,22.15,1.32,-2.62,10.41
49.09189,4.118688,22.13,1.77,-1.57,9.43
49.09189,4.118688,22.13,1.62,-1.38,9.99
49.092047,4.118502,22.06,1.87,-2.99,10.51
49.092047,4.118502,22.06,1.3,-2.09,9.36
49.092202,4.118308,21.95,2.17,-2.61,9.2
49.092202,4.118308,21.95,1.67,-2.07,10.06
49.092351,4.118116,21.81,1.93,-1.88,10.54
49.092351,4.118116,21.81,1.74,-1.4,9.47
49.092501,4.117918,21.64,0.26,-1.66,10.48
49.092501,4.117918,21.64,1.89,-2.22,10.24
49.092649,4.117722,21.13,1.25,-2.38,10.25
49.092649,4.117722,21.13,2.71,-2.56,8.62
49.092787,4.117539,20.62,2.22,-2.3,9.62
49.092787,4.117539,20.62,1.41,-1.41,8.83
49.092928,4.117361,20.03,1.77,-2.33,10.64
49.092928,4.117361,20.03,2.21,-1.13,8.75
49.09307,4.117182,19.34,2.54,-2.45,9.46
49.09307,4.117182,19.34,1.5,-1.68,9.22
49.093208,4.117012,18.95,1.45,-1.47,11.12
49.093208,4.117012,18.95,1.82,-1.15,9.72
49.093341,4.116849,18.42,2.57,-1.66,9.98
49.093341,4.116849,18.42,0.88,-0.78,9.68
49.09347,4.116702,17.62,1.98,-0.3,10.16
49.09347,4.116702,17.62,1.52,-0.86,8.62
49.093604,4.116577,16.94,2.16,-0.96,9.07
49.093604,4.116577,16.94,1.77,-1.1,10.45
49.093732,4.116459,16.23,1.1,-0.67,10.75
49.093732,4.116459,16.23,1.29,-0.09,9.51
49.093862,4.116361,15.93,1.53,-1.13,11.41
49.093862,4.116361,15.93,0.32,-1.16,10.5
49.094003,4.116289,15.77,1.41,-2.13,9.31
49.094003,4.116289,15.77,0.87,-0.62,9.14
49.094141,4.11623,16.09,0.46,-0.94,10.92
49.094284,4.116183,16.15,-0.44,0.13,10.66
49.094284,4.116183,16.15,1.14,-0.8,9.33
49.094425,4.116156,16.43,-0.07,0.05,10.79
49.094425,4.116156,16.43,-0.08,-1.23,10.04
49.094571,4.116153,16.93,0.61,-1.64,11.95
49.094571,4.116153,16.93,-0.32,0.39,10.88
49.094723,4.116171,17.15,0.44,-0.74,9.05
49.094723,4.116171,17.15,0.52,-1.33,9.01
49.09488,4.116214,17.69,0.52,-1.2,9.73
49.09488,4.116214,17.69,0.48,-2.45,10.33
49.095041,4.116274,18.1,1.27,-2.16,8.24
49.095041,4.116274,18.1,1.01,-3.55,9.12
49.095205,4.116329,18.75,0.83,-1.67,9.32
49.095205,4.116329,18.75,1.19,-2.05,9.58
49.095384,4.116384,19.37,1.32,-3.11,10.5
49.095384,4.116384,19.37,0.66,-3.5,11.65
49.09556,4.116433,19.72,1.21,-1.8,10.14
49.09556,4.116433,19.72,1.55,-1.37,8.82
49.09574,4.116493,20.38,0.43,-2.55,10.05
49.09574,4.116493,20.38,0.69,-2.71,9.96
49.095918,4.11655,20.34,0.88,-2.63,8.19
49.095918,4.11655,20.34,2.11,-3.1,9.61
49.096096,4.116608,20.51,1.74,-2.09,9.16
49.096096,4.116608,20.51,2.55,1.22,9.24
49.09627,4.116666,20.51,1.98,-2.04,9.28
49.09627,4.116666,20.51,0.76,-2.99,10.57
49.09645,4.116717,20.43,2.27,-3.17,10.71
49.09645,4.116717,20.43,2.22,-2.78,10.5
49.096631,4.116771,20.38,1.95,-1.78,9.81
49.096631,4.116771,20.38,1.69,-1.2,8.8
49.096822,4.116828,19.89,1.85,-2.31,10.73
49.096822,4.116828,19.89,1.43,-1.74,8.11
49.097005,4.116885,19.6,1.22,-3.86,10.66
49.097005,4.116885,19.6,1.53,-2.0,9.08
49.097179,4.116933,18.87,0.74,-1.26,6.52
49.097179,4.116933,18.87,1.72,-3.74,10.91
49.097353,4.116975,19.01,1.46,-3.35,9.36
49.097353,4.116975,19.01,1.59,-2.75,10.32
49.097522,4.117027,18.8,1.81,-2.69,10.02
49.097522,4.117027,18.8,3.08,-2.53,12.09
49.097686,4.11708,18.32,2.13,-1.01,9.52
49.097847,4.117131,18.07,0.95,-0.49,7.33
49.097847,4.117131,18.07,2.22,-1.99,8.95
49.098005,4.117179,17.63,1.54,-1.9,10.75
49.098005,4.117179,17.63,2.29,-2.1,8.65
49.09816,4.117227,16.71,2.76,-1.57,9.31
49.09816,4.117227,16.71,2.98,-1.98,9.67
49.098311,4.117266,15.69,2.09,-1.94,10.5
49.098311,4.117266,15.69,2.31,-2.96,10.86
49.09845,4.117301,15.13,2.15,-2.28,9.56
49.09845,4.117301,15.13,2.05,-1.96,8.46
49.098573,4.11734,14.63,1.98,-2.52,9.28
49.098573,4.11734,14.63,1.16,-2.26,10.23
49.098697,4.117371,14.22,1.83,-2.15,9.69
49.098697,4.117371,14.22,2.11,-1.7,9.44
49.098822,4.117388,14.06,1.87,-1.81,9.43
49.098822,4.117388,14.06,1.32,-2.03,10.47
49.098948,4.1174,13.72,2.34,-2.16,8.71
49.098948,4.1174,13.72,2.11,-2.06,9.44
49.099075,4.11741,13.31,2.11,-2.05,9.21
49.099075,4.11741,13.31,2.09,-2.21,9.37
49.099196,4.117427,13.01,2.59,-1.14,7.68
49.099196,4.117427,13.01,2.77,-1.27,10.32
49.099311,4.117436,12.75,2.09,-1.72,9.07
49.099311,4.117436,12.75,1.65,-1.54,9.05
49.09942,4.117453,12.35,2.31,-2.21,10.31
49.09942,4.117453,12.35,1.71,-2.4,9.4
49.099526,4.117471,11.94,1.82,-1.79,9.51
49.099526,4.117471,11.94,3.08,-2.42,10.21
49.099633,4.117483,11.59,2.05,-1.65,9.66
49.099633,4.117483,11.59,1.21,-1.96,9.67
49.099733,4.117486,10.94,2.25,-2.66,9.5
49.099733,4.117486,10.94,2.34,-2.13,9.51
49.099826,4.117486,10.51,2.17,-2.03,9.6
49.099826,4.117486,10.51,2.01,-1.94,8.99
49.09992,4.11748,9.82,1.61,-1.75,10.25
49.09992,4.11748,9.82,1.7,-1.33,7.14
49.100008,4.117476,9.16,1.92,-2.13,9.89
49.100008,4.117476,9.16,1.69,-1.89,9.03
49.100094,4.117466,8.45,2.22,-2.55,9.37
49.100094,4.117466,8.45,2.99,-1.97,12.0
49.100169,4.117467,7.73,1.36,-3.28,8.33
49.100239,4.117473,6.83,0.11,-2.72,8.89
49.100239,4.117473,6.83,0.01,-2.37,9.91
49.100299,4.117481,7.0,0.73,-2.04,9.32
49.100299,4.117481,7.0,0.7,-1.88,9.37
49.100364,4.117488,7.79,0.15,-1.42,10.01
49.100364,4.117488,7.79,0.9,-2.19,9.98
49.100434,4.117498,8.21,1.19,-2.37,10.61
49.100434,4.117498,8.21,1.34,-1.28,9.67
49.100507,4.11751,8.49,0.56,-1.4,9.31
49.100507,4.11751,8.49,0.65,-1.45,9.13
49.100585,4.117519,8.79,1.34,-2.32,10.21
49.100585,4.117519,8.79,1.76,-2.18,9.55
49.100665,4.117525,8.72,2.12,-1.63,9.55
49.100665,4.117525,8.72,2.15,-1.58,9.36
49.100742,4.11753,7.77,1.65,-1.28,7.2
49.100742,4.11753,7.77,2.98,-1.26,11.75
49.100811,4.117533,7.37,1.39,-2.24,9.2
49.100811,4.117533,7.37,-0.18,-2.88,8.81
49.100879,4.117538,7.78,-0.56,-2.49,9.03
49.100879,4.117538,7.78,0.03,-2.52,9.76
49.100948,4.117541,8.83,-0.49,-2.8,10.35
49.100948,4.117541,8.83,-0.42,-2.05,8.31
49.101031,4.117549,9.92,-0.27,-2.02,10.43
49.101031,4.117549,9.92,0.06,-1.33,10.49
49.101126,4.117559,10.97,0.99,-1.62,9.56
49.101126,4.117559,10.97,0.43,-3.56,9.28
49.101229,4.117571,11.81,0.12,-2.21,8.97
49.101229,4.117571,11.81,0.51,-2.56,9.66
49.101342,4.117576,12.67,0.17,-2.73,9.71
49.101342,4.117576,12.67,0.92,-1.86,10.22
49.10146,4.117579,13.15,0.81,-2.61,10.48
49.10146,4.117579,13.15,0.19,-1.89,8.36
49.10158,4.11758,13.54,0.39,-4.19,10.51
49.10158,4.11758,13.54,0.98,-2.94,9.97
49.101705,4.1176,14.1,0.86,-2.46,8.85
49.101705,4.1176,14.1,1.11,-2.01,9.5
49.10183,4.117608,14.02,0.79,-1.86,9.07
49.10183,4.117608,14.02,1.16,-2.49,8.94
49.101959,4.117625,14.29,0.07,-2.35,10.41
49.102094,4.117631,14.37,0.29,-2.08,10.3
49.102094,4.117631,14.37,0.86,-1.28,9.52
49.102094,4.117631,14.37,0.97,-2.11,8.65
49.102228,4.117638,14.36,0.39,-1.85,8.84
49.102228,4.117638,14.36,1.08,-1.89,9.85
49.10236,4.117645,14.54,1.37,-2.3,8.82
49.10249,4.117652,14.47,0.75,-2.78,10.21
49.10249,4.117652,14.47,0.24,-1.94,10.3
49.102618,4.117658,14.48,1.29,-1.93,9.5
49.102618,4.117658,14.48,1.79,-2.16,8.47
49.102743,4.117668,14.27,1.46,-2.29,9.99
49.102743,4.117668,14.27,1.22,-1.75,10.35
49.102865,4.117687,13.95,0.86,-2.2,9.71
49.102865,4.117687,13.95,1.87,-2.21,9.31
49.102983,4.117712,13.45,1.75,-2.65,9.34
49.102983,4.117712,13.45,1.42,-4.43,11.81
49.103101,4.117722,12.87,2.41,-2.49,9.28
49.103101,4.117722,12.87,2.1,-3.17,9.62
49.103215,4.117699,11.72,2.14,-2.91,9.15
49.103215,4.117699,11.72,2.55,-2.72,8.91
49.103324,4.117652,10.67,2.01,-2.16,8.73
49.103324,4.117652,10.67,2.61,-2.26,9.35
49.103414,4.117595,9.44,1.14,-2.58,9.55
49.103414,4.117595,9.44,0.39,-1.4,9.77
49.103494,4.117539,8.8,-0.01,-0.86,10.71
49.103494,4.117539,8.8,1.16,-1.01,9.32
49.103567,4.117478,8.63,1.35,-0.52,9.02
49.103567,4.117478,8.63,0.98,-4.27,8.91
49.103635,4.117427,8.49,0.49,-4.1,9.03
49.103635,4.117427,8.49,0.91,-3.87,9.24
49.103695,4.117381,8.58,-0.2,-3.5,9.97
49.103695,4.117381,8.58,-0.02,-2.72,9.59
49.103753,4.117306,9.17,-0.23,-1.45,11.15
49.103753,4.117306,9.17,-0.64,-1.06,11.15
49.103803,4.117203,9.94,-1.43,0.61,10.42
49.103803,4.117203,9.94,-0.7,0.29,10.09
49.103864,4.117101,10.68,-1.54,-1.47,8.37
49.103864,4.117101,10.68,-0.88,-2.66,10.11
49.103944,4.117013,11.81,-0.33,-2.49,9.56
49.103944,4.117013,11.81,-0.78,-3.06,9.44
49.104034,4.116921,12.77,-0.73,-3.39,9.6
49.104034,4.116921,12.77,-0.57,-3.31,10.64
49.104128,4.116818,13.36,0.56,-2.93,10.35
49.104218,4.116687,13.87,-0.68,-3.83,8.02
49.104218,4.116687,13.87,-0.85,-1.32,8.25
49.104302,4.116542,14.32,-0.1,-4.17,9.46
49.104302,4.116542,14.32,-0.91,-3.28,10.58
49.104386,4.116383,14.82,-0.08,-1.83,9.12
49.104386,4.116383,14.82,0.42,-1.71,9.08
49.104472,4.116224,15.19,0.6,-2.45,9.62
49.104472,4.116224,15.19,-0.7,-2.23,10.11
49.104559,4.116063,15.54,0.0,-2.12,11.17
49.104559,4.116063,15.54,1.08,-0.83,10.24
49.104653,4.115904,15.86,0.29,-2.23,10.22
49.104653,4.115904,15.86,-0.74,-2.06,10.6
49.104754,4.115754,16.32,-0.63,-1.32,10.83
49.104754,4.115754,16.32,-0.69,-0.97,10.18
49.104867,4.115616,16.52,0.18,-1.37,8.65
49.104867,4.115616,16.52,0.24,-0.32,10.72
49.104988,4.115494,16.74,-0.51,-1.66,11.7
49.104988,4.115494,16.74,0.4,-1.04,10.52
49.105126,4.115384,16.73,1.04,-1.4,9.11
49.105126,4.115384,16.73,0.59,-1.24,11.62
49.105261,4.115287,16.54,0.43,-2.15,11.36
49.105261,4.115287,16.54,0.96,-0.4,9.62
49.105407,4.115224,16.28,0.16,-2.07,10.07
49.105407,4.115224,16.28,0.37,-2.61,9.42
49.10556,4.11519,16.07,0.94,-1.97,8.13
49.10556,4.11519,16.07,-0.46,-3.04,9.81
49.105717,4.115162,16.96,0.41,-2.94,10.3
49.105717,4.115162,16.96,0.1,-2.0,9.47
49.10587,4.115124,17.24,-0.37,-2.74,10.46
49.10587,4.115124,17.24,0.27,-1.91,9.27
49.106021,4.115086,16.92,0.73,-2.04,9.61
49.106021,4.115086,16.92,0.93,-4.13,8.66
49.106176,4.115024,17.59,-0.24,-2.72,8.8
49.106176,4.115024,17.59,0.42,-2.17,8.42
49.106333,4.114929,17.92,-0.45,-2.45,10.05
49.106333,4.114929,17.92,0.85,-2.25,9.95
49.106486,4.114826,18.59,1.06,-2.73,9.18
49.106486,4.114826,18.59,0.2,-4.5,7.84
49.106639,4.114707,18.95,0.93,-2.3,9.47
49.106791,4.114567,19.23,0.66,-2.08,9.84
49.106791,4.114567,19.23,0.2,-2.54,11.37
49.106924,4.114396,19.47,0.65,-0.59,9.24
49.106924,4.114396,19.47,1.22,-1.46,10.17
49.107058,4.11422,19.52,1.24,-2.22,9.65
49.107058,4.11422,19.52,0.62,-3.1,10.75
49.107193,4.114053,19.76,0.68,-1.81,9.75
49.107193,4.114053,19.76,1.13,-1.86,8.43
49.107333,4.11389,20.24,-1.86,-2.66,11.39
49.107333,4.11389,20.24,-0.07,-1.92,8.51
49.107483,4.113727,20.58,1.44,-2.35,9.73
49.107483,4.113727,20.58,-0.46,-2.71,9.93
49.107643,4.113567,20.75,1.24,-1.29,7.38
49.107643,4.113567,20.75,0.34,-2.43,10.09
49.107806,4.113418,21.02,0.57,-2.54,8.94
49.107806,4.113418,21.02,1.53,-2.64,10.53
49.107977,4.113275,21.37,0.53,-1.87,9.54
49.107977,4.113275,21.37,1.37,-1.44,8.15
49.108155,4.113131,21.32,1.03,-2.11,8.53
49.108155,4.113131,21.32,1.71,-1.53,9.75
49.108337,4.112996,22.27,1.4,-1.59,8.66
49.108337,4.112996,22.27,0.73,-2.27,9.95
49.108522,4.112865,22.73,-0.03,-2.27,9.7
49.108522,4.112865,22.73,0.25,-0.78,9.73
49.108708,4.112741,22.86,1.11,-1.67,9.5
49.108708,4.112741,22.86,1.81,-2.47,8.26
49.108898,4.112633,23.07,2.14,-2.56,8.45
49.108898,4.112633,23.07,0.84,-2.31,10.09
49.109095,4.11252,23.18,0.54,-1.87,9.68
49.109095,4.11252,23.18,0.62,-2.58,10.15
49.109295,4.112396,23.3,0.96,-3.11,9.73
49.109295,4.112396,23.3,2.23,-3.02,10.64
49.10949,4.112271,23.27,2.03,-1.04,8.6
49.10949,4.112271,23.27,0.46,-2.46,11.18
49.109683,4.112153,22.96,0.91,-2.65,9.55
49.109683,4.112153,22.96,1.77,-2.01,9.66
49.109876,4.112034,22.95,1.25,-1.7,9.32
49.109876,4.112034,22.95,0.76,-2.05,10.0
49.11007,4.111915,23.07,1.16,-2.41,8.71
49.11007,4.111915,23.07,1.33,-2.04,8.99
49.110261,4.111793,22.95,0.18,-2.41,9.76
49.11045,4.111669,23.11,0.84,-2.82,11.63
49.11045,4.111669,23.11,1.33,-2.45,8.48
49.11064,4.111545,23.17,0.96,-1.77,8.42
49.11064,4.111545,23.17,0.38,-1.66,9.96
49.110831,4.11142,23.16,1.06,-2.0,10.13
49.110831,4.11142,23.16,1.28,-2.05,9.58
49.111027,4.111299,23.27,0.15,-2.69,11.05
49.111027,4.111299,23.27,1.0,-2.78,10.03
49.111223,4.111183,23.17,1.2,-2.04,10.59
49.111223,4.111183,23.17,1.61,-2.55,9.59
49.111418,4.111071,22.86,1.62,-2.94,9.01
49.111418,4.111071,22.86,1.64,-2.07,7.8
49.111611,4.110955,22.86,1.13,-2.31,9.3
49.111611,4.110955,22.86,1.06,-1.22,8.79
49.111798,4.110838,22.42,1.61,-3.28,10.28
49.111798,4.110838,22.42,0.78,-2.22,8.91
49.111981,4.110718,22.3,0.48,-2.44,9.23
49.111981,4.110718,22.3,0.9,-2.38,10.39
49.112162,4.110597,22.18,1.33,-2.94,9.65
49.112162,4.110597,22.18,1.3,-2.98,9.37
49.112343,4.110469,22.18,1.09,-1.43,9.64
49.112343,4.110469,22.18,0.67,-1.03,10.33
49.112517,4.110334,21.91,0.93,-1.96,9.56
49.112517,4.110334,21.91,-0.24,-2.8,11.99
49.112686,4.110175,22.06,0.99,-2.46,9.24
49.112686,4.110175,22.06,1.69,-1.2,9.28
49.11286,4.110018,22.08,1.55,-1.32,12.13
49.11286,4.110018,22.08,1.41,-2.02,9.34
49.113029,4.109855,21.86,1.12,-1.31,8.67
49.113029,4.109855,21.86,1.14,-0.57,9.87
49.113197,4.10971,21.62,0.89,-1.35,10.3
49.113197,4.10971,21.62,2.06,-1.62,9.31
49.113361,4.109569,21.62,0.61,-1.21,9.78
49.113361,4.109569,21.62,0.6,-0.62,9.96
49.113532,4.109447,21.42,0.25,-1.5,9.77
49.113532,4.109447,21.42,0.76,-1.53,9.26
49.113705,4.109331,21.43,0.57,-2.38,12.11
49.113705,4.109331,21.43,2.42,-1.72,8.37
49.113878,4.109229,20.64,0.21,-1.79,10.3
49.113878,4.109229,20.64,2.06,-1.77,10.26
49.114056,4.109131,20.46,0.27,-1.14,9.07
49.114056,4.109131,20.46,0.63,-1.82,10.21
49.114234,4.109049,20.29,0.76,-1.84,10.04
49.11441,4.108982,20.33,0.94,-2.64,10.19
49.11441,4.108982,20.33,1.23,-2.2,11.13
49.114593,4.108926,20.19,0.59,-1.21,10.12
49.114593,4.108926,20.19,0.54,-1.97,10.32
49.114774,4.108876,20.73,0.08,-0.81,10.36
49.114774,4.108876,20.73,1.69,-1.61,8.29
49.114965,4.108838,20.92,0.81,-0.88,9.39
49.114965,4.108838,20.92,0.68,-1.87,9.07
49.115148,4.108818,20.93,0.8,-1.54,9.12
49.115148,4.108818,20.93,0.36,-2.19,8.9
49.115334,4.108806,21.2,-0.55,-2.43,10.29
49.115334,4.108806,21.2,0.07,-2.41,9.61
49.115526,4.108805,21.53,-0.01,-1.41,9.52
49.115526,4.108805,21.53,0.76,-1.76,9.39
49.11572,4.108814,21.59,0.88,-2.51,8.61
49.11572,4.108814,21.59,-0.2,-2.5,11.09
49.115916,4.108825,21.7,0.27,-0.21,6.81
49.115916,4.108825,21.7,0.69,-1.29,9.45
49.116117,4.108838,21.64,-0.37,-2.22,10.03
49.116117,4.108838,21.64,0.03,-2.54,9.53
49.116316,4.108854,21.99,0.17,-2.34,9.83
49.116316,4.108854,21.99,0.67,-0.62,8.9
49.116514,4.108873,22.01,0.82,-0.66,10.07
49.116514,4.108873,22.01,0.87,-2.23,10.41
49.116714,4.108897,21.73,1.12,-1.29,9.19
49.116714,4.108897,21.73,1.23,-3.28,8.82
49.11691,4.108912,21.5,0.27,-1.9,9.68
49.11691,4.108912,21.5,1.19,-3.03,9.88
49.117104,4.108923,21.32,1.84,-3.01,7.31
49.117104,4.108923,21.32,-0.09,-2.73,10.06
49.117295,4.108924,21.33,-0.21,-1.59,10.02
49.117295,4.108924,21.33,-0.45,-2.07,11.75
49.117485,4.108915,21.19,1.42,-0.53,8.55
49.117485,4.108915,21.19,1.56,0.11,9.29
49.117675,4.108904,21.21,1.57,-2.46,10.88
49.117675,4.108904,21.21,0.79,-1.3,8.82
49.117862,4.108882,20.84,1.47,-1.92,10.64
49.117862,4.108882,20.84,0.49,-1.75,9.28
49.118047,4.108864,20.24,0.8,-1.41,8.11
49.118227,4.108856,19.2,1.7,-0.61,9.13
49.118227,4.108856,19.2,0.51,-0.24,10.35
49.118404,4.108865,18.74,1.17,0.04,8.45
49.118404,4.108865,18.74,1.37,-0.65,7.5
49.118574,4.108881,18.44,1.47,-2.36,9.22
49.118574,4.108881,18.44,1.67,-0.91,8.46
49.118734,4.108935,18.05,0.57,-2.4,10.65
49.118734,4.108935,18.05,0.83,-1.74,8.73
49.118887,4.109,17.33,1.01,-0.61,10.94
49.118887,4.109,17.33,0.44,-2.58,10.06
49.119038,4.109068,17.19,1.45,-1.79,8.51
49.119038,4.109068,17.19,1.24,-1.16,10.83
49.119186,4.109128,16.59,2.14,-2.02,8.41
49.119186,4.109128,16.59,1.32,-2.32,8.97
49.119328,4.109184,16.14,0.92,-1.41,10.0
49.119328,4.109184,16.14,0.79,-1.48,8.39
49.119467,4.109227,15.69,1.45,-1.25,8.97
49.119467,4.109227,15.69,0.83,-1.59,9.52
49.119606,4.109267,15.42,1.04,-2.27,9.71
49.119606,4.109267,15.42,1.01,-1.69,10.56
49.119743,4.109302,15.02,1.66,-1.65,8.15
49.119743,4.109302,15.02,1.39,-1.99,9.39
49.119881,4.109335,14.98,1.59,-2.32,8.73
49.119881,4.109335,14.98,1.13,-1.42,8.69
49.120017,4.109359,14.85,1.41,-1.95,9.69
49.120017,4.109359,14.85,1.32,-0.82,8.78
49.120149,4.109367,14.67,1.75,-1.12,9.37
49.120149,4.109367,14.67,1.02,-2.16,9.8
49.120275,4.109363,14.35,1.44,-1.15,9.04
49.120275,4.109363,14.35,1.36,-1.36,9.41
49.120406,4.109358,14.14,1.68,-2.28,9.41
49.120406,4.109358,14.14,1.16,-1.71,9.28
49.120531,4.109348,14.03,1.47,-1.93,8.11
49.120531,4.109348,14.03,1.16,-1.93,10.51
49.12066,4.109335,14.02,0.67,-2.22,9.97
49.12066,4.109335,14.02,0.67,-2.68,9.88
49.120784,4.109331,14.04,1.27,-1.82,8.83
49.120784,4.109331,14.04,0.44,-2.36,10.23
49.120905,4.109318,14.06,0.79,-3.25,10.35
49.120905,4.109318,14.06,0.62,-1.56,10.41
49.121026,4.109292,14.07,1.55,-0.61,9.13
49.12115,4.109257,14.06,0.21,-1.9,9.86
49.12115,4.109257,14.06,0.95,-2.6,11.09
49.121272,4.109217,14.03,0.91,-1.72,8.54
49.121272,4.109217,14.03,0.75,-2.26,9.98
49.121393,4.109177,14.15,0.53,-2.6,10.34
49.121393,4.109177,14.15,0.31,-2.11,9.81
49.121507,4.109135,13.91,0.59,-1.96,9.83
49.121507,4.109135,13.91,1.36,-2.56,9.95
49.121631,4.109094,13.97,0.88,-2.1,10.33
49.121631,4.109094,13.97,0.84,-0.93,7.99
49.121746,4.109052,13.89,0.3,-2.3,11.29
49.121746,4.109052,13.89,1.41,-2.09,7.91
49.121861,4.109007,13.72,1.33,-2.32,8.55
49.121861,4.109007,13.72,-0.11,-2.15,12.44
49.121982,4.108963,13.96,0.56,-1.83,10.38
49.121982,4.108963,13.96,0.84,-1.24,8.98
49.122104,4.108921,14.3,1.31,-2.24,11.65
49.122104,4.108921,14.3,-0.85,-2.13,8.6
49.122232,4.108883,14.47,0.48,-2.18,9.53
49.122232,4.108883,14.47,0.18,-2.3,9.35
49.122365,4.108849,14.79,0.13,-1.86,9.08
49.122365,4.108849,14.79,-0.11,-1.79,10.11
49.122495,4.108815,15.35,1.45,-1.64,8.88
49.122495,4.108815,15.35,0.35,-2.63,9.97
49.122632,4.108785,15.81,0.17,-1.39,9.9
49.122632,4.108785,15.81,0.05,-2.18,10.28
49.122775,4.108759,16.41,0.44,-1.82,9.36
49.122775,4.108759,16.41,-0.65,-1.89,10.12
49.122926,4.108737,17.17,0.48,-1.41,8.8
49.122926,4.108737,17.17,0.19,-1.27,8.62
49.123089,4.108714,17.72,0.6,-2.98,8.89
49.123089,4.108714,17.72,0.03,-1.45,11.53
49.123258,4.108694,18.41,-0.39,-2.95,10.3
49.123258,4.108694,18.41,0.31,-2.1,9.17
49.12343,4.108675,19.08,0.42,-2.52,9.84
49.12343,4.108675,19.08,0.41,-2.95,9.55
49.12361,4.108661,19.72,0.02,-2.63,8.79
49.12361,4.108661,19.72,0.78,-1.38,8.33
49.123792,4.108646,20.13,0.45,-1.8,11.15
49.123792,4.108646,20.13,0.38,-2.11,9.67
49.123975,4.108633,20.32,0.73,-1.38,8.42
49.12416,4.10862,20.45,0.04,-1.85,10.13
49.12416,4.10862,20.45,0.23,-1.33,9.86
49.124348,4.108608,20.49,0.75,-1.28,10.52
49.124348,4.108608,20.49,0.69,-3.43,10.49
49.124535,4.108609,20.4,0.12,-2.42,9.87
49.124535,4.108609,20.4,1.77,-0.72,9.39
49.124714,4.108602,19.94,0.89,-0.9,10.48
49.124714,4.108602,19.94,0.87,-0.62,10.69
49.124894,4.108592,19.28,1.72,-2.19,8.09
49.124894,4.108592,19.28,1.28,-2.08,9.84
49.125067,4.108594,19.31,0.92,-3.29,9.33
49.125067,4.108594,19.31,0.23,-2.38,9.45
49.125234,4.108581,19.4,-0.08,-3.42,8.84
49.125234,4.108581,19.4,0.1,-3.73,10.67
49.125399,4.108541,19.57,1.47,-4.81,10.24
49.125399,4.108541,19.57,0.71,-3.17,8.97
49.125576,4.108478,20.14,-0.23,-3.01,7.25
49.125576,4.108478,20.14,1.22,-2.13,7.71
49.12575,4.108387,20.34,0.66,-4.04,9.7
49.12575,4.108387,20.34,-0.13,-3.17,10.28
49.125929,4.108272,20.58,0.47,-2.93,9.89
49.125929,4.108272,20.58,0.45,-2.34,10.91
49.126098,4.108152,21.18,0.98,-2.13,8.98
49.126098,4.108152,21.18,0.84,-2.41,11.19
49.126271,4.108029,21.46,-0.4,-1.86,9.18
49.126271,4.108029,21.46,0.9,-2.31,10.46
49.126443,4.107904,21.68,0.5,-2.3,8.75
49.126443,4.107904,21.68,1.02,-1.87,9.59
49.126619,4.107782,21.79,0.35,-2.06,7.99
49.126619,4.107782,21.79,0.83,-2.46,9.13
49.126795,4.107658,21.95,1.08,-3.31,11.69
49.126795,4.107658,21.95,0.68,-1.7,7.84
49.126975,4.107536,22.01,0.7,-2.4,10.13
49.126975,4.107536,22.01,-0.38,-3.23,11.45
49.127153,4.107409,22.13,0.45,-1.22,9.4
49.127153,4.107409,22.13,1.22,-2.07,9.6
49.127345,4.107287,22.12,0.85,-2.59,9.68
49.127345,4.107287,22.12,1.2,-1.0,9.17
49.127531,4.107161,22.1,0.09,-2.39,10.61
49.127531,4.107161,22.1,1.1,-2.76,10.8
49.127719,4.107042,22.17,1.03,-0.52,7.9
49.127897,4.106917,22.15,0.54,-1.94,9.98
49.127897,4.106917,22.15,1.54,-1.39,10.38
49.128074,4.106788,22.25,1.03,-2.28,10.23
49.128074,4.106788,22.25,0.03,-3.97,9.58
49.128254,4.106654,22.42,0.57,-1.54,9.64
49.128254,4.106654,22.42,1.01,-1.56,9.22
49.128432,4.106521,22.38,0.25,-2.19,9.97
49.128432,4.106521,22.38,-0.15,-2.49,9.39
49.128611,4.106387,22.45,1.55,-2.63,10.06
49.128611,4.106387,22.45,1.02,-1.66,9.04
49.12879,4.10625,22.45,0.94,-1.28,9.23
49.12879,4.10625,22.45,0.71,-1.83,10.28
49.128973,4.106118,22.51,0.21,-2.98,10.53
49.128973,4.106118,22.51,1.07,-0.88,8.11
49.129162,4.105998,22.5,0.61,-2.45,8.92
49.129162,4.105998,22.5,1.7,-0.93,9.21
49.129348,4.105874,22.5,1.81,-1.04,8.94
49.129348,4.105874,22.5,1.1,0.14,9.25
49.129536,4.105764,22.12,1.57,-2.16,9.56
49.129536,4.105764,22.12,1.17,-1.21,9.36
49.12971,4.105683,21.0,0.33,-1.33,10.41
49.12971,4.105683,21.0,1.57,-1.15,9.21
49.129885,4.105594,20.28,1.7,-2.03,8.62
49.129885,4.105594,20.28,1.18,-1.44,10.92
49.130066,4.105505,19.95,0.04,-1.02,9.92
49.130066,4.105505,19.95,0.35,-1.5,9.85
49.130239,4.105431,19.53,0.76,-1.74,9.62
49.130239,4.105431,19.53,0.76,-1.61,10.11
49.130408,4.105366,19.4,0.63,-0.64,8.74
49.130408,4.105366,19.4,1.19,-0.65,9.37
49.130585,4.10533,18.85,-0.1,-1.24,9.81
49.130585,4.10533,18.85,-0.21,-0.84,7.82
49.130758,4.105303,18.78,0.85,-2.87,11.07
49.130758,4.105303,18.78,1.32,-1.19,10.26
49.130932,4.105281,18.87,0.07,-2.21,6.89
49.130932,4.105281,18.87,0.69,-1.66,10.32
49.131099,4.105256,18.87,0.57,-2.68,10.19
49.131099,4.105256,18.87,0.75,-2.32,9.43
49.131267,4.105224,18.97,1.16,-3.36,9.44
49.131267,4.105224,18.97,1.19,-3.36,10.17
49.131443,4.105193,19.26,1.64,-4.78,8.12
49.131611,4.105134,19.44,0.7,-4.87,10.54
49.131611,4.105134,19.44,1.24,-4.35,9.7
49.131772,4.105047,19.48,1.05,-3.41,9.22
49.131772,4.105047,19.48,0.91,-4.31,8.2
49.131917,4.104915,19.05,0.41,-5.19,9.85
49.131917,4.104915,19.05,1.6,-2.94,6.41
49.132039,4.104723,19.09,1.12,-2.93,11.52
49.132039,4.104723,19.09,0.18,-2.2,11.77
49.132156,4.104528,19.12,0.06,-1.47,11.56
49.132156,4.104528,19.12,-0.77,-1.29,6.57
49.132265,4.104327,18.94,1.92,-2.44,8.88
49.132265,4.104327,18.94,1.55,-2.6,7.55
49.132368,4.104136,18.19,1.52,-1.75,8.28
49.132368,4.104136,18.19,1.58,-2.69,10.14
49.132474,4.103957,17.7,2.02,-2.52,9.18
49.132474,4.103957,17.7,1.86,-2.04,9.92
49.132578,4.103778,16.97,1.53,-1.52,9.78
49.132578,4.103778,16.97,0.99,-1.76,10.79
49.132676,4.103609,16.24,2.0,-1.19,10.84
49.132676,4.103609,16.24,2.15,-2.14,9.33
49.132776,4.103448,15.37,0.5,-2.73,10.4
49.132776,4.103448,15.37,1.53,-1.28,9.72
49.132873,4.103304,14.34,1.36,-1.5,9.45
49.132873,4.103304,14.34,1.97,0.03,9.56
49.132966,4.103175,13.45,1.47,-1.2,10.07
49.132966,4.103175,13.45,0.62,-1.4,9.52
49.133058,4.103063,12.64,0.16,-0.6,9.6
49.133058,4.103063,12.64,0.79,0.28,11.56
49.133149,4.10296,12.21,0.85,-1.16,9.65
49.133149,4.10296,12.21,1.01,-1.49,9.5
49.133254,4.102882,12.1,0.59,0.2,10.31
49.133254,4.102882,12.1,0.94,-1.19,9.9
49.133366,4.10284,11.98,-0.09,-0.23,10.15
49.133366,4.10284,11.98,0.16,-0.9,10.99
49.133474,4.102805,12.02,0.54,0.72,10.17
49.133474,4.102805,12.02,0.02,-0.86,9.86
49.133594,4.102803,12.19,0.18,0.57,8.32
49.133594,4.102803,12.19,-1.06,-1.02,10.57
49.13371,4.102844,12.78,-0.13,-0.32,10.46
49.13371,4.102844,12.78,0.3,0.51,9.94
49.133827,4.102894,13.39,0.11,-0.53,9.79
49.133827,4.102894,13.39,0.01,-1.16,10.72
49.133932,4.102982,13.66,-0.48,0.65,9.77
49.134035,4.103097,13.92,-1.75,-0.48,11.14
49.134035,4.103097,13.92,0.44,-1.64,10.01
49.134128,4.10324,14.04,-1.0,-0.75,10.48
49.134128,4.10324,14.04,-0.33,-1.2,10.0
49.13422,4.10339,14.82,0.24,-2.97,8.7
49.13422,4.10339,14.82,-0.02,-1.67,9.56
49.134299,4.103559,15.54,-0.62,-2.74,11.0
49.134299,4.103559,15.54,0.74,-0.88,8.27
49.13439,4.103716,15.95,-0.01,-2.82,10.48
49.13439,4.103716,15.95,-0.28,-2.88,11.15
49.134479,4.103887,16.45,-0.74,-1.8,10.49
49.134479,4.103887,16.45,0.67,-2.22,8.25
49.13458,4.104059,17.1,0.03,-2.26,9.28
49.13458,4.104059,17.1,-0.35,-1.8,8.3
49.134698,4.104223,17.38,-0.36,-1.88,10.66
49.134698,4.104223,17.38,0.13,-1.05,10.04
49.13481,4.104397,17.65,0.32,-2.29,10.18
49.13481,4.104397,17.65,-0.62,-2.38,10.61
49.134925,4.104572,18.01,-0.24,-2.63,9.93
49.134925,4.104572,18.01,0.43,-0.92,11.01
49.135039,4.104749,18.24,1.19,-2.17,9.33
49.135039,4.104749,18.24,1.14,-2.59,8.98
49.135152,4.104935,18.63,0.75,-2.61,7.56
49.135152,4.104935,18.63,0.52,-1.81,9.13
49.135266,4.105128,18.51,1.47,-2.17,10.3
49.135266,4.105128,18.51,1.91,-1.42,9.65
49.135376,4.105313,17.84,0.69,-3.28,10.21
49.135376,4.105313,17.84,1.67,-2.89,10.63
49.135481,4.105486,17.28,-0.42,-2.69,8.53
49.135481,4.105486,17.28,1.51,-3.77,10.45
49.135585,4.105655,16.87,0.38,-4.46,8.08
49.135585,4.105655,16.87,0.48,-3.27,8.49
49.135699,4.105788,16.83,0.21,-3.6,9.23
49.135699,4.105788,16.83,0.73,-4.31,10.47
49.135828,4.105903,17.0,1.13,-4.43,8.64
49.135828,4.105903,17.0,0.68,-4.91,9.79
49.135974,4.105981,17.01,0.78,-4.18,9.35
49.135974,4.105981,17.01,0.73,-2.74,8.82
49.136133,4.106024,17.5,1.18,-1.85,5.1
49.136133,4.106024,17.5,-0.56,-2.79,9.82
49.136291,4.106021,17.51,0.79,-2.24,8.29
49.136291,4.106021,17.51,-0.45,-2.53,10.09
49.136452,4.106011,18.04,0.13,-1.75,8.26
49.136619,4.106006,18.34,0.08,-2.03,9.35
49.136619,4.106006,18.34,0.35,-2.11,9.84
49.13679,4.106008,18.7,0.84,-1.69,12.15
49.13679,4.106008,18.7,0.55,-2.3,8.39
49.136963,4.106026,18.86,1.17,-1.68,8.63
49.136963,4.106026,18.86,0.11,-2.04,11.06
49.137134,4.106034,19.09,0.74,-1.75,9.45
49.137134,4.106034,19.09,1.09,-2.77,8.57
49.137309,4.106043,19.14,0.2,-3.36,9.67
49.137309,4.106043,19.14,1.62,-4.3,8.59
49.137475,4.106022,19.22,0.92,-4.13,8.01
49.137475,4.106022,19.22,-0.19,-4.89,10.88
49.137642,4.10598,19.24,0.86,-3.55,9.32
49.137642,4.10598,19.24,0.79,-2.87,9.67
49.137811,4.105908,19.24,0.76,-2.02,8.93
49.137811,4.105908,19.24,0.84,-2.9,9.17
49.137974,4.105821,19.16,0.67,-1.09,10.1
49.137974,4.105821,19.16,0.07,-2.43,10.19
49.138124,4.105698,19.44,-0.24,-2.48,9.92
49.138124,4.105698,19.44,0.1,-3.42,8.87
49.138284,4.105579,19.63,1.12,-0.66,11.09
49.138284,4.105579,19.63,0.05,-2.38,9.96
49.138443,4.105446,19.78,-0.07,-2.46,9.36
49.138443,4.105446,19.78,0.66,-2.01,9.41
49.1386,4.105317,19.98,0.12,-1.82,9.2
49.1386,4.105317,19.98,-1.03,-2.84,11.36
49.138761,4.105192,20.11,0.11,-2.2,10.59
49.138761,4.105192,20.11,0.22,-2.52,10.03
49.138924,4.105056,20.35,0.87,-3.22,9.7
49.138924,4.105056,20.35,1.0,-2.39,8.75
49.139079,4.104932,20.46,0.56,-1.95,8.89
49.139079,4.104932,20.46,0.01,-3.42,10.57
49.139242,4.104803,20.67,1.13,-1.64,9.49
49.139242,4.104803,20.67,1.14,-1.77,8.95
49.139403,4.104668,20.69,0.8,-1.9,9.75
49.139403,4.104668,20.69,0.79,-1.11,9.73
49.139566,4.104529,20.83,1.42,-2.17,9.95
49.139566,4.104529,20.83,0.15,-2.2,10.67
49.139732,4.104398,20.98,0.62,-3.65,10.75
49.139732,4.104398,20.98,0.97,-3.72,9.39
49.139887,4.104264,21.15,0.72,-2.7,9.32
49.14004,4.104125,21.29,0.04,-2.19,8.5
49.14004,4.104125,21.29,-0.54,-4.43,11.07
49.14019,4.103954,21.51,1.22,-2.99,8.6
49.14019,4.103954,21.51,-0.15,-2.54,10.22
49.140339,4.103758,21.87,-0.66,-1.73,10.18
49.140339,4.103758,21.87,1.2,-1.2,7.48
49.140484,4.103551,22.22,0.88,-2.89,9.31
49.140484,4.103551,22.22,0.34,-1.88,8.12
49.140636,4.103333,22.43,0.32,-1.57,8.92
49.140636,4.103333,22.43,0.19,-2.43,10.07
49.140787,4.103117,22.74,-0.09,-2.03,9.26
49.140787,4.103117,22.74,0.46,-2.48,9.2
49.140943,4.102906,23.12,-0.63,-3.04,10.65
49.140943,4.102906,23.12,0.18,-2.13,9.78
49.141098,4.102688,23.13,0.91,-1.72,9.25
49.141098,4.102688,23.13,1.53,-2.83,10.05
49.141253,4.102478,23.18,0.57,-1.65,10.09
49.141253,4.102478,23.18,0.15,-2.09,10.19
49.141407,4.102265,23.2,0.44,-2.22,11.45
49.141407,4.102265,23.2,0.54,-2.34,9.25
49.141565,4.102053,23.15,0.48,-2.43,8.77
49.141565,4.102053,23.15,1.38,-3.19,9.17
49.141723,4.101842,23.08,0.71,-2.18,9.03
49.141723,4.101842,23.08,1.31,-2.03,8.25
49.141876,4.101628,23.05,0.18,-2.61,11.66
49.141876,4.101628,23.05,0.83,-3.02,11.55
49.142025,4.101413,23.03,0.44,-2.58,9.69
49.142025,4.101413,23.03,1.27,-2.26,10.3
49.142171,4.101196,22.88,0.46,-3.09,9.41
49.142171,4.101196,22.88,1.13,-1.59,9.05
49.142321,4.100984,22.86,1.6,-1.37,8.58
49.142321,4.100984,22.86,1.23,-2.19,9.56
49.142475,4.100779,22.75,0.38,-2.46,10.54
49.142475,4.100779,22.75,0.95,-1.69,9.42
49.142627,4.100569,22.66,0.37,-1.74,9.36
49.142627,4.100569,22.66,1.12,-3.2,9.5
49.142777,4.100357,22.64,0.73,-1.87,10.51
49.142777,4.100357,22.64,1.24,-2.33,10.26
49.142928,4.100145,22.65,0.31,-2.21,10.07
49.142928,4.100145,22.65,1.09,-2.54,8.14
49.143081,4.099936,22.59,0.19,-2.82,10.14
49.143081,4.099936,22.59,1.89,-3.6,8.5
49.143233,4.099728,22.51,1.41,-1.64,7.23
49.143382,4.099519,22.46,0.23,-3.01,10.93
49.143382,4.099519,22.46,0.4,-1.3,10.56
49.143532,4.099312,22.4,1.5,-1.81,10.13
49.143532,4.099312,22.4,0.21,-2.26,10.19
49.14368,4.099111,22.27,2.24,-2.31,9.02
49.14368,4.099111,22.27,2.34,-1.58,10.17
49.143824,4.098909,21.45,1.79,-1.73,8.12
49.143824,4.098909,21.45,1.64,-1.57,8.68
49.143962,4.098714,20.53,1.27,-2.39,9.82
49.143962,4.098714,20.53,1.01,-1.09,9.1
49.144098,4.098533,20.24,1.48,-2.39,8.94
49.144098,4.098533,20.24,1.26,-2.74,9.45
49.144231,4.098352,19.87,0.71,-2.72,9.81
49.144231,4.098352,19.87,0.55,-2.3,8.85
49.144361,4.098164,19.69,0.04,-2.24,10.95
49.144361,4.098164,19.69,0.22,-1.08,10.6
49.144494,4.097985,19.38,1.83,-1.07,8.05
49.144494,4.097985,19.38,-0.11,-1.99,9.92
49.144624,4.097808,19.29,0.63,-1.56,9.42
49.144624,4.097808,19.29,2.02,-0.66,8.38
49.144755,4.097635,18.95,1.5,-1.73,8.37
49.144755,4.097635,18.95,0.82,-2.18,9.45
49.144876,4.097457,18.68,1.13,-2.19,9.37
49.144876,4.097457,18.68,0.86,-1.85,9.86
49.144997,4.097281,18.35,0.91,-2.43,9.25
49.144997,4.097281,18.35,1.42,-2.29,9.19
49.145116,4.097113,17.72,1.75,-1.23,8.77
49.145116,4.097113,17.72,1.36,-1.93,9.59
49.145226,4.096967,17.04,1.55,-1.71,8.56
49.145226,4.096967,17.04,1.65,-1.48,9.54
49.145337,4.096829,16.72,1.3,-1.74,9.33
49.145337,4.096829,16.72,2.02,-2.14,8.7
49.145452,4.096686,16.48,2.15,-1.9,8.42
49.145452,4.096686,16.48,2.02,-1.44,9.3
49.145565,4.096537,15.67,1.87,-1.96,8.81
49.145565,4.096537,15.67,2.19,-1.82,9.5
49.14567,4.096397,15.33,1.3,-2.23,9.99
49.14567,4.096397,15.33,1.8,-2.21,9.01
49.145771,4.096251,15.05,1.82,-2.34,9.62
49.145771,4.096251,15.05,1.96,-1.58,9.13
49.145873,4.096106,14.82,2.33,-2.5,9.94
49.145972,4.095957,14.43,1.48,-2.11,10.04
49.145972,4.095957,14.43,2.15,-1.57,9.42
49.146059,4.095803,14.12,1.56,-2.23,10.3
49.146059,4.095803,14.12,2.69,-1.59,9.69
49.146137,4.095652,13.24,2.45,-1.56,8.51
49.146137,4.095652,13.24,3.06,-1.62,9.76
49.146199,4.09551,12.22,2.49,-1.0,9.26
49.146199,4.09551,12.22,1.41,-1.78,10.32
49.146252,4.095366,11.91,1.93,-1.38,9.53
49.146252,4.095366,11.91,1.41,-1.47,9.17
49.146298,4.09522,12.08,1.44,-2.53,9.51
49.146298,4.09522,12.08,1.36,-1.74,9.22
49.146359,4.095083,12.03,1.93,-2.48,10.25
49.146359,4.095083,12.03,2.26,-2.09,9.67
49.146427,4.09495,11.73,2.08,-1.16,10.41
49.146427,4.09495,11.73,2.18,-0.52,9.68
49.146483,4.094818,10.64,1.6,0.34,9.19
49.146483,4.094818,10.64,1.1,-0.71,9.39
49.14655,4.094716,10.0,1.41,-1.13,10.12
49.14655,4.094716,10.0,1.67,-0.68,9.56
49.146615,4.094616,10.14,0.79,-0.43,10.43
49.146615,4.094616,10.14,1.0,-0.3,10.27
49.146698,4.094552,10.36,0.93,-0.45,9.21
49.146698,4.094552,10.36,1.06,-0.32,10.09
49.146809,4.094545,10.5,0.81,0.3,10.63
49.146809,4.094545,10.5,0.6,0.95,10.7
49.146917,4.094573,10.98,1.13,0.72,10.3
49.146917,4.094573,10.98,1.08,1.69,10.81
49.147028,4.094641,11.02,1.0,1.04,9.71
49.147028,4.094641,11.02,1.26,-0.18,10.52
49.14711,4.094752,10.9,1.07,-0.7,9.75
49.14711,4.094752,10.9,1.49,-0.86,9.51
49.147168,4.094889,11.04,1.47,-1.17,10.47
49.147168,4.094889,11.04,0.94,-0.84,9.28
49.14721,4.095038,11.22,1.44,-2.8,10.15
49.14721,4.095038,11.22,1.08,-3.93,9.99
49.147241,4.095195,11.46,1.72,-2.51,8.97
49.147241,4.095195,11.46,0.57,-2.61,9.67
49.14728,4.095343,11.31,1.51,-2.74,9.78
49.147331,4.095485,11.36,1.41,-2.9,10.07
49.147331,4.095485,11.36,1.74,-2.68,9.06
49.147392,4.09561,11.24,1.07,-3.11,9.86
49.147392,4.09561,11.24,1.49,-2.99,9.6
49.147472,4.095719,11.28,1.73,-2.8,9.73
49.147472,4.095719,11.28,1.94,-3.0,8.53
49.147559,4.095806,10.94,0.96,-2.58,9.41
49.147559,4.095806,10.94,2.04,-2.8,9.68
49.147649,4.095872,11.09,0.91,-2.02,9.23
49.147649,4.095872,11.09,1.7,-2.03,8.52
49.147745,4.095924,11.2,1.02,-2.37,10.62
49.147745,4.095924,11.2,1.12,-2.05,9.21
49.14784,4.095972,11.63,0.77,-2.37,9.69
49.14784,4.095972,11.63,0.71,-1.81,9.31
49.147949,4.096011,12.36,1.23,-1.56,9.09
49.147949,4.096011,12.36,0.76,-1.48,9.33
49.14807,4.096044,13.41,0.86,-1.94,9.64
49.14807,4.096044,13.41,1.03,-2.48,8.52
49.148192,4.09606,13.94,1.08,-2.71,9.28
49.148192,4.09606,13.94,0.83,-3.78,10.18
49.148318,4.096062,14.21,0.78,-2.63,9.99
49.148318,4.096062,14.21,1.77,-2.37,8.23
49.148449,4.096047,14.68,1.51,-1.99,9.84
49.148449,4.096047,14.68,1.48,-2.24,10.08
49.148582,4.09602,14.88,2.62,-1.47,9.57
49.148582,4.09602,14.88,2.46,-2.15,9.23
49.148715,4.095984,14.09,2.8,-1.61,7.94
49.148715,4.095984,14.09,1.18,-1.4,9.69
49.148835,4.095948,12.83,3.24,-1.92,10.45
49.148835,4.095948,12.83,1.28,-2.21,9.93
49.148947,4.095917,11.93,1.69,-2.87,9.61
49.148947,4.095917,11.93,1.17,-1.58,10.08
49.149055,4.095883,12.07,1.28,-2.0,9.8
49.149055,4.095883,12.07,1.35,-1.74,10.14
49.149166,4.095851,12.03,2.18,-1.43,8.74
49.149166,4.095851,12.03,1.59,-1.85,8.88
49.149275,4.095822,11.84,1.04,-2.13,10.18
49.149275,4.095822,11.84,1.44,-2.51,9.59
49.149382,4.095791,11.94,1.27,-2.42,9.38
49.149492,4.095764,11.98,0.68,-2.04,10.14
49.149492,4.095764,11.98,0.69,-2.16,10.14
49.149606,4.095739,12.18,1.25,-1.78,9.16
49.149606,4.095739,12.18,1.39,-1.47,9.06
49.149719,4.095715,12.24,1.05,-1.16,9.17
49.149719,4.095715,12.24,1.79,-1.76,10.05
49.14983,4.095691,12.36,1.44,-0.76,9.01
49.14983,4.095691,12.36,1.23,-1.18,9.96
49.149945,4.09567,12.53,1.34,-1.09,8.57
49.149945,4.09567,12.53,1.14,-1.74,9.49
49.15006,4.095674,12.6,1.22,-1.03,8.59
49.15006,4.095674,12.6,1.24,-0.91,9.86
49.150172,4.095695,12.71,1.73,-1.9,8.65
49.150172,4.095695,12.71,1.24,-2.36,9.91
49.150281,4.09572,12.72,1.09,-1.09,9.29
49.150281,4.09572,12.72,1.71,-1.14,10.42
49.150389,4.09575,12.69,2.01,-2.34,9.93
49.150389,4.09575,12.69,3.05,-0.7,8.78
49.150492,4.095784,11.64,3.04,-1.29,9.19
49.150492,4.095784,11.64,1.85,-1.28,9.93
49.150586,4.095827,10.25,2.38,-0.34,9.26
49.150586,4.095827,10.25,1.41,-0.78,9.61
49.150663,4.095877,9.68,1.21,-0.27,10.27
49.150663,4.095877,9.68,1.19,-0.33,9.87
49.150734,4.095942,9.72,0.28,-0.27,10.17
49.150734,4.095942,9.72,0.71,-0.56,10.12
49.150801,4.096039,10.2,0.89,-0.87,10.11
49.150801,4.096039,10.2,0.38,-0.93,9.64
49.150859,4.096166,10.95,1.1,-0.78,8.99
49.150859,4.096166,10.95,0.55,-2.25,10.6
49.150899,4.096324,11.62,0.97,-1.07,8.63
49.150899,4.096324,11.62,0.33,-1.58,11.53
49.15093,4.09649,11.43,1.06,-2.58,9.53
49.15093,4.09649,11.43,2.06,-2.83,9.14
49.150951,4.096665,11.58,1.13,-2.56,9.35
49.150951,4.096665,11.58,1.93,-2.8,8.75
49.150974,4.096829,11.76,1.53,-3.62,9.59
49.150974,4.096829,11.76,0.9,-3.25,10.74
49.150998,4.096997,11.52,1.45,-3.69,10.67
49.150998,4.096997,11.52,1.06,-3.55,10.01
49.151037,4.097147,11.45,1.92,-3.86,9.37
49.1511,4.097273,11.72,1.25,-4.15,10.36
49.1511,4.097273,11.72,1.79,-4.64,10.01
49.15119,4.097367,12.12,2.12,-4.62,9.54
49.15119,4.097367,12.12,2.14,-3.63,8.69
49.1513,4.097417,11.65,1.92,-4.73,9.5
49.1513,4.097417,11.65,2.14,-4.26,8.77
49.151405,4.097437,11.05,1.59,-4.51,9.07
49.151405,4.097437,11.05,1.18,-4.28,9.62
49.151513,4.097405,11.66,1.41,-5.13,9.74
49.151513,4.097405,11.66,1.05,-4.33,9.28
49.15161,4.097319,12.41,0.92,-4.89,8.69
49.15161,4.097319,12.41,0.41,-3.69,10.47
49.151693,4.097213,12.73,1.31,-2.22,8.95
49.151693,4.097213,12.73,0.75,-2.72,9.66
49.151779,4.097042,14.2,0.95,-1.48,9.51
49.151779,4.097042,14.2,0.5,-1.95,10.1
49.151865,4.096871,15.06,0.65,-2.11,9.84
49.151865,4.096871,15.06,1.58,-2.13,9.46
49.151966,4.096711,15.86,0.83,-1.68,9.4
49.151966,4.096711,15.86,1.48,-2.61,9.45
49.152069,4.09654,16.83,0.6,-2.06,10.15
49.152069,4.09654,16.83,0.93,-2.3,9.11
49.152175,4.096358,17.27,0.88,-2.04,9.64
49.152175,4.096358,17.27,1.16,-3.26,10.17
49.152276,4.096175,17.84,0.71,-2.74,10.23
49.152276,4.096175,17.84,0.51,-1.69,9.8
49.152382,4.095988,18.47,1.0,-2.52,9.72
49.152382,4.095988,18.47,1.1,-2.43,11.37
49.152492,4.095791,19.1,1.18,-2.71,9.15
49.152492,4.095791,19.1,1.01,-2.29,9.61
49.152601,4.09559,19.55,0.69,-2.29,10.36
49.152601,4.09559,19.55,0.99,-2.49,9.13
49.152715,4.095384,19.94,1.75,-2.6,8.36
49.152715,4.095384,19.94,0.76,-2.07,9.73
49.15283,4.09517,20.11,0.82,-2.09,8.25
49.15283,4.09517,20.11,1.35,-3.09,9.84
49.152952,4.094959,20.45,1.11,-2.04,9.52
49.152952,4.094959,20.45,1.66,-2.3,8.73
49.153072,4.094744,20.9,0.23,-2.98,9.98
49.153072,4.094744,20.9,0.58,-1.92,10.18
49.153193,4.094516,21.19,1.75,-2.67,10.36
49.15331,4.09428,21.44,1.64,-2.4,10.16
49.15331,4.09428,21.44,0.97,-2.78,10.01
49.153422,4.09404,21.28,1.67,-2.26,7.73
49.153422,4.09404,21.28,1.6,-2.02,10.09
49.153532,4.0938,21.33,1.52,-2.2,10.69
49.153532,4.0938,21.33,2.26,-2.85,9.08
49.15364,4.093561,20.91,2.22,-1.7,8.69
49.15364,4.093561,20.91,2.18,-2.23,9.21
49.153745,4.093327,20.47,2.25,-2.62,9.1
49.153745,4.093327,20.47,2.42,-2.41,8.69
49.153843,4.093096,19.87,2.37,-2.25,8.82
49.153843,4.093096,19.87,2.21,-1.6,10.56
49.153935,4.092868,19.22,1.68,-1.69,9.77
49.153935,4.092868,19.22,1.56,-1.52,10.58
49.154028,4.092651,18.58,1.93,-1.31,10.12
49.154028,4.092651,18.58,1.38,-2.21,9.81
49.154121,4.092442,18.2,1.86,-0.51,9.32
49.154121,4.092442,18.2,1.72,0.31,10.4
49.154218,4.092241,18.17,1.32,-0.34,10.04
49.154218,4.092241,18.17,0.72,-0.43,11.61
49.154332,4.092068,18.25,1.27,0.54,9.05
49.154332,4.092068,18.25,2.13,-1.19,9.26
49.154466,4.09192,18.54,0.21,-0.22,10.37
49.154466,4.09192,18.54,0.78,-0.08,9.51
49.154615,4.09179,18.75,0.96,-0.07,10.2
49.154615,4.09179,18.75,0.04,0.79,10.0
49.154781,4.091696,19.0,0.91,-0.27,10.22
49.154781,4.091696,19.0,0.84,-0.93,9.93
49.154956,4.091634,19.02,1.36,-0.78,10.97
49.154956,4.091634,19.02,1.2,-0.28,11.32
49.15513,4.091604,19.05,1.35,-0.08,9.98
49.15513,4.091604,19.05,0.99,-0.11,10.34
49.155309,4.091607,19.03,0.78,-1.02,11.61
49.155309,4.091607,19.03,0.91,-0.1,9.99
49.155479,4.091648,19.32,0.83,-0.11,8.79
49.155479,4.091648,19.32,1.01,-0.17,10.5
49.155644,4.091726,19.27,0.63,1.22,11.57
49.155644,4.091726,19.27,0.84,0.29,11.21
49.155796,4.091848,19.2,1.59,0.63,9.36
49.155796,4.091848,19.2,1.51,-0.08,9.57
49.155942,4.091991,19.1,1.86,-0.92,9.7
49.155942,4.091991,19.1,1.26,-1.31,9.74
49.15607,4.092155,19.33,0.7,-1.27,9.96
49.156198,4.092333,19.39,1.44,-2.05,9.6
49.156198,4.092333,19.39,1.63,-1.71,8.95
49.15633,4.09251,19.42,1.39,-3.42,9.43
49.15633,4.09251,19.42,1.57,-3.15,9.82
49.156456,4.092688,19.48,1.28,-2.75,7.58
49.156456,4.092688,19.48,0.99,-3.14,10.2
49.156594,4.092855,19.44,1.31,-3.97,10.18
49.156594,4.092855,19.44,1.84,-3.61,7.91
49.156743,4.093002,19.32,1.92,-4.1,7.55
49.156743,4.093002,19.32,1.94,-4.56,8.02
49.156899,4.093138,18.93,1.4,-4.85,9.84
49.156899,4.093138,18.93,1.5,-3.64,9.58
49.157086,4.093219,19.38,1.5,-3.2,10.24
49.157086,4.093219,19.38,1.23,-2.96,9.57
49.157281,4.093274,20.21,1.49,-2.47,9.15
49.157281,4.093274,20.21,0.7,-3.17,9.73
49.157475,4.09331,20.15,1.69,-2.81,9.34
49.157475,4.09331,20.15,1.3,-2.47,9.86
49.157655,4.093341,20.46,1.23,-2.0,10.01
49.157655,4.093341,20.46,1.52,-1.23,10.18
49.157836,4.093362,20.38,1.64,-1.97,9.05
49.157836,4.093362,20.38,1.17,-1.65,10.38
49.158023,4.09338,20.31,1.9,-1.75,8.66
49.158023,4.09338,20.31,1.6,-1.97,10.15
49.158206,4.093408,20.37,1.53,-2.82,10.12
49.158206,4.093408,20.37,1.58,-3.16,10.19
49.158389,4.093426,20.64,1.2,-2.24,8.83
49.158389,4.093426,20.64,1.47,-3.32,9.65
49.158579,4.093439,20.84,1.3,-3.58,9.77
49.158579,4.093439,20.84,1.55,-2.84,8.95
49.15877,4.09344,21.33,1.6,-2.51,8.45
49.15877,4.09344,21.33,0.57,-3.48,10.1
49.158961,4.093403,21.49,0.34,-2.96,9.38
49.158961,4.093403,21.49,1.05,-2.86,9.41
49.15916,4.093333,21.71,0.12,-2.31,9.98
49.15916,4.093333,21.71,1.31,-2.78,10.47
49.159361,4.093262,22.29,0.61,-2.33,9.05
49.159361,4.093262,22.29,0.88,-1.98,10.8
49.159567,4.093196,22.73,0.57,-1.74,10.21
49.159567,4.093196,22.73,1.92,-2.45,10.1
49.159768,4.093122,22.87,1.39,-2.18,9.28
49.159953,4.093047,23.07,1.12,-2.04,8.64
49.159953,4.093047,23.07,1.81,-2.28,9.59
49.160145,4.092958,23.22,1.47,-1.87,8.19
49.160145,4.092958,23.22,1.06,-1.95,9.45
49.160338,4.09286,23.05,1.31,-2.03,9.9
49.160338,4.09286,23.05,0.86,-1.8,10.03
49.160535,4.092751,23.03,1.56,-2.19,8.91
49.160535,4.092751,23.03,1.79,-2.45,9.44
49.160735,4.092633,23.09,0.96,-2.74,10.96
49.160735,4.092633,23.09,0.47,-2.75,9.46
49.160928,4.092508,23.24,1.63,-2.17,10.26
49.160928,4.092508,23.24,2.01,-2.83,8.81
49.161112,4.092394,23.2,0.82,-2.5,9.26
49.161112,4.092394,23.2,2.3,-2.71,8.87
49.161288,4.092262,23.3,1.44,-1.79,9.22
49.161288,4.092262,23.3,0.63,-2.54,9.83
49.161465,4.092115,23.32,0.85,-1.14,10.11
49.161465,4.092115,23.32,1.39,-1.69,9.62
49.161646,4.091965,23.09,1.53,-1.73,9.69
49.161646,4.091965,23.09,1.26,-1.68,9.69
49.161835,4.091812,23.01,1.15,-1.81,9.48
49.161835,4.091812,23.01,1.36,-1.7,10.24
49.162017,4.091661,22.81,0.97,-1.78,10.54
49.162017,4.091661,22.81,1.94,-0.23,10.34
49.162192,4.091504,22.75,1.44,-1.2,9.17
49.162192,4.091504,22.75,1.24,-2.12,10.07
49.162364,4.091342,22.63,1.59,-1.22,10.22
49.162364,4.091342,22.63,1.57,-2.22,9.74
49.162534,4.091182,22.4,1.43,-1.13,8.55
49.162534,4.091182,22.4,1.03,-2.61,10.52
49.162703,4.091019,22.35,0.81,-1.83,10.85
49.162703,4.091019,22.35,1.55,-2.31,9.75
49.162861,4.090853,22.38,1.36,-2.68,9.34
49.162861,4.090853,22.38,0.86,-2.9,9.05
49.163023,4.090679,22.21,1.28,-1.78,8.92
49.163023,4.090679,22.21,0.71,-2.29,9.6
49.163185,4.090502,22.32,0.94,-2.76,10.89
49.163185,4.090502,22.32,1.21,-2.62,10.12
49.163342,4.090313,22.45,1.16,-1.67,9.75
49.163342,4.090313,22.45,1.74,-2.11,9.23
49.163502,4.090118,22.62,0.91,-2.47,10.81
49.163659,4.089912,22.6,1.15,-2.0,10.62
49.163659,4.089912,22.6,0.88,-1.52,10.09
49.163811,4.089708,22.45,1.02,-1.72,10.13
49.163811,4.089708,22.45,1.32,-2.45,8.49
49.163961,4.089502,22.41,1.62,-2.38,9.96
49.163961,4.089502,22.41,1.84,-1.49,8.47
49.164109,4.089296,22.4,0.63,-2.12,8.93
49.164109,4.089296,22.4,2.27,-2.3,9.19
49.164254,4.089086,22.35,0.99,-2.57,8.82
49.164254,4.089086,22.35,0.75,-2.01,9.9
49.164397,4.088868,22.36,1.66,-2.91,9.72
49.164397,4.088868,22.36,1.16,-2.62,10.45
49.164533,4.088642,22.44,1.65,-3.92,9.19
49.164533,4.088642,22.44,1.02,-2.37,10.02
49.164666,4.088407,22.59,1.91,-3.32,9.03
49.164666,4.088407,22.59,0.95,-1.83,10.48
49.164802,4.088153,22.83,1.09,-3.23,11.79
49.164802,4.088153,22.83,1.2,-2.37,9.24
49.164915,4.08789,22.99,0.92,-1.66,9.97
49.164915,4.08789,22.99,1.41,-1.82,9.59
49.16502,4.087628,23.22,0.91,-3.15,9.67
49.16502,4.087628,23.22,1.7,-1.88,8.74
49.165118,4.087362,23.36,1.33,-2.41,10.43
49.165118,4.087362,23.36,2.16,-2.47,10.42
49.165213,4.087086,23.34,1.14,-2.1,9.05
49.165213,4.087086,23.34,1.4,-1.77,9.02
49.165313,4.086805,23.3,2.01,-1.79,9.24
49.165313,4.086805,23.3,1.7,-1.5,9.22
49.165417,4.086523,23.32,1.3,-1.97,9.07
49.165417,4.086523,23.32,1.31,-2.19,9.24
49.165519,4.086237,23.44,1.27,-1.75,10.25
49.165519,4.086237,23.44,1.64,-2.18,9.31
49.165618,4.085947,23.52,1.49,-2.55,9.23
49.165618,4.085947,23.52,0.69,-2.79,11.2
49.165724,4.085661,23.61,0.79,-1.34,8.92
49.165724,4.085661,23.61,1.7,-2.2,9.45
49.165828,4.085375,23.58,0.95,-2.45,10.06
49.165828,4.085375,23.58,1.46,-2.59,8.51
49.165925,4.085087,23.55,1.22,-2.36,8.47
49.165925,4.085087,23.55,0.82,-0.91,10.08
49.166026,4.084805,23.5,0.99,-2.47,9.19
49.166026,4.084805,23.5,1.67,-1.97,10.24
49.166124,4.084523,23.47,1.36,-1.56,8.63
49.16623,4.084248,23.39,1.21,-1.57,9.07
49.16623,4.084248,23.39,1.32,-2.8,8.99
49.166331,4.083964,23.15,1.22,-3.27,10.05
49.166331,4.083964,23.15,1.62,-1.32,9.1
49.166433,4.083688,23.18,0.6,-2.0,10.3
49.166433,4.083688,23.18,0.97,-2.95,11.29
49.166536,4.083412,23.18,1.26,-1.16,9.13
49.166536,4.083412,23.18,0.09,-2.57,9.32
49.166638,4.083133,23.23,0.89,-2.37,10.37
49.166638,4.083133,23.23,1.85,-2.13,9.22
49.166736,4.082852,23.24,1.04,-2.31,9.86
49.166736,4.082852,23.24,0.47,-2.88,10.14
49.166838,4.082574,23.29,1.55,-1.64,8.96
49.166838,4.082574,23.29,0.61,-1.47,8.51
49.166939,4.082297,23.3,0.53,-2.72,9.96
49.166939,4.082297,23.3,1.5,-2.2,10.36
49.167043,4.082027,23.34,1.06,-1.12,9.62
49.167043,4.082027,23.34,1.02,-2.38,9.56
49.167145,4.081746,23.41,0.57,-2.6,9.8
49.167145,4.081746,23.41,0.8,-2.66,10.42
49.167248,4.08147,23.48,0.95,-1.59,8.57
49.167248,4.08147,23.48,0.95,-2.79,10.85
49.167347,4.081185,23.48,0.55,-2.46,9.5
49.167347,4.081185,23.48,1.63,-1.94,10.18
49.167447,4.080905,23.51,1.36,-2.21,10.44
49.167447,4.080905,23.51,0.11,-2.57,10.14
49.167552,4.080624,23.48,1.92,-3.07,9.23
49.167552,4.080624,23.48,1.08,-1.77,7.63
49.16766,4.080344,23.32,1.2,-2.39,8.89
49.16766,4.080344,23.32,0.68,-2.62,8.61
49.167763,4.080063,23.1,-0.57,-2.54,9.41
49.167763,4.080063,23.1,0.36,-2.08,9.19
49.167865,4.079788,22.74,0.27,-3.36,10.52
49.167865,4.079788,22.74,0.81,-3.19,9.66
49.167963,4.079513,22.62,0.79,-3.18,9.79
49.167963,4.079513,22.62,1.14,-2.04,9.98
49.168055,4.079243,22.42,0.98,-1.69,8.73
49.168055,4.079243,22.42,0.59,-1.87,9.58
49.168148,4.078977,22.23,0.11,-0.97,9.74
49.168148,4.078977,22.23,-0.28,-2.25,9.9
49.168234,4.078707,21.94,0.13,-1.69,9.81
49.168322,4.078442,21.77,1.56,-1.03,8.75
49.168322,4.078442,21.77,1.02,-1.98,9.32
49.168419,4.078185,21.61,0.8,-2.98,9.85
49.168419,4.078185,21.61,0.68,-1.66,9.3
49.168512,4.07793,21.33,0.78,-2.4,11.12
49.168512,4.07793,21.33,1.82,-2.11,10.02
49.168604,4.077677,21.16,0.71,-2.43,9.3
49.168604,4.077677,21.16,0.72,-3.06,9.39
49.168695,4.077425,20.8,1.19,-2.06,9.86
49.168695,4.077425,20.8,1.59,-2.35,8.77
49.168783,4.077184,19.95,1.36,-1.74,9.03
49.168783,4.077184,19.95,0.24,-1.56,9.65
49.168872,4.076955,19.68,0.5,-1.02,10.39
49.168872,4.076955,19.68,0.6,-1.03,10.88
49.168968,4.076737,19.67,0.61,-1.05,8.76
49.168968,4.076737,19.67,0.93,0.68,10.22
49.169082,4.076525,19.67,-0.45,-0.3,9.43
49.169082,4.076525,19.67,0.52,-0.45,9.47
49.169212,4.076343,19.86,1.12,-1.07,9.65
49.169212,4.076343,19.86,0.79,-0.56,10.23
49.169356,4.076176,20.21,0.09,-1.39,8.37
49.169356,4.076176,20.21,0.01,-1.2,10.3
49.169506,4.076021,20.48,0.08,-1.02,10.04
49.169506,4.076021,20.48,0.79,-1.0,10.37
49.169663,4.075878,20.67,0.01,-0.33,9.87
49.169663,4.075878,20.67,0.25,-1.33,9.24
49.169829,4.075749,20.77,0.45,-0.86,10.43
49.169829,4.075749,20.77,0.35,-1.78,10.1
49.169996,4.075633,21.01,0.62,-2.26,8.74
49.169996,4.075633,21.01,0.6,-2.48,9.05
49.170175,4.075528,21.41,0.97,-2.24,9.4
49.170175,4.075528,21.41,1.45,-1.81,8.62
49.170361,4.075423,21.72,0.69,-1.75,8.93
49.170361,4.075423,21.72,1.42,-1.57,10.05
49.170543,4.075311,21.69,1.18,-1.91,9.78
49.170543,4.075311,21.69,1.36,-1.23,9.41
49.170729,4.075203,21.94,0.95,-1.92,9.37
49.170729,4.075203,21.94,1.58,-1.17,9.07
49.170916,4.075101,22.11,0.81,-1.35,10.5
49.170916,4.075101,22.11,1.12,-2.2,9.92
49.17111,4.074994,22.36,1.86,-0.72,10.25
49.17111,4.074994,22.36,1.53,-1.57,9.24
49.171302,4.074885,22.51,1.57,-1.71,9.78
49.171496,4.074775,22.47,1.74,-2.1,9.5
49.171496,4.074775,22.47,0.9,-1.44,9.14
49.171692,4.074668,22.48,0.93,-2.47,10.2
49.171692,4.074668,22.48,1.55,-1.25,9.73
49.171882,4.074559,22.59,1.06,-2.39,9.85
49.171882,4.074559,22.59,1.23,-1.07,11.91
49.172077,4.074453,23.04,1.49,-2.21,8.0
49.172077,4.074453,23.04,1.64,-1.99,9.39
49.172277,4.07434,23.31,1.35,-1.45,10.23
49.172277,4.07434,23.31,1.45,-1.28,8.92
49.172476,4.074224,23.57,0.6,-1.2,11.41
49.172476,4.074224,23.57,1.13,-0.66,9.07
49.172675,4.074108,23.73,1.83,-1.73,9.15
49.172675,4.074108,23.73,1.13,-2.08,10.95
49.17288,4.073991,23.97,0.74,-1.78,10.53
49.17288,4.073991,23.97,1.8,-3.6,10.12
49.173086,4.073876,24.11,1.66,-1.7,10.23
49.173086,4.073876,24.11,1.74,-3.08,9.68
49.17329,4.073759,24.12,1.24,-2.34,9.05
49.17329,4.073759,24.12,1.95,-2.35,8.72
49.173493,4.07364,24.15,1.02,-1.85,8.77
49.173493,4.07364,24.15,1.49,-2.35,8.44
49.173697,4.073523,24.09,0.62,-2.29,11.07
49.173697,4.073523,24.09,0.64,-1.02,9.71
49.173906,4.073405,23.81,0.8,-1.1,10.3
49.173906,4.073405,23.81,1.64,-1.86,10.67
49.174108,4.07329,23.63,1.62,-1.88,10.52
49.174108,4.07329,23.63,1.58,-2.0,9.22
49.174312,4.073178,23.64,0.72,-1.94,8.77
49.174312,4.073178,23.64,1.16,-2.51,9.75
49.174505,4.073066,23.49,1.56,-1.43,9.04
49.174505,4.073066,23.49,0.89,-2.27,9.93
49.174702,4.072954,23.36,1.14,-1.22,7.79
49.174702,4.072954,23.36,0.62,-2.61,10.25
49.174903,4.072841,23.2,1.23,-2.56,9.65
49.174903,4.072841,23.2,1.4,-1.83,9.29
49.175104,4.072728,23.12,1.05,-0.83,8.88
49.175104,4.072728,23.12,0.71,-2.08,10.9
49.175305,4.072623,23.06,0.23,-2.21,8.94
49.175305,4.072623,23.06,1.02,-2.31,9.52
49.175494,4.07251,22.81,0.75,-1.94,10.12
49.175494,4.07251,22.81,1.47,-2.2,10.43
49.175683,4.072405,22.85,0.79,-2.42,10.03
49.175873,4.0723,22.81,1.11,-1.72,9.93
49.175873,4.0723,22.81,0.88,-2.01,9.07
49.176062,4.072193,22.64,1.27,-3.07,8.54
49.176062,4.072193,22.64,0.36,-2.5,9.91
49.176251,4.072087,22.64,1.33,-2.43,9.1
49.176251,4.072087,22.64,0.65,-1.81,9.42
49.176435,4.071981,22.36,1.82,-1.5,8.57
49.176435,4.071981,22.36,1.25,-1.81,9.62
49.176619,4.071873,22.31,0.81,-1.99,9.39
49.176619,4.071873,22.31,0.95,-1.85,9.27
49.17681,4.071766,22.19,0.34,-2.09,8.62
49.17681,4.071766,22.19,1.62,-2.62,9.28
49.176998,4.071659,22.35,1.68,-2.11,8.61
49.176998,4.071659,22.35,1.51,-2.1,9.18
49.177184,4.071554,22.35,1.44,-1.91,8.3
49.177184,4.071554,22.35,1.68,-2.34,10.06
49.17737,4.071452,22.49,0.98,-2.58,9.36
49.17737,4.071452,22.49,1.92,-1.58,10.5
49.177559,4.071345,22.65,1.56,-1.79,9.0
49.177559,4.071345,22.65,1.61,-2.08,9.73
49.177752,4.071235,22.75,0.55,-2.82,11.09
49.177752,4.071235,22.75,1.89,-1.71,9.84
49.177942,4.071124,22.85,0.26,-2.38,9.96
49.177942,4.071124,22.85,1.05,-2.28,9.41
49.178132,4.071011,22.92,0.58,-2.3,10.49
49.178132,4.071011,22.92,0.75,-1.65,9.9
49.178325,4.070901,22.82,1.66,-1.34,10.11
49.178325,4.070901,22.82,0.98,-2.19,9.73
49.178515,4.070788,22.79,0.72,-1.81,10.43
49.178515,4.070788,22.79,0.59,-2.28,9.87
49.178703,4.070679,22.62,1.02,-1.64,9.09
49.178703,4.070679,22.62,0.38,-2.77,10.1
49.17889,4.070569,22.3,1.77,-1.77,9.55
49.17889,4.070569,22.3,0.53,-1.27,8.5
49.179073,4.070464,21.92,1.26,-1.97,8.6
49.179073,4.070464,21.92,1.52,-1.38,8.06
49.179255,4.070363,21.53,0.12,-2.52,10.16
49.179255,4.070363,21.53,1.04,-1.44,10.4
49.179433,4.070264,21.52,-0.06,-0.82,8.52
49.179433,4.070264,21.52,1.31,-1.69,6.89
49.179612,4.070164,21.25,1.0,-1.86,8.88
49.179612,4.070164,21.25,0.56,-1.78,9.74
49.179785,4.070065,21.16,0.43,-2.69,9.49
49.179963,4.069967,21.16,1.21,-1.91,9.9
49.179963,4.069967,21.16,0.18,-2.53,9.21
49.18014,4.069873,21.14,1.36,-2.51,10.24
49.18014,4.069873,21.14,2.36,-1.98,9.0
49.180323,4.069772,21.1,1.13,-2.75,9.22
49.180323,4.069772,21.1,1.29,-1.88,10.4
49.1805,4.069666,21.12,0.81,-2.19,10.8
49.1805,4.069666,21.12,0.45,-1.49,10.46
49.180676,4.069562,21.01,0.97,-1.24,8.35
49.180676,4.069562,21.01,0.74,-1.36,9.68
49.180854,4.069459,20.77,-0.03,-1.76,10.87
49.180854,4.069459,20.77,0.82,-1.69,10.06
49.181033,4.06936,20.82,0.82,-1.46,8.7
49.181033,4.06936,20.82,1.61,-2.47,9.42
49.181211,4.069261,21.17,0.63,-1.95,9.86
49.181211,4.069261,21.17,1.31,-1.82,10.35
49.181393,4.069159,21.24,1.41,-2.41,8.97
49.181393,4.069159,21.24,1.18,-1.96,10.39
49.181571,4.069055,21.33,0.91,-1.64,9.34
49.181571,4.069055,21.33,1.37,-2.16,9.33
49.181747,4.068951,21.52,0.77,-2.8,9.22
49.181747,4.068951,21.52,0.35,-2.23,10.34
49.181928,4.068843,21.94,0.21,-1.88,10.06
49.181928,4.068843,21.94,0.9,-2.43,10.78
49.182109,4.068732,21.89,0.25,-2.25,10.86
49.182109,4.068732,21.89,1.24,-1.03,8.84
49.182293,4.068622,22.09,0.8,-2.31,10.29
49.182293,4.068622,22.09,0.88,-1.75,8.43
49.182482,4.068516,22.35,1.58,-1.43,9.54
49.182482,4.068516,22.35,2.19,-1.51,9.39
49.182669,4.068408,22.54,0.74,-2.24,9.09
49.182669,4.068408,22.54,0.52,-0.82,10.29
49.182868,4.068302,22.7,1.59,-2.49,9.65
49.182868,4.068302,22.7,0.83,-1.8,9.67
49.183061,4.068199,22.58,0.71,-2.62,10.26
49.183061,4.068199,22.58,1.08,-2.01,10.61
49.18325,4.068092,22.68,0.68,-1.83,10.18
49.18325,4.068092,22.68,0.99,-2.74,10.5
49.183444,4.067986,22.92,0.62,-1.36,9.98
49.183444,4.067986,22.92,0.89,-2.19,10.36
49.183632,4.067877,22.89,1.01,-2.51,10.18
49.183632,4.067877,22.89,0.21,-1.83,10.57
49.183822,4.067768,22.96,0.84,-1.88,9.68
49.184015,4.06766,22.82,0.02,-1.64,9.53
49.184015,4.06766,22.82,0.91,-2.45,9.92
49.184211,4.067554,22.81,1.3,-2.51,11.07
49.184211,4.067554,22.81,0.23,-2.14,9.13
49.184405,4.067445,22.75,-0.0,-1.46,9.71
49.184405,4.067445,22.75,0.9,-1.62,9.83
49.184595,4.067335,22.75,2.2,-1.83,8.71
49.184595,4.067335,22.75,0.87,-2.26,10.26
49.184786,4.067228,22.6,0.31,-1.36,9.71
49.184786,4.067228,22.6,0.45,-2.62,9.16
49.184973,4.067122,22.57,0.42,-1.71,10.03
49.184973,4.067122,22.57,1.37,-1.69,10.18
49.185159,4.067013,22.45,0.22,-2.47,10.17
49.185159,4.067013,22.45,0.64,-2.79,9.17
49.185345,4.06691,22.28,-0.03,-1.75,10.29
49.185345,4.06691,22.28,0.94,-2.56,9.66
49.185527,4.066807,22.21,0.46,-1.56,9.59
49.185527,4.066807,22.21,0.74,-2.12,10.58
49.185709,4.066701,22.18,0.9,-2.59,10.58
49.185709,4.066701,22.18,1.06,-1.62,8.37
49.185897,4.066596,22.09,0.37,-2.15,9.28
49.185897,4.066596,22.09,0.8,-1.76,9.32
49.186084,4.066492,22.12,0.83,-2.14,8.69
49.186084,4.066492,22.12,0.62,-2.42,10.07
49.186272,4.066391,22.03,0.57,-1.7,8.21
49.186272,4.066391,22.03,0.16,-2.06,11.66
49.186455,4.066286,22.02,1.13,-2.33,8.78
49.186455,4.066286,22.02,0.82,-1.1,9.39
49.186639,4.066184,22.04,0.23,-3.38,9.96
49.186639,4.066184,22.04,1.49,-2.09,9.06
49.186823,4.066082,21.84,0.88,-2.05,9.13
49.186823,4.066082,21.84,0.45,-1.88,10.57
49.187004,4.065978,21.75,0.94,-2.32,10.63
49.187004,4.065978,21.75,0.71,-2.13,9.39
49.187188,4.065877,21.73,0.42,-2.77,9.38
49.187188,4.065877,21.73,0.17,-2.07,9.84
49.187368,4.065774,21.76,0.35,-2.11,8.49
49.187368,4.065774,21.76,0.02,-2.51,10.12
49.187549,4.06567,21.75,0.64,-2.51,9.51
49.187549,4.06567,21.75,1.39,-2.16,9.51
49.18773,4.065565,21.98,0.35,-1.12,9.15
49.187914,4.065459,21.95,0.76,-1.67,9.19
49.187914,4.065459,21.95,1.58,-3.13,8.71
49.188096,4.065354,22.09,0.79,-1.26,10.59
49.188096,4.065354,22.09,0.35,-2.32,9.96
49.18828,4.065249,22.15,0.31,-1.9,9.62
49.18828,4.065249,22.15,0.82,-1.28,9.69
49.188465,4.065143,22.21,0.54,-1.78,9.28
49.188465,4.065143,22.21,0.23,-2.55,11.35
49.188652,4.065038,22.3,0.91,-1.44,9.6
49.188652,4.065038,22.3,0.11,-1.97,10.38
49.188839,4.064931,22.47,-0.06,-2.59,10.81
49.188839,4.064931,22.47,1.31,-2.07,9.35
49.189029,4.06483,22.32,0.1,-2.78,10.54
49.189029,4.06483,22.32,1.11,-1.72,8.6
49.189216,4.064732,22.08,1.07,-2.67,10.32
49.189216,4.064732,22.08,0.83,-2.71,9.44
49.189401,4.064628,21.98,0.47,-1.75,9.96
49.189401,4.064628,21.98,0.24,-1.93,10.26
49.189585,4.064523,21.9,0.32,-1.89,8.81
49.189585,4.064523,21.9,0.62,-1.36,9.8
49.189765,4.064414,21.82,0.56,-2.43,8.78
49.189765,4.064414,21.82,0.08,-0.83,9.43
49.189952,4.064308,21.83,0.19,-0.76,9.44
49.189952,4.064308,21.83,-0.27,-2.59,11.19
49.190139,4.064208,21.93,0.16,-3.34,11.04
49.190139,4.064208,21.93,0.35,-2.35,10.29
49.190327,4.064112,21.92,0.55,-3.2,9.58
49.190327,4.064112,21.92,0.17,-2.86,10.12
49.190515,4.064014,22.03,-0.07,-2.52,9.27
49.190515,4.064014,22.03,0.79,-2.27,10.11
49.1907,4.06391,22.01,0.52,-2.25,8.5
49.1907,4.06391,22.01,0.54,-2.15,11.19
49.190882,4.063803,22.02,0.02,-2.31,9.75
49.190882,4.063803,22.02,0.36,-2.14,9.05
49.19107,4.0637,21.9,-0.21,-2.02,10.31
49.19107,4.0637,21.9,1.08,-2.68,9.68
49.191256,4.063602,21.81,0.34,-1.2,9.45
49.191256,4.063602,21.81,0.63,-1.87,9.28
49.191438,4.0635,21.74,0.23,-2.61,9.78
49.191622,4.063398,21.81,0.68,-2.11,9.2
49.191622,4.063398,21.81,0.12,-2.28,9.87
49.191806,4.063297,21.68,0.04,-1.98,8.93
49.191806,4.063297,21.68,0.91,-1.99,9.51
49.191988,4.063195,21.54,1.02,-1.25,9.23
49.191988,4.063195,21.54,1.07,-1.36,9.46
49.192167,4.063093,21.4,-0.09,-2.16,9.95
49.192167,4.063093,21.4,0.82,-2.06,9.03
49.192343,4.062991,21.29,0.34,-1.28,9.33
49.192343,4.062991,21.29,0.06,-1.91,9.16
49.192522,4.062884,21.38,0.28,-2.49,10.21
49.192522,4.062884,21.38,0.02,-2.86,9.6
49.192697,4.062781,21.6,1.63,-1.7,8.81
49.192697,4.062781,21.6,1.34,-2.49,8.88
49.192872,4.062677,21.71,0.52,-1.92,8.89
49.192872,4.062677,21.71,1.01,-2.08,9.2
49.193047,4.062571,21.93,1.15,-1.76,9.35
49.193047,4.062571,21.93,0.76,-1.47,9.14
49.193233,4.062465,22.11,0.7,-2.54,10.16
49.193233,4.062465,22.11,0.7,-2.23,9.1
49.193419,4.062361,22.33,2.38,-1.85,8.32
49.193419,4.062361,22.33,1.64,-1.69,8.88
49.193616,4.062256,22.08,1.62,-2.62,9.79
49.193616,4.062256,22.08,1.75,-3.48,10.54
49.193809,4.062154,21.55,1.48,-1.93,9.72
49.193809,4.062154,21.55,0.27,-1.7,8.71
49.193991,4.062053,21.05,0.76,-2.39,9.28
49.193991,4.062053,21.05,1.47,-2.18,8.23
49.194166,4.061948,20.88,1.76,-2.53,10.62
49.194166,4.061948,20.88,0.97,-3.62,9.53
49.194338,4.061836,20.78,1.81,-2.18,8.83
49.194338,4.061836,20.78,1.39,-3.15,9.19
49.194508,4.061709,21.01,1.84,-2.96,9.45
49.194508,4.061709,21.01,1.07,-4.33,9.66
49.194679,4.061558,21.34,1.65,-3.1,9.61
49.194679,4.061558,21.34,0.79,-3.21,10.16
49.19484,4.06138,21.56,0.6,-1.59,8.53
49.19484,4.06138,21.56,0.86,-2.69,11.17
49.194989,4.061182,21.95,0.4,-1.03,9.66
49.194989,4.061182,21.95,1.09,-2.05,8.03
49.195139,4.060982,22.32,0.83,-2.49,10.44
49.195139,4.060982,22.32,1.38,-1.99,8.98
49.195291,4.06078,22.73,0.95,-1.99,10.88
49.195291,4.06078,22.73,1.8,-2.06,9.87
49.19544,4.06057,22.71,1.41,-2.22,9.07
49.195597,4.060371,22.84,1.01,-2.09,10.75
49.195597,4.060371,22.84,1.32,-1.81,9.1
49.195757,4.06017,22.89,1.47,-2.29,9.95
49.195757,4.06017,22.89,1.64,-2.39,9.8
49.195911,4.059959,22.8,1.71,-1.66,9.41
49.195911,4.059959,22.8,0.95,-2.25,9.33
49.196067,4.059753,22.64,1.67,-2.03,8.25
49.196067,4.059753,22.64,0.95,-1.96,10.26
49.196218,4.059541,22.72,0.88,-2.29,10.45
49.196218,4.059541,22.72,1.75,-2.8,8.97
49.196374,4.059334,22.75,1.93,-1.78,8.29
49.196374,4.059334,22.75,0.67,-1.22,10.06
49.196525,4.059117,22.77,0.35,-1.7,11.2
49.196525,4.059117,22.77,1.42,-1.84,10.46
49.19668,4.058911,22.75,0.67,-1.88,9.47
49.19668,4.058911,22.75,2.43,-1.43,9.12
49.196837,4.05871,22.73,0.32,-0.89,9.34
49.196837,4.05871,22.73,1.28,-1.91,9.08
49.196999,4.058515,22.68,1.23,-1.83,9.57
49.196999,4.058515,22.68,1.53,-2.56,9.66
49.197159,4.058317,22.67,1.24,-1.75,8.85
49.197159,4.058317,22.67,0.81,-2.99,11.08
49.197316,4.058116,22.6,1.45,-2.45,9.62
49.197316,4.058116,22.6,1.07,-1.28,7.82
49.19747,4.057911,22.56,1.4,-1.96,8.83
49.19747,4.057911,22.56,1.01,-1.92,8.7
49.197623,4.057707,22.58,0.39,-2.3,9.25
49.197623,4.057707,22.58,1.17,-1.92,10.21
49.197773,4.057499,22.68,1.74,-1.35,8.35
49.197773,4.057499,22.68,0.56,-2.37,9.29
49.197924,4.057287,22.9,1.76,-2.11,9.89
49.197924,4.057287,22.9,0.99,-2.82,9.0
49.198076,4.057076,23.11,0.24,-1.92,10.04
49.198076,4.057076,23.11,1.52,-2.51,9.67
49.198233,4.056868,23.33,1.08,-1.47,8.82
49.198233,4.056868,23.33,1.83,-1.93,8.27
49.198391,4.056656,23.39,1.81,-1.55,8.08
49.198391,4.056656,23.39,1.44,-2.73,10.38
49.19855,4.056447,23.27,0.88,-1.89,10.47
49.19855,4.056447,23.27,0.52,-1.15,10.12
49.198711,4.056243,23.2,1.36,-1.89,10.46
49.198869,4.056032,23.2,1.68,-1.74,9.43
49.198869,4.056032,23.2,1.17,-1.35,9.53
49.199027,4.055824,23.02,2.43,-2.83,10.12
49.199027,4.055824,23.02,0.38,-2.82,10.8
49.199183,4.055618,22.7,1.45,-1.36,10.07
49.199183,4.055618,22.7,1.37,-1.2,10.35
49.199341,4.055419,22.45,1.75,-1.72,9.85
49.199341,4.055419,22.45,1.47,-2.12,9.75
49.199489,4.055209,22.28,1.7,-0.99,8.78
49.199489,4.055209,22.28,1.26,-2.31,8.94
49.199638,4.055004,22.28,1.17,-2.23,10.46
49.199638,4.055004,22.28,1.13,-1.57,9.8
49.199789,4.054801,22.2,1.46,-2.5,10.37
49.199789,4.054801,22.2,1.07,-1.88,9.22
49.19994,4.054602,21.97,1.46,-1.7,9.32
49.19994,4.054602,21.97,1.76,-1.84,9.02
49.20009,4.054409,21.71,1.02,-2.1,9.94
49.20009,4.054409,21.71,1.04,-1.82,9.33
49.200241,4.05422,21.48,1.54,-1.16,10.18
49.200241,4.05422,21.48,0.95,-1.75,9.78
49.20039,4.05403,21.42,1.54,-2.6,11.09
49.20039,4.05403,21.42,1.44,-3.42,9.9
49.200535,4.053838,21.29,0.84,-3.19,10.88
49.200535,4.053838,21.29,0.53,-1.85,9.67
49.200676,4.053644,20.93,0.74,-2.19,9.96
49.200676,4.053644,20.93,1.59,-1.54,9.5
49.200813,4.053449,20.8,1.25,-1.92,10.74
49.200813,4.053449,20.8,1.14,-1.81,9.36
49.200951,4.05326,20.33,1.36,-2.15,8.87
49.200951,4.05326,20.33,1.5,-1.25,8.99
49.201085,4.053073,19.98,2.01,-1.41,9.33
49.201085,4.053073,19.98,1.11,-2.93,11.6
49.201215,4.052891,19.44,2.62,-1.53,8.99
49.201215,4.052891,19.44,1.47,-1.54,9.65
49.201346,4.052723,18.69,2.55,-1.71,9.06
49.201346,4.052723,18.69,2.85,-1.22,8.28
49.201465,4.052554,17.29,2.58,-2.46,10.24
49.201465,4.052554,17.29,2.08,-2.04,9.2
49.201571,4.0524,15.51,2.28,-2.51,9.43
49.201667,4.052254,14.69,1.6,-1.75,10.89
49.201667,4.052254,14.69,1.74,-1.78,10.47
49.201761,4.052122,13.96,0.7,-1.17,10.22
49.201761,4.052122,13.96,0.27,-2.21,10.57
49.201852,4.051995,13.67,0.9,-1.98,10.09
49.201852,4.051995,13.67,1.01,-2.03,9.58
49.201944,4.051871,13.77,0.87,-2.19,9.63
49.201944,4.051871,13.77,0.57,-2.19,9.35
49.202036,4.051741,14.04,1.04,-1.7,9.31
49.202036,4.051741,14.04,0.48,-1.47,10.16
49.202132,4.051615,14.21,-0.01,-0.79,9.19
49.202132,4.051615,14.21,1.15,-1.82,9.64
49.202232,4.051494,14.33,0.26,-1.49,9.75
49.202232,4.051494,14.33,1.04,-1.64,10.32
49.202331,4.051366,14.36,2.14,-1.58,9.45
49.202331,4.051366,14.36,1.81,-1.51,9.94
49.202434,4.051248,14.07,2.07,-1.69,8.23
49.202434,4.051248,14.07,2.23,-1.63,9.68
49.202535,4.051133,13.79,1.29,-1.65,10.75
49.202535,4.051133,13.79,1.24,-2.44,10.55
49.202626,4.051018,13.62,0.89,-1.95,9.61
49.202626,4.051018,13.62,1.24,-0.38,8.88
49.202725,4.050915,13.55,0.68,-0.89,10.87
49.202725,4.050915,13.55,1.87,-0.53,9.26
49.202827,4.050808,13.44,2.08,-1.64,8.63
49.202827,4.050808,13.44,0.95,-1.72,11.47
49.202929,4.050706,13.25,1.36,-3.39,10.45
49.202929,4.050706,13.25,1.76,-2.23,7.05
49.203035,4.050617,13.13,0.66,-1.63,8.24
49.203035,4.050617,13.13,1.69,-1.43,9.58
49.203139,4.050526,12.99,1.1,-1.49,9.24
49.203139,4.050526,12.99,1.74,-2.04,8.25
49.203239,4.050432,12.95,0.48,-2.34,11.6
49.203239,4.050432,12.95,0.01,-1.36,9.51
49.203339,4.050341,13.14,1.79,-0.8,8.48
49.203339,4.050341,13.14,0.4,-1.35,9.94
49.203443,4.050254,13.25,1.44,-0.99,9.99
49.203443,4.050254,13.25,2.02,-1.97,9.95
49.203551,4.050175,13.31,1.19,-1.63,8.94
49.203551,4.050175,13.31,1.3,-1.88,9.85
49.20366,4.050099,13.06,1.6,-2.14,9.28
49.20366,4.050099,13.06,1.92,-0.81,8.75
49.203773,4.050036,12.85,1.88,-1.74,8.91
49.203887,4.049976,12.42,1.75,-1.13,9.83
49.203887,4.049976,12.42,1.37,-2.17,8.75
49.203995,4.04992,12.43,2.03,-2.14,12.11
49.203995,4.04992,12.43,0.06,-1.58,8.57
49.204102,4.049868,12.42,1.5,-0.87,9.04
49.204102,4.049868,12.42,1.02,-1.81,9.65
49.20421,4.049828,12.45,0.88,-2.27,10.3
49.20421,4.049828,12.45,1.79,-2.56,9.41
49.204324,4.049797,12.61,1.14,-1.2,9.77
49.204324,4.049797,12.61,1.45,-2.44,10.01
49.204443,4.049776,12.86,1.76,-1.92,8.8
49.204443,4.049776,12.86,1.04,-2.47,10.34
49.204566,4.049762,13.06,1.08,-1.97,9.82
49.204566,4.049762,13.06,1.03,-2.41,9.62
49.204688,4.049747,13.06,1.47,-1.43,9.16
49.204688,4.049747,13.06,1.36,-2.02,9.13
49.204808,4.04974,12.9,1.7,-1.49,9.03
49.204808,4.04974,12.9,1.74,-1.29,9.57
49.204928,4.049747,12.81,1.19,-1.56,11.15
49.204928,4.049747,12.81,1.67,-1.58,9.57
49.205039,4.04976,12.35,1.34,-2.17,9.82
49.205039,4.04976,12.35,1.69,-1.79,8.94
49.205143,4.049782,12.05,1.3,-1.97,10.38
49.205143,4.049782,12.05,0.11,-2.19,9.89
49.205249,4.049808,12.39,0.91,-1.38,9.61
49.205249,4.049808,12.39,1.21,-2.68,9.63
49.205364,4.049835,12.81,1.14,-2.44,9.72
49.205364,4.049835,12.81,1.53,-1.74,9.18
49.205481,4.049873,12.98,1.42,-2.06,9.44
49.205481,4.049873,12.98,1.0,-1.91,10.24
49.205596,4.049924,12.82,1.46,-2.16,9.28
49.205596,4.049924,12.82,1.83,-1.96,8.99
49.205709,4.049977,12.86,0.98,-1.88,8.96
49.205709,4.049977,12.86,1.58,-1.74,9.08
49.205806,4.050043,12.75,1.55,-1.89,9.54
49.205806,4.050043,12.75,1.2,-1.48,8.84
49.205907,4.050123,12.7,1.59,-1.5,8.74
49.205907,4.050123,12.7,1.08,-2.1,9.29
49.205997,4.050205,12.23,0.94,-1.57,10.18
49.205997,4.050205,12.23,1.17,-2.1,9.51
49.206083,4.050285,12.36,0.95,-2.27,9.5
49.206177,4.050362,12.71,1.02,-1.52,9.1
49.206177,4.050362,12.71,1.28,-2.45,9.02
49.206277,4.050449,12.78,1.67,-1.9,9.49
49.206277,4.050449,12.78,0.61,-1.71,10.28
49.206379,4.050534,12.78,1.19,-1.47,9.37
49.206379,4.050534,12.78,1.98,-1.28,8.83
49.206483,4.050619,12.9,1.22,-2.3,9.99
49.206483,4.050619,12.9,1.7,-1.7,9.98
49.206591,4.0507,12.77,1.12,-1.6,9.59
49.206591,4.0507,12.77,0.83,-1.98,10.36
49.206701,4.050778,12.68,0.68,-1.87,10.04
49.206701,4.050778,12.68,0.55,-1.69,10.87
49.206815,4.050846,12.57,1.03,-1.34,10.76
49.206815,4.050846,12.57,1.02,-1.47,9.31
49.206938,4.050907,12.55,1.28,-1.46,9.54
49.206938,4.050907,12.55,1.15,-1.87,10.21
49.207053,4.050952,12.77,1.22,-1.88,9.05
49.207053,4.050952,12.77,1.07,-2.47,10.65
49.207162,4.05099,12.37,1.41,-1.65,9.1
49.207162,4.05099,12.37,1.18,-1.22,10.33
49.207273,4.051016,12.11,0.96,-1.54,10.33
49.207273,4.051016,12.11,0.34,-1.62,10.14
49.207387,4.051034,12.64,0.51,-3.01,9.46
49.207387,4.051034,12.64,0.95,-1.51,9.09
49.207502,4.051046,12.58,1.23,-1.32,8.75
49.207502,4.051046,12.58,1.04,-0.84,9.65
49.207618,4.051053,12.92,1.57,-0.62,8.96
49.207618,4.051053,12.92,1.43,-1.37,9.69
49.207738,4.051059,12.78,1.09,-1.3,9.26
49.207738,4.051059,12.78,1.54,-1.38,9.9
49.207849,4.05106,12.52,0.57,-1.43,9.36
49.207849,4.05106,12.52,1.41,-1.87,9.98
49.207961,4.051055,12.56,1.8,-1.45,8.87
49.207961,4.051055,12.56,1.36,-1.83,9.48
49.208072,4.051049,12.42,1.23,-2.05,9.5
49.208072,4.051049,12.42,1.01,-2.9,9.56
49.208179,4.05104,12.35,0.86,-2.35,10.19
49.208179,4.05104,12.35,1.11,-1.46,9.13
49.208285,4.051035,12.12,1.16,-1.66,9.62
49.208397,4.051034,12.16,0.57,-2.34,10.04
49.208397,4.051034,12.16,0.55,-2.33,9.5
49.208509,4.051031,12.28,1.48,-1.73,9.13
49.208509,4.051031,12.28,1.26,-1.82,10.46
49.208623,4.051025,12.14,1.16,-1.97,9.87
49.208623,4.051025,12.14,1.01,-2.2,9.51
49.208743,4.051022,12.03,1.83,-1.52,8.02
49.208743,4.051022,12.03,1.34,-1.99,9.1
49.208849,4.051021,11.38,1.42,-1.98,9.92
49.208849,4.051021,11.38,2.95,-1.43,9.02
49.208947,4.05102,10.76,2.75,-0.99,9.34
49.208947,4.05102,10.76,2.37,-1.71,9.71
49.209038,4.05102,9.94,2.24,-1.83,9.64
49.209038,4.05102,9.94,2.89,-1.99,9.4
49.20912,4.051019,8.81,2.18,-2.66,9.94
49.20912,4.051019,8.81,2.62,-1.38,9.29
49.209197,4.051018,7.89,2.56,-1.69,9.08
49.209197,4.051018,7.89,3.18,-1.9,10.06
49.209263,4.051019,6.53,2.92,-0.93,9.85
49.209263,4.051019,6.53,1.95,-1.32,9.7
49.209301,4.051027,5.3,2.02,-1.7,9.47
49.209301,4.051027,5.3,1.3,-1.56,9.61
49.209339,4.051034,4.9,1.37,-1.69,9.68
49.209339,4.051034,4.9,-0.21,-1.53,9.54
49.209391,4.051042,5.03,0.25,-2.04,9.74
49.209391,4.051042,5.03,-0.21,-1.61,10.72
49.209446,4.051062,5.88,-0.43,-1.07,10.14
49.209446,4.051062,5.88,1.31,-2.0,9.46
49.209511,4.051097,6.61,0.63,-3.58,9.17
49.209511,4.051097,6.61,0.57,-3.32,9.18
49.209575,4.051143,7.05,0.84,-5.0,9.51
49.209575,4.051143,7.05,0.88,-5.09,8.46
49.209632,4.051166,7.33,1.47,-3.17,9.39
49.209632,4.051166,7.33,1.75,-4.31,10.02
49.209692,4.051153,7.65,1.57,-2.44,9.34
49.209692,4.051153,7.65,0.68,-1.4,10.0
49.209756,4.0511,7.6,0.92,-1.56,10.45
49.209756,4.0511,7.6,-0.12,-1.01,9.91
49.209813,4.05105,7.71,0.25,-1.22,9.62
49.209813,4.05105,7.71,-0.32,-0.68,10.07
49.209886,4.051016,8.32,0.3,-2.11,7.85
49.209886,4.051016,8.32,0.29,-0.87,8.7
49.209965,4.051002,9.29,0.5,-2.53,9.7
49.210051,4.051,10.13,0.32,-1.91,9.42
49.210051,4.051,10.13,0.27,-2.13,9.33
49.210143,4.050998,10.66,0.95,-2.01,10.7
49.210143,4.050998,10.66,0.83,-2.23,9.3
49.210238,4.050997,10.94,0.24,-2.31,9.15
49.210238,4.050997,10.94,1.3,-3.29,9.42
49.210336,4.050995,11.34,1.24,-2.46,9.67
49.210336,4.050995,11.34,1.33,-1.93,9.83
49.210436,4.050991,11.32,1.05,-2.26,9.38
49.210436,4.050991,11.32,0.95,-2.06,8.67
49.210539,4.050987,11.36,0.34,-1.94,8.66
49.210539,4.050987,11.36,1.2,-2.58,9.41
49.21064,4.050986,11.56,1.77,-2.06,9.6
49.21064,4.050986,11.56,0.46,-2.69,10.35
49.210741,4.050985,11.35,1.12,-2.04,10.58
49.210741,4.050985,11.35,1.24,-2.05,9.3
49.210841,4.050983,11.03,1.13,-2.28,9.82
49.210841,4.050983,11.03,1.04,-2.27,9.55
49.210939,4.05098,10.7,1.34,-1.79,9.15
49.210939,4.05098,10.7,1.21,-1.59,9.85
49.211035,4.050974,10.55,1.09,-1.46,10.0
49.211035,4.050974,10.55,1.39,-1.93,9.84
49.211126,4.050972,10.26,2.29,-1.74,8.62
49.211126,4.050972,10.26,2.15,-1.69,9.77
49.211211,4.050973,9.24,2.42,-1.64,9.89
49.211211,4.050973,9.24,2.26,-2.08,9.39
49.211284,4.050976,7.96,3.09,-1.7,8.98
49.211284,4.050976,7.96,3.31,-1.11,10.12
49.211345,4.050981,6.26,2.34,-1.96,10.42
49.211345,4.050981,6.26,1.79,-2.15,9.83
49.211396,4.050988,4.93,1.47,-1.82,9.98
49.211396,4.050988,4.93,0.37,-1.86,9.73
49.211445,4.050997,4.94,0.26,-1.48,9.84
49.211445,4.050997,4.94,0.35,-1.04,9.86
49.211501,4.051013,5.61,0.01,-0.95,10.6
49.211501,4.051013,5.61,0.08,-1.83,10.99
49.211555,4.051044,6.3,1.32,-2.25,10.31
49.211555,4.051044,6.3,1.01,-3.06,9.14
49.21161,4.05109,6.7,0.89,-3.32,9.96
49.211664,4.051135,6.65,0.78,-4.22,8.5
49.211664,4.051135,6.65,1.34,-5.03,9.27
49.211716,4.051175,7.29,1.28,-4.34,8.6
49.211716,4.051175,7.29,0.64,-4.27,8.14
49.21178,4.051175,7.86,1.15,-3.56,9.24
49.21178,4.051175,7.86,1.08,-3.21,9.71
49.211852,4.051123,8.19,0.61,-0.82,9.6
49.211852,4.051123,8.19,-0.38,-0.07,10.78
49.211922,4.051056,8.39,-0.41,0.51,10.3
49.211922,4.051056,8.39,-0.05,-0.69,9.62
49.211996,4.051005,9.47,-0.44,-1.24,10.37
49.211996,4.051005,9.47,-0.22,-0.72,8.86
49.212087,4.050983,10.81,0.4,-1.66,10.86
49.212087,4.050983,10.81,0.52,-1.36,9.47
49.212188,4.050974,10.83,1.81,-1.43,9.76
49.212188,4.050974,10.83,1.74,-1.83,9.22
49.212292,4.050968,10.94,0.41,-2.15,9.62
49.212292,4.050968,10.94,1.18,-1.88,9.52
49.212396,4.050964,11.2,0.63,-1.77,9.87
49.212396,4.050964,11.2,0.14,-2.79,9.49
49.212501,4.050957,11.67,1.37,-0.87,9.36
49.212501,4.050957,11.67,1.37,-2.67,10.52
49.212609,4.050952,11.77,0.56,-2.26,9.69
49.212609,4.050952,11.77,0.58,-0.87,9.34
49.212718,4.050946,12.19,0.73,-2.17,10.12
49.212718,4.050946,12.19,1.01,-2.33,9.85
49.212825,4.050943,12.27,1.65,-1.34,9.29
49.212825,4.050943,12.27,1.64,-2.19,9.52
49.212938,4.050942,12.34,1.75,-1.2,8.89
49.212938,4.050942,12.34,1.03,-1.53,9.5
49.213048,4.050939,12.3,1.04,-2.57,10.69
49.213048,4.050939,12.3,1.75,-2.09,8.58
49.21316,4.050937,12.45,2.18,-1.63,9.37
49.21316,4.050937,12.45,1.68,-1.1,8.43
49.213271,4.050935,11.89,2.21,-1.65,10.14
49.213271,4.050935,11.89,1.42,-2.31,9.51
49.213375,4.050936,11.27,1.27,-2.37,9.53
49.213375,4.050936,11.27,2.24,-1.8,8.99
49.213475,4.050938,10.77,2.01,-2.47,10.01
49.213475,4.050938,10.77,1.3,-2.06,9.65
49.213568,4.050942,10.42,1.48,-2.07,8.93
49.213654,4.050942,9.3,1.82,-2.21,10.19
49.213654,4.050942,9.3,1.93,-2.17,9.52
49.213738,4.050948,9.44,2.15,-1.94,9.29
49.213738,4.050948,9.44,2.2,-2.12,9.72
49.213822,4.050952,9.05,1.49,-2.45,9.37
49.213822,4.050952,9.05,2.23,-1.7,10.22
49.213905,4.050955,9.08,1.96,-2.14,8.11
49.213905,4.050955,9.08,2.5,-2.08,8.88
49.213987,4.050957,9.2,1.37,-2.47,10.01
49.213987,4.050957,9.2,0.52,-2.32,9.84
49.214073,4.050959,9.41,1.55,-2.29,9.46
49.214073,4.050959,9.41,1.52,-2.44,9.99
49.214161,4.050963,9.66,1.51,-2.58,9.41
49.214161,4.050963,9.66,0.89,-2.17,9.34
49.214251,4.050965,9.64,0.99,-2.16,10.71
49.214251,4.050965,9.64,1.19,-2.29,10.09
49.214339,4.050964,9.77,-0.24,-1.86,7.79
49.214339,4.050964,9.77,0.84,-2.4,10.57
49.214426,4.050964,9.8,2.27,-2.83,10.62
49.214426,4.050964,9.8,2.17,-1.73,9.08
49.214509,4.050964,9.08,2.81,-2.61,9.65
49.214509,4.050964,9.08,2.71,-1.34,10.34
49.214584,4.050968,8.12,2.77,-1.35,9.55
49.214584,4.050968,8.12,3.33,-1.11,9.84
49.214647,4.050974,6.49,3.05,-1.44,9.37
49.214647,4.050974,6.49,1.34,-1.63,10.06
49.214697,4.050983,5.06,1.29,-1.72,9.99
49.214697,4.050983,5.06,-0.19,-0.92,9.2
49.214745,4.050996,5.5,1.0,-1.67,9.17
49.214745,4.050996,5.5,1.53,-1.62,9.77
49.214792,4.051015,5.89,0.34,-1.99,10.1
49.214792,4.051015,5.89,0.4,-2.44,9.65
49.214841,4.051039,6.44,0.5,-2.83,9.48
49.214841,4.051039,6.44,0.75,-3.13,9.64
49.214898,4.051064,7.35,1.58,-3.6,9.43
49.214898,4.051064,7.35,1.05,-2.14,8.9
49.214967,4.051081,7.77,1.07,-2.84,9.05
49.214967,4.051081,7.77,0.13,-2.61,8.78
49.21504,4.05108,8.14,-0.61,-2.34,10.39
49.21504,4.05108,8.14,-1.03,-0.58,9.77
49.215118,4.051057,9.06,1.61,0.14,6.55
49.215209,4.051038,10.48,-0.65,-2.57,10.89
49.215209,4.051038,10.48,-0.41,-1.91,6.61
49.215307,4.051034,11.28,0.51,-2.88,11.28
49.215307,4.051034,11.28,1.1,-2.03,8.79
49.215412,4.051031,11.97,0.63,-2.28,10.6
49.215412,4.051031,11.97,2.04,-2.46,12.21
49.215521,4.051024,11.93,2.38,-1.76,10.31
49.215521,4.051024,11.93,1.52,-2.39,10.21
49.215628,4.051018,11.66,1.13,-2.09,9.83
49.215628,4.051018,11.66,1.43,-0.99,9.39
49.215727,4.051013,11.3,1.48,-0.94,9.71
49.215727,4.051013,11.3,0.94,-0.88,9.67
49.215824,4.051015,11.02,1.35,-0.79,9.76
49.215824,4.051015,11.02,0.85,-0.24,9.3
49.21592,4.051033,10.62,0.09,-0.91,10.07
49.21592,4.051033,10.62,0.1,-0.47,9.52
49.216012,4.051067,10.54,0.32,0.2,8.17
49.216012,4.051067,10.54,0.75,0.85,8.13
49.216099,4.051116,10.37,1.17,-1.05,10.21
49.216099,4.051116,10.37,2.44,-1.41,9.26
49.216178,4.051193,10.35,1.98,-0.63,9.85
49.216178,4.051193,10.35,2.18,-0.91,8.85
49.216252,4.051283,9.69,1.9,-1.52,9.7
49.216252,4.051283,9.69,2.42,-0.56,9.12
49.216315,4.051373,8.8,2.38,-1.33,9.63
49.216315,4.051373,8.8,2.08,-2.26,10.19
49.216372,4.051459,7.82,2.13,-0.91,10.43
49.216372,4.051459,7.82,3.17,-0.61,9.48
49.216419,4.05154,6.96,0.63,-0.34,11.22
49.216419,4.05154,6.96,3.35,-1.53,8.83
49.216452,4.051615,5.82,1.28,-1.99,9.98
49.216452,4.051615,5.82,0.11,-2.26,9.27
49.216476,4.051684,5.12,-1.6,-2.51,9.66
49.216476,4.051684,5.12,-2.31,-2.81,9.84
49.216503,4.05176,6.81,-1.63,-2.38,9.25
49.216503,4.05176,6.81,-1.13,-2.16,9.71
49.216545,4.051869,9.93,-0.86,-2.09,10.17
49.216545,4.051869,9.93,-0.53,-2.63,9.47
49.216595,4.052005,12.05,-0.78,-1.92,10.04
49.216595,4.052005,12.05,-0.27,-2.6,10.16
49.21665,4.052156,13.29,1.66,-1.87,9.49
49.21671,4.052327,14.03,1.03,-1.2,9.9
49.21671,4.052327,14.03,1.05,-0.91,8.89
49.216771,4.052498,13.95,1.37,-1.85,9.49
49.216771,4.052498,13.95,1.11,-1.61,8.95
49.216829,4.052672,14.11,1.17,-1.85,9.4
49.216829,4.052672,14.11,1.33,-1.78,9.84
49.216889,4.052848,14.16,0.76,-1.61,8.73
49.216889,4.052848,14.16,1.01,-1.92,9.96
49.216951,4.053026,14.53,0.32,-1.46,10.3
49.216951,4.053026,14.53,1.05,-1.86,10.12
49.217012,4.053205,14.74,0.55,-2.05,9.56
49.217012,4.053205,14.74,1.92,-1.88,9.05
49.217072,4.053385,14.56,1.82,-1.21,9.25
49.217072,4.053385,14.56,1.31,-1.5,9.06
49.217131,4.053562,14.21,1.42,-1.87,10.02
49.217131,4.053562,14.21,1.67,-1.19,9.7
49.217188,4.053737,14.05,1.36,-1.04,9.17
49.217188,4.053737,14.05,0.83,-1.67,9.81
49.217241,4.053911,13.89,0.94,-1.22,8.89
49.217241,4.053911,13.89,2.04,-0.98,8.71
49.217292,4.054084,14.09,0.86,-1.55,9.88
49.217292,4.054084,14.09,0.46,-1.8,9.04
49.21734,4.054265,14.48,-0.12,-2.27,9.51
49.21734,4.054265,14.48,0.52,-2.19,9.96
49.217388,4.054454,14.86,0.6,-1.48,9.06
49.217388,4.054454,14.86,0.33,-1.61,10.23
49.217435,4.054648,15.01,0.95,-1.69,9.0
49.217435,4.054648,15.01,1.26,-1.75,9.08
49.21748,4.054847,15.21,0.45,-2.3,10.19
49.21748,4.054847,15.21,-0.19,-2.74,10.32
49.217522,4.055049,15.22,0.4,-1.54,9.76
49.217522,4.055049,15.22,1.26,-1.8,8.71
49.21756,4.055254,15.38,0.7,-1.8,8.73
49.21756,4.055254,15.38,-0.07,-1.72,10.09
49.217595,4.055458,15.36,0.52,-2.26,10.24
49.217595,4.055458,15.36,0.99,-1.05,8.81
49.217627,4.05567,15.52,1.19,-0.43,9.57
49.217627,4.05567,15.52,0.88,-1.23,9.09
49.217656,4.055882,15.22,0.62,-1.14,9.19
49.217656,4.055882,15.22,0.57,-1.27,10.49
49.217684,4.056084,15.18,1.06,-1.35,9.85
49.217707,4.056288,15.15,0.57,-1.46,10.01
49.217707,4.056288,15.15,0.66,-1.55,9.5
49.217727,4.056493,15.24,0.71,-1.6,9.28
49.217727,4.056493,15.24,0.34,-1.91,9.04
49.217745,4.056695,15.3,0.49,-1.75,10.63
49.217745,4.056695,15.3,0.78,-2.05,9.77
49.217758,4.056905,15.26,1.39,-1.58,9.13
49.217758,4.056905,15.26,0.23,-1.7,9.46
49.217767,4.057114,15.22,0.98,-3.13,10.37
49.217767,4.057114,15.22,0.5,-1.57,9.63
49.217773,4.057327,15.31,1.53,-1.25,9.4
49.217773,4.057327,15.31,1.04,-2.06,9.96
49.217776,4.057538,15.21,1.79,-1.82,8.26
49.217776,4.057538,15.21,0.67,-2.43,9.62
49.217777,4.05775,15.27,0.67,-0.95,9.95
49.217777,4.05775,15.27,0.67,-1.54,10.06
49.217774,4.057958,15.17,1.51,-2.12,9.44
49.217774,4.057958,15.17,1.32,-2.32,9.97
49.217768,4.058164,14.8,0.8,-2.34,9.14
49.217768,4.058164,14.8,1.14,-1.44,8.81
49.217761,4.058366,14.5,1.05,-2.38,9.95
49.217761,4.058366,14.5,1.56,-1.82,9.2
49.217755,4.058565,14.36,1.22,-1.83,9.05
49.217755,4.058565,14.36,0.47,-2.67,10.34
49.217748,4.058762,14.11,0.7,-2.46,9.74
49.217748,4.058762,14.11,0.83,-2.1,10.36
49.217743,4.058955,14.11,1.3,-1.7,8.42
49.217743,4.058955,14.11,0.89,-1.96,9.5
49.217738,4.05915,14.11,0.94,-1.58,9.6
49.217738,4.05915,14.11,0.77,-1.81,9.05
49.217734,4.059342,14.37,0.96,-1.82,9.39
49.217734,4.059342,14.37,0.48,-2.34,9.32
49.217732,4.05954,14.3,0.88,-2.03,8.83
49.217732,4.05954,14.3,1.72,-1.65,9.25
49.217727,4.059731,14.15,1.36,-1.8,8.94
49.217727,4.059731,14.15,1.74,-1.82,9.04
49.217724,4.059917,13.74,1.82,-1.7,9.31
49.217724,4.059917,13.74,1.32,-2.5,9.36
49.217727,4.060099,13.31,1.54,-1.57,9.74
49.217727,4.060099,13.31,0.85,-1.24,9.79
49.217738,4.060279,13.06,0.83,-1.36,9.01
49.217738,4.060279,13.06,0.52,-2.28,9.56
49.217756,4.060456,13.07,0.84,-1.82,10.43
49.217756,4.060456,13.07,0.97,-1.7,9.36
49.217781,4.060628,12.95,0.57,-2.76,10.25
49.21781,4.060801,13.15,1.34,-0.87,9.37
49.21781,4.060801,13.15,0.69,-1.92,10.72
49.217842,4.060978,13.35,0.3,-2.72,9.68
49.217842,4.060978,13.35,0.89,-2.36,10.16
49.217878,4.061156,13.49,0.38,-1.66,10.33
49.217878,4.061156,13.49,1.25,-1.76,10.62
49.217919,4.06133,13.3,1.53,-1.94,9.49
49.217919,4.06133,13.3,1.0,-2.83,10.73
49.217962,4.0615,13.15,1.94,-1.74,9.06
49.217962,4.0615,13.15,2.04,-1.91,9.92
49.218008,4.061657,12.24,1.39,-1.51,9.55
49.218008,4.061657,12.24,1.35,-1.62,9.83
49.218056,4.0618,11.22,1.91,-1.4,9.24
49.218056,4.0618,11.22,2.53,-1.53,9.89
49.218109,4.061924,10.15,2.04,-0.86,9.48
49.218109,4.061924,10.15,1.67,-1.26,9.59
49.218155,4.062033,8.98,1.91,-1.21,9.61
49.218155,4.062033,8.98,1.28,-1.64,10.22
49.218199,4.062131,8.22,1.47,-1.32,9.68
49.218199,4.062131,8.22,1.3,-1.2,9.43
49.218243,4.062221,8.0,1.24,-1.14,9.76
49.218243,4.062221,8.0,0.94,-1.25,9.94
49.218287,4.062308,7.76,1.63,-1.19,9.72
49.218287,4.062308,7.76,0.99,-1.42,9.97
49.218332,4.06239,7.38,1.64,-1.26,9.31
49.218332,4.06239,7.38,2.11,-1.08,9.62
49.218373,4.062466,6.71,1.85,-1.27,9.91
49.218373,4.062466,6.71,1.93,-0.87,9.39
49.218411,4.062532,5.7,1.22,-1.09,9.76
49.218411,4.062532,5.7,1.18,-1.31,9.54
49.218446,4.06259,5.18,1.11,-1.44,9.74
49.218446,4.06259,5.18,1.02,-1.23,9.84
49.218481,4.062643,5.01,0.5,-1.44,9.66
49.218481,4.062643,5.01,1.05,-1.33,9.61
49.218512,4.062694,5.05,1.23,-1.3,10.02
49.218512,4.062694,5.05,1.45,-1.36,10.09
49.218547,4.062743,4.94,1.42,-1.24,9.56
49.218547,4.062743,4.94,1.14,-1.18,10.02
49.218579,4.062788,4.48,0.92,-1.08,9.57
49.218579,4.062788,4.48,0.49,-1.33,10.0
49.218609,4.062828,4.4,0.95,-1.3,9.96
49.218638,4.062867,4.6,1.1,-1.22,9.8
49.218638,4.062867,4.6,1.2,-1.29,9.85
49.218668,4.062908,4.43,1.24,-1.47,9.78
49.218668,4.062908,4.43,0.75,-1.52,9.71
49.218698,4.062951,4.55,0.67,-1.41,9.32
49.218698,4.062951,4.55,0.81,-1.54,9.7
49.218727,4.062994,4.82,0.71,-1.75,9.91
49.218727,4.062994,4.82,0.67,-1.42,8.94
49.21876,4.063039,5.16,0.46,-1.55,10.1
49.21876,4.063039,5.16,0.29,-1.69,9.62
49.218798,4.063084,5.84,-0.34,-1.66,9.87
49.218798,4.063084,5.84,0.01,-1.87,10.18
49.218844,4.063135,6.77,-0.29,-1.7,9.52
49.218844,4.063135,6.77,0.84,-1.79,9.56
49.218897,4.063193,7.66,0.33,-1.83,9.89
49.218897,4.063193,7.66,0.78,-0.91,9.32
49.218957,4.063254,8.06,0.67,-0.74,9.16
49.218957,4.063254,8.06,-0.07,-1.52,9.63
49.219023,4.063316,8.81,1.19,-2.43,8.85
49.219023,4.063316,8.81,1.38,-1.62,9.64
49.219092,4.063378,8.85,0.1,-1.71,9.48
49.219092,4.063378,8.85,0.72,-1.55,8.87
49.219166,4.063434,9.69,0.03,-2.4,9.44
49.219166,4.063434,9.69,0.83,-2.15,10.22
49.219249,4.063488,10.06,1.02,-1.36,10.4
49.219249,4.063488,10.06,1.44,-1.4,9.3
49.219334,4.06354,9.95,1.82,-1.29,8.89
49.219334,4.06354,9.95,1.65,-1.3,9.28
49.219417,4.063589,9.64,2.85,-1.44,9.56
49.219417,4.063589,9.64,2.22,-1.18,9.79
49.219494,4.063634,8.72,2.47,-1.0,9.76
49.219494,4.063634,8.72,2.83,-0.87,9.62
49.219558,4.063669,6.43,2.91,-1.19,9.82
49.219558,4.063669,6.43,3.53,-1.1,9.42
49.219604,4.06369,4.79,3.44,-0.85,9.88
49.219604,4.06369,4.79,2.43,-1.19,9.7
49.219628,4.063699,2.03,2.35,-1.11,9.62
49.219628,4.063699,2.03,1.79,-1.23,9.49
49.21964,4.063701,0.93,1.51,-1.36,9.65
49.21964,4.063701,0.93,0.92,-1.41,9.76
49.21964,4.063701,0.0,1.24,-1.51,9.54
49.21964,4.063701,0.0,0.99,-1.41,9.76
49.21964,4.063701,0.0,0.93,-1.48,9.67
49.21964,4.063701,0.0,0.8,-1.46,9.77
49.21964,4.063701,0.0,0.67,-1.36,9.75
49.21964,4.063701,0.0,0.72,-1.39,9.61
49.21964,4.063701,0.0,0.53,-1.63,9.76
49.21964,4.063701,0.0,0.54,-1.44,9.96
49.21964,4.063701,0.0,0.0,-1.68,9.81
49.219661,4.063709,1.42,0.16,-1.54,9.67
49.219661,4.063709,1.42,0.33,-1.87,9.36
49.219677,4.063718,2.31,0.3,-1.58,9.6
49.219677,4.063718,2.31,0.34,-1.71,9.61
49.219697,4.06373,2.79,1.29,-1.84,9.71
49.219697,4.06373,2.79,0.94,-1.62,9.47
49.219722,4.063743,3.03,1.72,-1.7,9.73
49.219722,4.063743,3.03,1.57,-1.55,9.64
49.219743,4.063755,2.4,1.43,-1.51,9.67
49.219743,4.063755,2.4,1.71,-1.6,9.61
49.219761,4.063763,2.0,2.01,-1.58,9.29
49.219761,4.063763,2.0,1.77,-1.41,9.55
49.219773,4.063767,1.02,1.99,-1.63,9.56
49.219773,4.063767,1.02,1.34,-1.59,9.66
49.219773,4.063767,0.0,1.36,-1.57,9.77
49.219773,4.063767,0.0,1.12,-1.64,9.66
49.219773,4.063767,0.0,0.97,-1.7,9.73
49.219773,4.063767,0.0,0.42,-1.82,9.72
49.219773,4.063767,0.0,0.57,-1.93,9.64
49.219773,4.063767,0.0,0.65,-1.81,9.8
49.219773,4.063767,0.0,0.32,-1.85,9.61
49.219773,4.063767,0.0,0.18,-1.98,9.77
49.219786,4.063773,1.05,0.19,-1.72,9.78
49.219786,4.063773,1.05,0.88,-1.64,9.62
49.219803,4.06378,1.95,1.28,-1.55,9.65
49.219803,4.06378,1.95,1.45,-1.7,9.81
49.219821,4.063788,1.69,1.25,-1.78,9.78
49.219821,4.063788,1.69,1.13,-1.81,9.72
49.219838,4.063795,1.51,0.85,-1.66,10.0
49.219838,4.063795,1.51,0.45,-1.88,9.75
49.219849,4.063799,1.43,-0.04,-1.92,9.84
49.219849,4.063799,1.43,-0.0,-1.91,9.62
49.219862,4.063802,2.1,0.83,-1.94,9.69
49.219862,4.063802,2.1,1.24,-1.89,9.9
49.219888,4.06381,2.94,1.95,-1.64,9.77
49.219916,4.063822,2.58,1.86,-1.44,9.81
49.219916,4.063822,2.58,1.45,-1.63,9.55
49.219938,4.063832,1.9,0.72,-1.97,9.78
49.219938,4.063832,1.9,0.91,-1.53,9.54
49.219956,4.063839,1.99,1.84,-1.75,9.85
49.219956,4.063839,1.99,1.62,-1.63,9.58
49.219972,4.063845,1.48,2.02,-1.58,9.49
49.219972,4.063845,1.48,2.02,-1.52,9.61
49.219972,4.063845,0.0,1.51,-1.72,9.72
49.219972,4.063845,0.0,1.32,-1.76,9.46
49.219972,4.063845,0.0,1.3,-1.85,9.58
49.219972,4.063845,0.0,0.55,-1.76,9.73
49.219972,4.063845,0.0,0.55,-1.85,9.8
49.219972,4.063845,0.0,0.03,-2.03,9.67
49.219972,4.063845,0.0,-0.23,-1.91,9.66
49.219972,4.063845,0.0,-0.19,-1.97,9.84
49.219999,4.063856,2.18,-0.38,-2.19,9.81
49.219999,4.063856,2.18,0.75,-1.65,9.92
49.220022,4.063868,3.26,1.26,-1.67,9.06
49.220022,4.063868,3.26,1.17,-1.79,9.68
49.22005,4.063886,2.95,1.06,-1.63,9.94
49.22005,4.063886,2.95,1.33,-1.46,9.53
49.220076,4.063905,2.84,1.97,-1.58,9.5
49.220076,4.063905,2.84,1.67,-1.58,9.81
49.220095,4.063922,2.08,2.05,-1.7,9.5
49.220095,4.063922,2.08,1.01,-1.9,9.53
49.220107,4.063936,1.41,-0.23,-2.11,9.58
49.220107,4.063936,1.41,-1.21,-1.57,9.38
49.220122,4.063951,2.48,-2.2,-2.16,9.55
49.220122,4.063951,2.48,-1.7,-1.75,9.72
49.22015,4.063982,4.87,-1.47,-1.66,9.68
49.22015,4.063982,4.87,-1.79,0.45,9.54
49.220192,4.064044,7.3,-0.42,-1.89,10.56
49.220192,4.064044,7.3,1.12,-2.53,8.67
49.220235,4.064132,8.11,1.53,-3.68,9.48
49.220235,4.064132,8.11,1.24,-4.59,8.36
49.220281,4.064229,7.94,0.94,-4.25,8.97
49.220281,4.064229,7.94,2.23,-5.24,8.81
49.220331,4.064315,8.07,1.85,-5.95,9.31
49.220331,4.064315,8.07,2.27,-5.3,9.39
49.220392,4.064361,7.23,1.84,-5.03,8.6
49.220392,4.064361,7.23,1.36,-3.01,8.44
49.220461,4.06435,7.82,0.18,-0.66,9.34
49.220531,4.064292,8.04,-0.37,0.62,10.08
49.220531,4.064292,8.04,-0.77,-0.61,11.12
49.220603,4.064248,7.95,0.52,1.39,10.4
49.220603,4.064248,7.95,0.01,1.52,10.45
49.220682,4.064235,8.63,-0.39,1.58,10.32
49.220682,4.064235,8.63,0.42,0.46,9.78
49.220765,4.064279,9.5,-0.97,-0.76,10.87
49.220765,4.064279,9.5,-0.89,-0.69,10.75
49.220843,4.06438,10.97,-1.08,-1.84,10.18
49.220843,4.06438,10.97,-0.42,-2.2,9.73
49.22092,4.0645,12.37,-0.24,-1.83,8.54
49.22092,4.0645,12.37,-0.32,-1.94,9.44
49.221004,4.064638,13.25,-0.75,-1.87,10.05
49.221004,4.064638,13.25,-0.63,-2.19,10.08
49.221091,4.064783,14.0,0.03,-1.93,9.17
49.221091,4.064783,14.0,-0.26,-1.71,9.15
49.221184,4.064938,15.41,0.07,-2.07,9.55
49.221184,4.064938,15.41,-0.57,-2.08,9.81
49.221281,4.0651,15.98,-0.02,-2.56,9.75
49.221281,4.0651,15.98,-0.09,-2.29,10.59
49.221379,4.065271,16.59,-0.03,-1.29,8.84
49.221379,4.065271,16.59,-0.19,-1.92,8.71
49.221477,4.06545,17.1,-0.05,-2.44,10.04
49.221477,4.06545,17.1,0.14,-3.18,10.57
49.221577,4.065635,17.72,0.48,-2.15,7.24
49.221577,4.065635,17.72,1.58,-2.15,10.55
49.22168,4.065823,17.76,0.96,-1.99,8.78
49.22168,4.065823,17.76,0.62,-1.34,9.48
49.221788,4.066006,17.85,1.07,-2.06,9.82
49.221788,4.066006,17.85,0.49,-2.76,11.75
49.221899,4.066185,18.07,0.86,-2.6,8.6
49.221899,4.066185,18.07,1.03,-3.53,9.85
49.222019,4.066359,18.4,0.63,-2.81,8.96
49.222019,4.066359,18.4,0.53,-2.96,9.89
49.222148,4.066521,18.6,1.6,-2.57,9.17
49.222148,4.066521,18.6,0.97,-1.85,9.42
49.222287,4.066671,18.73,0.79,-3.1,9.6
49.222287,4.066671,18.73,0.46,-3.25,9.01
49.222437,4.066803,19.01,0.68,-2.01,9.71
49.222437,4.066803,19.01,1.2,-2.47,10.07
49.222593,4.066914,19.05,0.67,-2.97,9.3
49.222593,4.066914,19.05,1.59,-2.68,9.74
49.222753,4.06701,19.29,1.54,-3.89,9.86
49.222922,4.067085,19.1,1.7,-3.33,8.76
49.222922,4.067085,19.1,1.47,-2.5,9.86
49.223093,4.067144,19.12,1.77,-3.59,11.94
49.223093,4.067144,19.12,0.64,-3.04,9.45
49.223258,4.067181,19.29,0.64,-2.85,10.17
49.223258,4.067181,19.29,0.15,-2.82,9.34
49.223428,4.0672,19.5,1.04,-3.32,10.05
49.223428,4.0672,19.5,1.42,-3.11,8.77
49.223607,4.067204,19.87,1.21,-3.09,8.33
49.223607,4.067204,19.87,0.52,-2.76,9.04
49.223787,4.067185,20.22,1.17,-2.45,9.67
49.223787,4.067185,20.22,1.07,-2.56,9.52
49.223971,4.067133,20.47,1.13,-3.63,8.6
49.223971,4.067133,20.47,1.13,-2.57,8.5
49.224154,4.06706,20.76,0.95,-2.51,8.26
49.224154,4.06706,20.76,0.23,-2.83,10.68
49.224333,4.066965,21.06,1.95,-1.67,10.23
49.224333,4.066965,21.06,0.83,-1.72,9.02
49.224515,4.066865,20.69,1.36,-1.44,10.64
49.224515,4.066865,20.69,1.52,-1.19,9.98
49.224684,4.06676,19.97,1.54,-2.21,9.39
49.224684,4.06676,19.97,1.53,-1.91,10.05
49.224848,4.066654,19.15,1.54,-3.15,9.69
49.224848,4.066654,19.15,2.74,-3.35,8.15
49.225002,4.066545,18.64,2.35,-3.67,9.75
49.225002,4.066545,18.64,0.83,-3.78,8.62
49.225144,4.066417,18.13,1.4,-4.44,9.94
49.225144,4.066417,18.13,1.84,-4.57,9.39
49.225274,4.066262,17.93,2.04,-3.6,7.75
49.225274,4.066262,17.93,0.66,-3.66,8.34
49.225384,4.066082,18.52,1.17,-4.73,9.73
49.225384,4.066082,18.52,1.7,-3.88,9.49
49.225486,4.065878,18.77,2.33,-3.71,8.2
49.225486,4.065878,18.77,2.43,-3.23,8.4
49.225571,4.065668,18.19,2.09,-4.25,8.18
49.225571,4.065668,18.19,2.59,-4.11,9.8
49.225634,4.065432,18.02,1.63,-4.26,9.67
49.225634,4.065432,18.02,0.89,-3.9,9.96
49.225658,4.065171,17.7,1.81,-3.29,9.18
49.225658,4.065171,17.7,1.96,-2.99,8.6
49.225642,4.06491,17.42,1.58,-3.59,9.69
49.225605,4.064661,16.92,1.7,-4.41,9.69
49.225605,4.064661,16.92,1.43,-3.71,8.03
49.225553,4.064428,16.71,1.01,-3.11,9.36
49.225553,4.064428,16.71,1.13,-3.5,9.15
49.225478,4.064215,16.49,1.5,-3.52,8.52
49.225478,4.064215,16.49,1.22,-2.4,8.59
49.225398,4.064012,16.41,1.26,-2.67,10.48
49.225398,4.064012,16.41,1.91,-0.86,9.39
49.225318,4.063827,16.23,1.59,-0.13,8.21
49.225318,4.063827,16.23,1.1,-0.09,9.92
49.225246,4.063646,15.72,1.44,-0.5,9.84
49.225246,4.063646,15.72,0.71,0.36,8.92
49.225189,4.063455,15.53,0.67,0.2,10.43
49.225189,4.063455,15.53,0.14,0.39,10.41
49.225152,4.063248,15.75,-0.06,1.38,11.14
49.225152,4.063248,15.75,-0.13,1.85,10.22
49.225147,4.063031,16.04,-0.38,0.7,9.25
49.225147,4.063031,16.04,0.25,-0.73,11.31
49.225167,4.062807,16.54,0.4,-0.83,9.54
49.225167,4.062807,16.54,0.43,-0.83,9.51
49.2252,4.062573,17.41,-0.23,-1.46,10.21
49.2252,4.062573,17.41,-0.21,-2.08,9.34
49.225245,4.062333,18.4,0.21,-1.66,10.48
49.225245,4.062333,18.4,0.28,-1.52,9.63
49.225296,4.062084,19.43,0.08,-1.7,9.31
49.225296,4.062084,19.43,-0.51,-1.57,10.55
49.225353,4.061822,20.3,0.26,-1.87,8.54
49.225353,4.061822,20.3,-0.21,-1.4,8.64
49.225416,4.06155,21.1,0.28,-2.6,9.61
49.225416,4.06155,21.1,1.08,-1.43,9.38
49.225476,4.061269,21.91,0.95,-2.66,10.66
49.225476,4.061269,21.91,-0.06,-2.34,10.61
49.225544,4.060983,22.47,0.21,-2.04,9.82
49.225544,4.060983,22.47,0.22,-2.93,10.43
49.22562,4.060697,22.91,0.26,-3.24,9.04
49.22562,4.060697,22.91,0.14,-3.3,9.67
49.225702,4.060398,23.55,0.63,-2.28,9.52
49.225702,4.060398,23.55,0.72,-1.89,9.77
49.225773,4.060088,24.0,1.17,-1.7,10.4
49.225773,4.060088,24.0,-0.29,-1.03,10.14
49.225842,4.059775,24.11,1.58,-2.71,10.0
49.225908,4.059462,23.94,0.81,-2.0,10.75
49.225908,4.059462,23.94,-0.14,-1.58,9.41
49.225985,4.059163,23.99,1.02,-2.6,9.74
49.225985,4.059163,23.99,0.44,-1.81,9.52
49.226067,4.058857,24.1,0.39,-2.49,9.5
49.226067,4.058857,24.1,0.34,-2.64,10.24
49.22615,4.058551,24.09,1.34,-2.4,9.09
49.22615,4.058551,24.09,0.63,-2.11,9.67
49.226231,4.058239,24.24,1.0,-1.33,9.18
49.226231,4.058239,24.24,1.2,-1.91,9.57
49.226316,4.057927,24.4,0.74,-2.32,9.7
49.226316,4.057927,24.4,0.87,-0.99,9.75
49.226405,4.05762,24.41,2.35,-2.12,9.5
49.226405,4.05762,24.41,1.51,-2.08,9.96
49.226496,4.057317,24.1,1.28,-1.76,9.98
49.226496,4.057317,24.1,1.51,-1.35,8.25
49.226583,4.057017,23.69,0.93,-2.68,10.29
49.226583,4.057017,23.69,1.26,-2.39,9.8
49.226669,4.056727,23.29,1.28,-1.63,10.25
49.226669,4.056727,23.29,1.05,-1.82,7.99
49.226753,4.05644,23.17,0.97,-1.67,9.02
49.226753,4.05644,23.17,1.19,-1.48,10.21
49.226838,4.05615,23.46,1.66,-1.39,8.05
49.226838,4.05615,23.46,0.18,-2.47,8.75
49.226921,4.055852,23.77,-0.04,-2.33,9.59
49.226921,4.055852,23.77,-0.11,-1.83,9.1
49.227002,4.055544,24.15,0.34,-2.0,9.37
49.227002,4.055544,24.15,0.09,-2.72,9.69
49.227085,4.055228,24.68,0.62,-2.95,9.31
49.227085,4.055228,24.68,0.72,-3.06,9.32
49.227169,4.054914,24.96,0.42,-2.79,9.66
49.227169,4.054914,24.96,1.21,-1.26,8.81
49.22725,4.054593,25.24,0.05,-1.05,10.5
49.22725,4.054593,25.24,0.78,-2.29,8.9
49.227335,4.05427,25.54,0.3,-1.91,10.47
49.227335,4.05427,25.54,1.06,-1.33,10.45
49.227421,4.053946,25.42,1.11,-1.57,9.6
49.227421,4.053946,25.42,-0.2,-2.15,9.32
49.227511,4.053618,25.57,2.33,-0.82,9.46
49.227597,4.053289,25.57,1.37,-1.09,8.58
49.227597,4.053289,25.57,0.95,-2.28,10.97
49.227692,4.052968,25.7,0.92,-0.77,9.66
49.227692,4.052968,25.7,0.58,-1.41,9.86
49.227781,4.052639,25.73,0.94,-3.18,9.58
49.227781,4.052639,25.73,1.26,-1.49,10.11
49.22787,4.052309,25.75,0.39,-3.01,10.01
49.22787,4.052309,25.75,1.45,-1.07,9.02
49.227964,4.051989,25.77,1.39,-1.75,10.22
49.227964,4.051989,25.77,0.98,-2.85,10.25
49.228058,4.051671,25.78,0.96,-1.57,9.91
49.228058,4.051671,25.78,0.34,-2.31,9.95
49.22815,4.051345,25.8,1.07,-1.32,9.59
49.22815,4.051345,25.8,0.97,-1.57,10.11
49.228242,4.051018,25.9,1.15,-1.49,9.2
49.228242,4.051018,25.9,0.45,-2.18,10.16
49.228341,4.050697,26.11,0.27,-1.47,10.06
49.228341,4.050697,26.11,0.82,-1.76,10.89
49.22844,4.050374,26.24,0.5,-2.39,9.76
49.22844,4.050374,26.24,1.16,-1.38,9.87
49.228536,4.050041,26.39,1.2,-2.38,9.46
49.228536,4.050041,26.39,1.23,-1.03,9.71
49.228632,4.049707,26.49,0.49,-1.52,8.34
49.228632,4.049707,26.49,0.32,-2.39,11.34
49.22873,4.049376,26.61,0.86,-2.03,9.3
49.22873,4.049376,26.61,1.19,-1.24,8.64
49.22883,4.049045,26.72,1.46,-1.81,9.82
49.22883,4.049045,26.72,0.22,-1.07,9.06
49.228928,4.048718,26.63,1.61,-2.26,9.0
49.228928,4.048718,26.63,1.57,-1.32,9.48
49.229028,4.048391,26.59,1.13,-1.75,8.82
49.229028,4.048391,26.59,1.3,-0.63,10.13
49.229139,4.048066,26.45,1.02,-2.67,8.71
49.229139,4.048066,26.45,0.76,-1.24,10.62
49.229255,4.047743,26.3,0.46,-2.17,9.97
49.229255,4.047743,26.3,0.97,-0.84,10.38
49.229373,4.047429,26.29,0.91,-1.1,9.52
49.229373,4.047429,26.29,2.04,-0.55,8.08
49.229497,4.047122,26.24,1.04,-1.62,10.67
49.229497,4.047122,26.24,0.31,-1.15,8.99
49.229624,4.046819,26.04,0.36,-1.44,10.21
49.229756,4.046526,26.01,0.57,-1.04,8.92
49.229756,4.046526,26.01,0.39,-1.16,10.56
49.229891,4.046234,26.08,0.45,-0.46,8.41
49.229891,4.046234,26.08,0.02,-2.54,9.08
49.230032,4.045948,26.13,1.44,-1.54,9.15
49.230032,4.045948,26.13,0.66,-1.59,10.13
49.230179,4.045667,26.15,1.34,-0.87,9.14
49.230179,4.045667,26.15,-0.37,-1.64,9.68
49.230333,4.045389,26.12,0.86,-1.44,9.18
49.230333,4.045389,26.12,1.11,-2.19,10.76
49.23049,4.045115,26.23,0.97,-0.96,8.83
49.23049,4.045115,26.23,0.84,-2.05,10.41
49.230648,4.044843,26.02,0.54,-0.79,9.07
49.230648,4.044843,26.02,1.06,-1.47,10.58
49.230807,4.044578,26.14,1.43,-0.91,8.36
49.230807,4.044578,26.14,0.7,-1.08,10.56
49.230975,4.044322,26.08,0.63,-1.32,10.14
49.230975,4.044322,26.08,1.39,-1.67,9.82
49.231146,4.044074,26.02,0.63,-1.31,9.17
49.231146,4.044074,26.02,0.6,-1.37,9.26
49.231314,4.043826,25.85,0.94,-0.96,9.36
49.231314,4.043826,25.85,0.32,-2.3,8.74
49.231484,4.043584,25.89,1.13,-0.38,9.98
49.231484,4.043584,25.89,0.49,-2.58,8.7
49.231656,4.043344,25.92,0.8,-1.89,10.0
49.231656,4.043344,25.92,0.61,-1.95,10.8
49.231829,4.04311,25.82,0.76,-2.63,8.72
49.231829,4.04311,25.82,0.45,-0.69,10.19
49.232008,4.042886,25.76,0.4,-2.86,8.54
49.232008,4.042886,25.76,1.35,-1.47,9.62
49.232183,4.04266,25.78,0.56,-1.37,10.02
49.232183,4.04266,25.78,0.89,-1.72,9.09
49.232364,4.042439,25.88,0.9,-1.31,10.5
49.232364,4.042439,25.88,1.08,-1.64,9.96
49.232542,4.042221,26.1,0.73,-0.98,9.6
49.232542,4.042221,26.1,1.16,-2.85,10.05
49.232734,4.042008,26.18,0.89,-1.69,9.93
49.232734,4.042008,26.18,1.17,-2.38,9.36
49.232932,4.041798,26.02,1.66,-0.94,9.01
49.232932,4.041798,26.02,1.76,-3.26,9.84
49.233129,4.041591,25.87,1.41,-2.33,9.51
49.233129,4.041591,25.87,1.24,-2.69,8.73
49.233317,4.041385,25.82,1.58,-2.13,9.51
49.233505,4.041176,25.8,0.3,-1.71,9.3
49.233505,4.041176,25.8,1.0,-3.02,8.87
49.233693,4.040961,25.9,0.48,-1.64,10.26
49.233693,4.040961,25.9,0.84,-2.34,9.33
49.233878,4.04075,25.95,1.24,-2.1,9.7
49.233878,4.04075,25.95,0.52,-2.13,8.72
49.234068,4.040532,26.03,1.08,-1.97,7.76
49.234068,4.040532,26.03,1.15,-2.54,9.37
49.234254,4.040312,26.51,1.63,-2.27,10.91
49.234254,4.040312,26.51,1.12,-2.39,10.38
49.234432,4.040101,25.84,1.7,-2.83,11.41
49.234432,4.040101,25.84,1.64,-1.45,9.25
49.234617,4.03989,25.75,0.69,-2.47,9.29
49.234617,4.03989,25.75,1.7,-1.66,10.37
49.234804,4.03967,25.66,0.92,-1.19,9.53
49.234804,4.03967,25.66,1.03,-1.87,10.17
49.234986,4.039447,25.63,1.87,-1.63,9.99
49.234986,4.039447,25.63,1.0,-2.4,9.63
49.23517,4.039231,25.66,1.15,-2.22,9.71
49.23517,4.039231,25.66,0.57,-1.33,8.8
49.235355,4.039014,25.66,0.93,-2.61,10.1
49.235355,4.039014,25.66,0.97,-1.53,9.34
49.235538,4.038798,25.65,1.04,-1.41,8.94
49.235538,4.038798,25.65,0.22,-1.78,9.4
49.235721,4.038584,25.69,0.64,-2.14,10.36
49.235721,4.038584,25.69,1.03,-2.5,8.96
49.235905,4.038369,25.91,0.79,-1.76,11.17
49.235905,4.038369,25.91,0.63,-2.01,8.43
49.236088,4.038153,25.95,0.95,-2.52,10.01
49.236088,4.038153,25.95,1.33,-1.53,10.44
49.236268,4.037936,25.86,1.23,-2.72,9.6
49.236268,4.037936,25.86,0.81,-1.61,9.77
49.236451,4.03772,25.86,0.78,-2.37,9.37
49.236451,4.03772,25.86,0.64,-1.73,9.17
49.23664,4.037509,25.85,1.15,-2.12,9.28
49.23664,4.037509,25.85,0.44,-1.53,10.17
49.236826,4.037295,25.85,1.43,-0.82,10.0
49.236826,4.037295,25.85,1.2,-1.79,9.69
49.237017,4.037081,25.8,1.07,-1.68,9.96
49.237207,4.036866,25.89,1.34,-2.49,8.46
49.237207,4.036866,25.89,0.9,-2.15,10.5
49.237391,4.036649,25.97,1.82,-1.64,8.21
49.237391,4.036649,25.97,0.12,-2.68,9.85
49.23757,4.036428,25.98,0.69,-1.47,9.26
49.23757,4.036428,25.98,0.84,-2.38,9.59
49.237755,4.03621,25.96,0.88,-1.98,8.49
49.237755,4.03621,25.96,1.06,-2.49,10.45
49.23794,4.035991,25.88,1.08,-2.51,10.01
49.23794,4.035991,25.88,0.46,-2.19,9.74
49.238124,4.035777,25.73,0.86,-2.25,11.68
49.238124,4.035777,25.73,0.71,-1.29,8.37
49.238302,4.035558,25.62,0.46,-1.88,10.21
49.238302,4.035558,25.62,1.85,-1.83,9.56
49.238485,4.035348,25.51,1.4,-0.99,9.17
49.238485,4.035348,25.51,0.57,-2.46,9.23
49.238669,4.035151,25.39,0.53,-1.88,10.11
49.238669,4.035151,25.39,1.8,-1.45,10.18
49.238854,4.034959,25.32,0.99,-1.66,9.02
49.238854,4.034959,25.32,0.22,-2.61,9.94
49.239042,4.034769,25.23,0.61,-2.33,10.42
49.239042,4.034769,25.23,1.06,-1.02,10.26
49.239231,4.034581,25.24,1.29,-2.05,9.03
49.239231,4.034581,25.24,0.42,-2.78,9.76
49.239419,4.034394,25.16,1.06,-1.54,8.5
49.239419,4.034394,25.16,1.04,-1.64,10.56
49.239609,4.034211,25.08,0.78,-1.2,8.82
49.239609,4.034211,25.08,0.64,-2.52,8.71
49.2398,4.034029,25.1,0.19,-2.24,10.12
49.2398,4.034029,25.1,1.13,-2.19,10.6
49.239992,4.03385,25.12,1.24,-2.04,9.68
49.239992,4.03385,25.12,1.4,-2.41,10.45
49.240186,4.033675,25.09,1.0,-2.64,10.38
49.240186,4.033675,25.09,0.57,-1.94,9.54
49.240382,4.0335,25.14,0.23,-1.93,9.84
49.240382,4.0335,25.14,0.96,-2.4,10.53
49.240578,4.033324,25.1,1.25,-1.7,9.01
49.240578,4.033324,25.1,1.51,-1.55,10.37
49.240769,4.033148,25.12,1.48,-2.23,8.75
49.240961,4.032971,25.14,0.8,-2.04,9.88
49.240961,4.032971,25.14,0.94,-2.22,8.92
49.241156,4.032795,25.16,0.53,-2.43,9.41
49.241156,4.032795,25.16,0.38,-2.57,10.34
49.241349,4.032616,25.32,0.86,-2.61,10.05
49.241349,4.032616,25.32,0.88,-1.55,9.33
49.241545,4.03244,25.34,0.75,-2.17,9.72
49.241545,4.03244,25.34,1.92,-3.02,9.01
49.241742,4.032263,25.39,0.15,-1.68,9.53
49.241742,4.032263,25.39,0.89,-2.63,9.79
49.241939,4.032084,25.49,0.68,-2.6,10.16
49.241939,4.032084,25.49,0.57,-2.66,10.46
49.242134,4.031901,25.55,0.55,-1.64,10.11
49.242134,4.031901,25.55,1.69,-1.84,9.6
49.242333,4.031722,25.66,0.99,-1.61,8.99
49.242333,4.031722,25.66,0.6,-2.65,9.63
49.24253,4.031538,25.57,1.58,-1.19,9.68
49.24253,4.031538,25.57,0.56,-1.67,10.39
49.242728,4.031359,25.36,0.63,-1.77,9.72
49.242728,4.031359,25.36,1.1,-0.84,8.76
49.242924,4.031182,25.15,1.36,-0.77,9.25
49.242924,4.031182,25.15,1.63,-2.15,9.84
49.243121,4.031012,25.07,1.54,-1.81,9.3
49.243121,4.031012,25.07,1.84,-1.81,10.22
49.243318,4.030846,24.81,0.93,-2.26,8.97
