Location-lat,Location-long,Speed,Accelerometer-X,Accelerometer-Y,Accelerometer-Z
49.729442,3.40823,32.61,-1.86,-0.94,8.92
49.729712,3.408043,32.93,-1.54,-0.03,9.63
49.729712,3.408043,32.93,-2.04,0.15,10.67
49.729982,3.407852,32.97,-1.29,-0.55,9.6
49.729982,3.407852,32.97,-1.36,0.21,10.3
49.730254,3.407658,33.12,-2.51,-0.27,12.89
49.730254,3.407658,33.12,-0.57,0.91,11.2
49.730525,3.407467,33.2,-1.34,-0.83,9.56
49.730525,3.407467,33.2,-1.13,0.3,10.01
49.730798,3.407275,33.27,-2.15,-0.82,10.32
49.730798,3.407275,33.27,-1.8,0.21,10.85
49.731069,3.407083,33.16,-1.13,-0.6,9.28
49.731069,3.407083,33.16,-1.91,-0.28,10.57
49.731335,3.406892,33.13,-0.47,0.71,9.17
49.731335,3.406892,33.13,-0.47,0.54,10.37
49.731609,3.406699,33.11,-2.61,-0.88,9.75
49.731609,3.406699,33.11,-0.51,-0.4,9.46
49.731881,3.406509,32.83,-1.06,0.23,10.35
49.731881,3.406509,32.83,-2.32,-0.57,10.8
49.732145,3.406326,32.62,-1.86,-0.39,8.54
49.732145,3.406326,32.62,-0.51,0.59,11.0
49.732418,3.406141,32.48,-1.28,0.52,10.04
49.732418,3.406141,32.48,-1.96,0.63,10.45
49.732686,3.405957,32.21,-2.09,-1.6,11.08
49.732949,3.405777,31.86,-1.09,1.63,10.91
49.732949,3.405777,31.86,-1.89,-0.26,9.42
49.733202,3.405594,31.55,-2.6,-0.72,9.28
49.733202,3.405594,31.55,-1.14,0.21,11.06
49.733452,3.405419,31.3,-1.29,-0.39,10.5
49.733452,3.405419,31.3,-2.55,0.08,9.09
49.733707,3.405239,31.04,-2.38,-1.4,10.33
49.733707,3.405239,31.04,-1.84,0.59,10.88
49.733958,3.405063,30.83,-1.25,0.24,9.99
49.733958,3.405063,30.83,-1.38,-0.02,9.21
49.734203,3.404886,30.6,-1.21,-0.45,9.72
49.734203,3.404886,30.6,-2.07,-0.18,8.3
49.734453,3.40471,30.57,-1.3,-0.68,10.31
49.734453,3.40471,30.57,-0.93,0.29,10.61
49.734704,3.404532,30.52,-1.88,-0.08,10.21
49.734704,3.404532,30.52,-2.2,-0.65,8.92
49.734955,3.404351,30.49,-1.6,0.22,9.23
49.734955,3.404351,30.49,-2.49,-1.05,8.82
49.735206,3.404173,30.44,-1.64,0.47,9.12
49.735206,3.404173,30.44,-0.26,0.22,8.83
49.735452,3.403996,30.5,-3.6,-0.73,9.43
49.735452,3.403996,30.5,-1.18,-0.74,7.13
49.735696,3.40382,30.49,-3.13,-0.45,10.54
49.735696,3.40382,30.49,-1.35,1.12,8.41
49.735941,3.403645,30.51,-2.48,-0.26,10.4
49.735941,3.403645,30.51,-2.25,-0.73,7.8
49.736188,3.403473,30.48,-2.53,0.05,9.87
49.736188,3.403473,30.48,-1.85,-1.42,9.35
49.736435,3.403303,30.49,-1.06,1.22,11.08
49.736435,3.403303,30.49,-1.81,0.4,9.79
49.736683,3.40313,30.54,-2.12,-0.69,9.92
49.736683,3.40313,30.54,-1.92,-0.27,8.16
49.736932,3.402956,30.5,-2.24,-0.95,10.52
49.736932,3.402956,30.5,-1.84,0.49,10.5
49.737182,3.402779,30.51,-2.04,-0.02,10.39
49.737182,3.402779,30.51,-1.91,-0.01,10.01
49.737432,3.402598,30.5,-1.51,0.13,8.2
49.737432,3.402598,30.5,-1.67,-1.53,9.77
49.737677,3.402424,30.52,-1.51,0.42,11.19
49.737677,3.402424,30.52,-1.87,0.7,9.41
49.737929,3.402248,30.6,-2.76,-1.11,8.91
49.737929,3.402248,30.6,-1.37,0.47,9.89
49.738184,3.402068,30.64,-2.3,0.0,9.55
49.738435,3.401889,30.8,-1.62,-0.85,10.78
49.738435,3.401889,30.8,-1.31,0.03,9.23
49.73869,3.40171,30.97,-1.66,-1.05,8.44
49.73869,3.40171,30.97,-1.97,-1.02,10.8
49.73894,3.401526,31.1,-2.3,-0.82,9.55
49.73894,3.401526,31.1,-2.09,-0.75,9.01
49.739187,3.401338,31.18,-1.46,-0.14,9.17
49.739187,3.401338,31.18,-1.9,-0.86,10.48
49.739436,3.401146,30.99,-1.31,-0.61,11.2
49.739436,3.401146,30.99,-1.61,0.16,11.87
49.739684,3.400958,30.64,-2.03,-0.25,8.16
49.739684,3.400958,30.64,-2.09,-1.62,10.17
49.739933,3.400771,30.56,-1.33,-0.16,9.14
49.739933,3.400771,30.56,-1.74,-1.58,9.87
49.740179,3.400579,30.61,-1.71,-0.64,8.93
49.740179,3.400579,30.61,-2.23,0.02,8.81
49.740425,3.400375,30.75,-1.49,-0.96,10.01
49.740425,3.400375,30.75,-1.92,-1.28,9.96
49.74067,3.400171,30.89,-1.43,-0.75,9.43
49.74067,3.400171,30.89,-1.93,-1.58,8.24
49.740914,3.399958,30.57,-2.44,-1.08,9.69
49.740914,3.399958,30.57,-2.77,-0.21,8.63
49.741159,3.399741,30.44,-2.1,-0.13,10.51
49.741159,3.399741,30.44,-1.15,-0.12,9.5
49.741402,3.39953,30.59,-2.28,-1.22,11.12
49.741402,3.39953,30.59,-1.96,-0.69,9.73
49.741642,3.399315,30.67,-1.77,0.59,9.5
49.741642,3.399315,30.67,-2.25,-1.71,9.86
49.741881,3.399096,30.95,-2.23,-0.78,10.12
49.741881,3.399096,30.95,-1.3,-0.49,10.6
49.74212,3.398867,31.42,-1.66,-0.34,9.3
49.74212,3.398867,31.42,-1.66,-0.45,9.75
49.742355,3.398623,31.9,-1.65,-0.2,10.3
49.742355,3.398623,31.9,-1.79,0.36,9.72
49.742591,3.398369,32.39,-2.58,-0.07,8.92
49.742591,3.398369,32.39,-1.32,0.13,9.27
49.74283,3.398113,32.89,0.35,0.4,8.85
49.74283,3.398113,32.89,-0.57,-1.24,8.84
49.743069,3.397853,32.68,-0.97,-1.0,10.39
49.743069,3.397853,32.68,-0.88,0.23,9.96
49.743305,3.397595,32.24,-2.18,-0.34,8.97
49.743305,3.397595,32.24,-0.85,-1.21,9.51
49.743539,3.397338,31.91,-0.65,-0.18,9.66
49.743767,3.397083,31.54,-2.35,-0.94,10.11
49.743767,3.397083,31.54,-1.55,-0.82,9.93
49.743989,3.396829,31.36,-1.65,-1.58,10.69
49.743989,3.396829,31.36,-1.58,-1.52,9.94
49.744211,3.396571,31.38,-0.29,-0.56,10.46
49.744211,3.396571,31.38,-0.95,-0.34,9.03
49.744441,3.396315,31.36,-2.12,-0.51,8.94
49.744441,3.396315,31.36,-1.83,-1.01,9.36
49.744668,3.39605,31.65,-1.05,-0.32,8.68
49.744668,3.39605,31.65,-1.66,-0.58,8.61
49.744892,3.395775,32.05,-1.96,-0.67,9.08
49.744892,3.395775,32.05,-0.99,-0.46,10.09
49.745116,3.395493,32.43,-2.48,-0.18,10.6
49.745116,3.395493,32.43,-2.35,-0.98,9.89
49.745341,3.395204,32.61,-1.85,-1.2,9.08
49.745341,3.395204,32.61,-0.97,-0.17,9.33
49.745562,3.39491,32.74,-0.44,0.63,10.63
49.745562,3.39491,32.74,-2.34,-1.71,10.67
49.745791,3.39461,32.9,-2.53,-1.51,9.75
49.745791,3.39461,32.9,-1.21,-0.79,11.8
49.746017,3.394311,32.96,-2.14,-1.92,9.67
49.746017,3.394311,32.96,-0.74,-0.98,9.9
49.746237,3.394005,32.81,-0.3,0.22,11.77
49.746237,3.394005,32.81,-1.7,-1.03,10.98
49.746454,3.393693,32.79,-1.48,-0.13,9.75
49.746454,3.393693,32.79,-0.69,-0.45,9.94
49.746667,3.393382,32.66,-1.08,1.02,11.3
49.746667,3.393382,32.66,-1.36,-0.1,10.36
49.746882,3.393073,32.62,-2.17,0.71,10.52
49.746882,3.393073,32.62,-2.79,-0.49,11.09
49.747097,3.392767,32.37,-0.53,-0.89,9.83
49.747097,3.392767,32.37,-0.57,-0.54,10.11
49.747308,3.392459,32.11,-0.86,-0.97,11.26
49.747308,3.392459,32.11,-1.24,0.53,11.23
49.747513,3.392147,31.74,-1.22,-0.1,11.02
49.747513,3.392147,31.74,-1.93,-1.06,9.87
49.747718,3.391834,31.52,-1.69,-0.17,9.71
49.747718,3.391834,31.52,-1.06,-0.85,9.07
49.747917,3.391518,31.37,-1.89,-1.3,9.89
49.747917,3.391518,31.37,-2.19,-1.41,9.28
49.748114,3.391207,31.23,-1.29,0.16,10.84
49.748305,3.390891,31.12,-1.93,-0.14,8.57
49.748305,3.390891,31.12,-1.19,-0.31,9.83
49.748495,3.390578,31.01,-1.54,-1.5,9.39
49.748495,3.390578,31.01,-1.1,0.08,10.34
49.74868,3.390259,30.97,-1.31,-0.4,10.4
49.74868,3.390259,30.97,-1.79,-0.12,8.93
49.748863,3.389937,30.96,-2.38,-1.34,9.46
49.748863,3.389937,30.96,-1.22,0.05,10.24
49.749045,3.389613,30.98,-1.67,-1.13,10.04
49.749045,3.389613,30.98,-1.14,-0.15,9.53
49.749225,3.389285,31.14,-1.9,-1.06,9.04
49.749225,3.389285,31.14,-1.53,-1.08,10.0
49.749403,3.388951,31.33,-1.78,-0.32,11.17
49.749403,3.388951,31.33,-1.79,-0.45,11.0
49.749579,3.388611,31.52,-1.49,-0.49,10.3
49.749579,3.388611,31.52,-1.49,-0.44,9.68
49.749757,3.388268,31.73,-1.16,0.72,9.72
49.749757,3.388268,31.73,-0.66,0.55,9.16
49.749934,3.38792,31.93,-1.71,-0.07,9.88
49.749934,3.38792,31.93,-1.38,-0.46,9.34
49.75011,3.387567,32.14,-1.3,-0.54,10.18
49.75011,3.387567,32.14,-1.63,0.09,9.88
49.750286,3.387209,32.29,-1.17,-0.47,10.42
49.750286,3.387209,32.29,-0.73,-0.35,9.61
49.750455,3.386845,32.06,-0.97,-0.2,10.92
49.750455,3.386845,32.06,-2.08,-2.13,10.94
49.750622,3.386485,31.89,-1.98,-1.12,10.93
49.750622,3.386485,31.89,-2.05,-1.37,9.93
49.750788,3.386122,31.94,-1.66,-0.64,10.37
49.750788,3.386122,31.94,-1.45,-0.31,9.79
49.750953,3.385757,32.1,-1.71,0.23,10.92
49.750953,3.385757,32.1,-0.86,-0.57,9.21
49.751119,3.385392,32.12,-1.53,-0.74,9.33
49.751119,3.385392,32.12,-1.43,-0.59,8.73
49.751285,3.385024,32.33,-1.55,-0.11,11.22
49.751285,3.385024,32.33,-2.0,-0.71,10.59
49.751452,3.384651,33.02,-3.23,-1.77,10.2
49.751452,3.384651,33.02,-0.56,0.23,9.57
49.751622,3.384276,33.06,-1.14,-0.54,9.73
49.751622,3.384276,33.06,-0.22,0.45,9.86
49.751789,3.383897,33.12,-0.72,0.16,10.82
49.751789,3.383897,33.12,-0.75,-0.22,10.07
49.751955,3.383515,33.14,-1.49,-0.97,10.49
49.751955,3.383515,33.14,-1.16,0.44,10.32
49.752123,3.383136,32.89,-0.08,-0.08,11.35
49.752287,3.382759,32.64,-1.23,0.94,6.44
49.752287,3.382759,32.64,-1.47,-0.19,8.6
49.752456,3.382392,32.64,-0.73,0.8,11.32
49.752456,3.382392,32.64,-2.15,-0.31,10.09
49.75262,3.382018,32.6,-1.58,-0.31,11.02
49.75262,3.382018,32.6,-1.77,0.04,9.61
49.752783,3.381642,32.58,0.16,1.1,11.07
49.752783,3.381642,32.58,-0.63,0.6,11.37
49.752949,3.381268,32.6,-2.14,-0.76,11.47
49.752949,3.381268,32.6,-1.52,0.26,9.47
49.753115,3.380893,32.7,-0.77,0.44,8.59
49.753115,3.380893,32.7,-1.28,0.31,9.59
49.753281,3.380519,32.9,-0.43,0.08,9.51
49.753281,3.380519,32.9,-1.47,1.23,11.05
49.753447,3.38014,33.18,-2.61,-1.11,9.58
49.753447,3.38014,33.18,-1.15,-0.39,8.83
49.753616,3.379758,33.38,-1.96,-0.5,10.67
49.753616,3.379758,33.38,-2.26,-0.74,9.5
49.753785,3.379375,33.48,-0.82,0.16,10.07
49.753785,3.379375,33.48,0.5,-0.79,8.79
49.753954,3.378994,33.4,-1.23,-0.37,9.71
49.753954,3.378994,33.4,-1.45,-0.44,9.47
49.754123,3.378615,33.19,-1.1,0.34,10.98
49.754123,3.378615,33.19,-1.52,-0.74,9.18
49.754292,3.378236,33.13,-1.76,0.04,8.85
49.754292,3.378236,33.13,-0.84,0.42,9.46
49.754458,3.377854,33.14,-0.08,0.01,6.51
49.754458,3.377854,33.14,-1.08,0.68,12.17
49.754624,3.377472,32.85,-0.22,0.4,8.93
49.754624,3.377472,32.85,-1.14,-0.32,9.73
49.754788,3.377097,32.5,-2.15,-1.36,10.88
49.754788,3.377097,32.5,-2.12,0.3,9.72
49.754952,3.376722,32.59,-1.63,0.03,10.91
49.754952,3.376722,32.59,-1.88,-0.14,11.16
49.755118,3.376346,32.93,-1.52,-0.26,10.81
49.755118,3.376346,32.93,-2.46,-0.39,9.97
49.755284,3.375966,33.26,-1.88,0.0,10.52
49.755284,3.375966,33.26,-0.34,0.23,10.54
49.755456,3.375585,33.55,-2.0,0.17,10.15
49.755627,3.375205,33.55,-2.81,-1.22,10.36
49.755627,3.375205,33.55,-1.99,0.04,10.38
49.755796,3.374819,33.63,-1.1,0.03,9.86
49.755796,3.374819,33.63,-1.76,0.28,9.37
49.75597,3.37444,33.62,-2.72,-0.54,9.86
49.75597,3.37444,33.62,-0.48,0.35,10.44
49.756148,3.374061,33.78,-2.24,-0.5,10.53
49.756148,3.374061,33.78,-0.18,1.4,10.14
49.756325,3.373682,33.8,-0.83,0.68,9.97
49.756325,3.373682,33.8,-1.94,0.82,10.37
49.756505,3.373305,33.82,-0.8,-0.8,8.73
49.756505,3.373305,33.82,-2.17,-0.78,9.66
49.756687,3.372928,33.89,-0.39,0.55,10.12
49.756687,3.372928,33.89,-1.9,-0.46,9.11
49.75687,3.372551,34.04,-2.15,-0.95,9.66
49.75687,3.372551,34.04,-2.31,-0.34,9.9
49.757053,3.372171,34.09,-1.73,0.19,9.29
49.757053,3.372171,34.09,-2.65,-0.53,10.3
49.757238,3.371795,34.19,-2.37,-0.67,10.69
49.757238,3.371795,34.19,-1.39,-0.84,9.77
49.757424,3.371419,34.2,-1.1,0.46,9.74
49.757424,3.371419,34.2,-1.41,-0.38,9.49
49.757612,3.371048,33.48,-1.38,0.08,8.45
49.757612,3.371048,33.48,-0.59,1.07,9.97
49.757799,3.370686,33.15,-2.64,-0.27,10.07
49.757799,3.370686,33.15,-1.25,0.84,10.28
49.757981,3.370327,32.88,-0.84,0.7,11.31
49.757981,3.370327,32.88,-1.38,-0.04,10.97
49.758167,3.369971,32.81,-1.2,-0.1,9.52
49.758167,3.369971,32.81,0.3,0.86,9.74
49.758355,3.36962,32.75,-2.91,-0.42,9.23
49.758355,3.36962,32.75,-1.05,0.61,9.75
49.758546,3.369271,32.72,-1.94,0.68,9.23
49.758546,3.369271,32.72,-0.42,1.12,10.37
49.758733,3.368921,32.65,-2.26,-0.08,10.16
49.758733,3.368921,32.65,-1.91,-0.77,7.99
49.758921,3.368574,32.5,-1.36,0.94,10.95
49.758921,3.368574,32.5,-1.11,-0.2,10.44
49.75911,3.368231,32.4,0.13,-0.01,10.0
49.75911,3.368231,32.4,-0.73,1.24,11.28
49.7593,3.367891,32.35,-2.28,-0.61,10.12
49.7593,3.367891,32.35,-2.19,-0.9,9.52
49.759492,3.367553,32.37,-2.02,0.17,10.53
49.759686,3.367216,32.49,-0.82,-0.42,9.57
49.759686,3.367216,32.49,-0.84,0.37,10.12
49.75988,3.366877,32.58,-2.61,0.46,10.36
49.75988,3.366877,32.58,-2.25,0.25,9.56
49.760076,3.366539,32.69,-2.04,0.24,10.86
49.760076,3.366539,32.69,-1.13,0.95,10.28
49.760274,3.366201,32.84,-2.19,0.32,9.96
49.760274,3.366201,32.84,-2.67,-0.63,10.16
49.760474,3.365863,33.01,-0.86,0.75,10.19
49.760474,3.365863,33.01,-0.69,0.48,9.78
49.760673,3.365523,33.18,-1.47,0.37,9.73
49.760673,3.365523,33.18,-1.96,1.07,9.68
49.760878,3.365186,33.32,-2.38,-0.94,8.67
49.760878,3.365186,33.32,-0.2,1.05,10.85
49.761086,3.364853,33.38,-2.24,-0.05,10.72
49.761086,3.364853,33.38,-2.38,-0.77,9.62
49.761293,3.364519,33.39,-1.85,-1.23,9.5
49.761293,3.364519,33.39,-1.09,0.65,10.64
49.761503,3.364188,33.41,-2.16,-0.75,9.08
49.761503,3.364188,33.41,-1.7,-0.41,8.96
49.761711,3.363855,33.44,-2.63,-0.91,11.03
49.761711,3.363855,33.44,-0.7,1.23,10.4
49.761923,3.363527,33.47,-1.59,0.48,9.94
49.761923,3.363527,33.47,-1.52,0.53,9.45
49.762138,3.363201,33.47,-2.68,-0.33,8.99
49.762138,3.363201,33.47,-1.02,0.65,10.79
49.762352,3.362874,33.49,-1.78,0.03,9.8
49.762352,3.362874,33.49,-0.64,1.15,10.29
49.762568,3.362551,33.54,-1.44,0.67,9.27
49.762568,3.362551,33.54,-0.19,-0.3,8.56
49.762786,3.362229,33.55,-1.57,-0.58,8.59
49.762786,3.362229,33.55,0.05,0.51,9.9
49.763004,3.361913,33.09,-0.59,0.78,10.83
49.763004,3.361913,33.09,-1.81,-0.16,9.24
49.763219,3.361603,32.53,-0.59,0.49,9.63
49.763219,3.361603,32.53,-0.74,0.3,9.98
49.763429,3.361292,32.17,-2.08,-0.24,9.34
49.763429,3.361292,32.17,-1.35,0.69,11.01
49.763646,3.360993,32.13,-1.69,0.07,9.67
49.763861,3.360693,32.19,-1.43,0.91,10.6
49.763861,3.360693,32.19,-2.34,-0.2,10.2
49.764079,3.360395,32.24,-2.16,-0.56,10.67
49.764079,3.360395,32.24,-2.18,-1.08,9.61
49.7643,3.360094,32.35,-1.16,0.96,9.19
49.7643,3.360094,32.35,-0.66,1.4,11.35
49.76452,3.359794,32.2,-0.32,0.32,9.69
49.76452,3.359794,32.2,-0.07,0.4,10.48
49.764734,3.359502,32.15,-2.26,-0.59,9.79
49.764734,3.359502,32.15,-1.35,-0.48,9.75
49.764946,3.359208,32.14,-2.27,-0.04,11.56
49.764946,3.359208,32.14,-1.67,-0.42,10.6
49.765162,3.358912,32.11,-2.93,-0.03,10.09
49.765162,3.358912,32.11,-2.63,0.08,8.63
49.765378,3.358617,32.05,-2.38,0.4,8.73
49.765378,3.358617,32.05,-0.9,0.9,9.92
49.765597,3.358324,32.12,-2.04,1.11,10.23
49.765597,3.358324,32.12,-1.08,0.91,10.38
49.765818,3.358034,32.18,-1.81,-0.31,10.13
49.765818,3.358034,32.18,-1.59,0.34,9.77
49.766041,3.357751,32.35,-3.13,-0.38,9.16
49.766041,3.357751,32.35,-1.07,0.61,9.37
49.766266,3.357467,32.67,-1.47,0.75,10.34
49.766266,3.357467,32.67,-2.25,0.35,8.83
49.766494,3.357183,32.89,-1.08,0.3,10.4
49.766494,3.357183,32.89,0.09,0.88,8.94
49.766726,3.356898,33.07,-2.95,-0.47,10.15
49.766726,3.356898,33.07,-0.39,-0.29,8.64
49.76696,3.356611,33.29,-2.77,-1.01,9.68
49.76696,3.356611,33.29,-1.13,-0.15,8.42
49.767191,3.356324,33.42,-1.64,-0.37,10.46
49.767191,3.356324,33.42,-1.06,0.63,10.84
49.76743,3.356038,33.45,-0.99,-0.28,9.56
49.76743,3.356038,33.45,-2.91,-0.43,9.74
49.767666,3.355752,33.47,-3.07,-1.05,10.25
49.767666,3.355752,33.47,-1.45,-0.11,9.65
49.767902,3.355462,33.62,-2.61,-0.98,9.97
49.767902,3.355462,33.62,-1.41,-0.13,9.17
49.768139,3.355173,33.65,-2.84,-1.2,9.59
49.76838,3.354883,33.61,-2.23,-0.03,9.68
49.76838,3.354883,33.61,-1.02,-0.74,8.83
49.76838,3.354883,33.61,-0.59,0.39,10.05
49.768621,3.354593,33.6,-1.05,-0.74,9.88
49.768862,3.354304,33.64,-1.37,0.14,9.72
49.768862,3.354304,33.64,-2.99,-1.42,9.94
49.7691,3.354014,33.63,-1.88,0.04,10.15
49.7691,3.354014,33.63,-0.37,0.32,9.38
49.76934,3.353726,33.66,-0.25,0.67,10.15
49.76934,3.353726,33.66,-2.74,-0.43,10.34
49.76958,3.353438,33.64,-2.13,-0.64,9.99
49.76958,3.353438,33.64,-2.52,-0.44,10.92
49.769818,3.35315,33.61,-2.16,-2.01,8.57
49.769818,3.35315,33.61,-2.24,-0.22,10.07
49.770055,3.352861,33.59,-0.8,-0.26,8.95
49.770055,3.352861,33.59,-1.42,-0.18,10.11
49.770292,3.352575,33.59,-2.2,0.15,9.12
49.770292,3.352575,33.59,-2.46,-0.33,10.52
49.770528,3.352287,33.58,-1.08,0.36,9.12
49.770528,3.352287,33.58,-0.21,-0.2,9.03
49.770767,3.352002,33.51,-3.09,-0.18,11.03
49.770767,3.352002,33.51,-0.45,1.46,9.82
49.771009,3.351726,33.49,-2.71,0.26,10.1
49.771009,3.351726,33.49,-0.49,0.75,9.21
49.771249,3.351442,33.44,-1.55,0.18,9.96
49.771249,3.351442,33.44,-1.52,-0.27,10.19
49.771495,3.351167,33.46,-2.46,-1.44,8.81
49.771495,3.351167,33.46,-1.71,0.51,9.56
49.771734,3.350889,33.45,-2.32,0.58,10.64
49.771734,3.350889,33.45,-1.45,0.38,10.25
49.771969,3.350605,33.53,-2.25,-0.62,9.15
49.771969,3.350605,33.53,-1.68,-0.06,9.3
49.772203,3.350321,33.55,-3.34,-2.1,9.58
49.772203,3.350321,33.55,-1.9,-1.15,8.53
49.772436,3.350035,33.61,-2.54,-0.95,9.37
49.772436,3.350035,33.61,-2.16,-0.38,9.31
49.772674,3.349748,33.71,-0.4,-0.19,9.63
49.772674,3.349748,33.71,-0.45,-0.23,9.15
49.772909,3.349459,33.71,-0.39,0.6,10.46
49.772909,3.349459,33.71,-2.63,-1.09,9.07
49.773148,3.349172,33.78,-0.79,-0.48,9.81
49.773148,3.349172,33.78,-2.83,-0.74,9.47
49.77339,3.348881,33.91,-3.26,-1.16,9.79
49.77339,3.348881,33.91,-0.6,0.22,9.66
49.773628,3.348588,33.94,-0.85,-0.75,11.79
49.773628,3.348588,33.94,0.59,0.35,9.22
49.773864,3.348296,33.54,-3.03,-0.73,9.17
49.774099,3.348009,33.13,0.18,0.97,11.06
49.774099,3.348009,33.13,-2.05,-0.85,10.23
49.774326,3.347717,32.86,-1.04,-0.31,8.39
49.774326,3.347717,32.86,-1.4,0.2,9.83
49.774552,3.347428,32.89,-1.67,-0.48,9.89
49.774552,3.347428,32.89,-0.65,-0.15,8.77
49.774779,3.347138,33.01,-2.26,-0.33,9.89
49.774779,3.347138,33.01,-2.81,-1.27,10.89
49.775009,3.346846,33.19,-0.52,0.05,9.84
49.775009,3.346846,33.19,-0.25,0.83,10.37
49.77524,3.346552,33.32,-0.97,0.69,8.59
49.77524,3.346552,33.32,-2.16,-0.42,10.38
49.775468,3.346254,33.5,-2.66,-0.02,9.3
49.775468,3.346254,33.5,-1.32,-0.03,9.62
49.775697,3.345955,33.6,-2.07,-1.13,9.38
49.775697,3.345955,33.6,-0.7,0.63,10.01
49.775927,3.345653,33.72,-0.59,-1.19,8.86
49.775927,3.345653,33.72,-1.96,-0.18,10.06
49.776157,3.345346,33.88,-1.68,-0.96,9.24
49.776157,3.345346,33.88,-2.26,0.04,10.94
49.776387,3.345036,34.05,-3.05,-0.93,9.21
49.776387,3.345036,34.05,-2.08,-0.49,9.44
49.776623,3.344725,34.18,-1.79,0.08,10.48
49.776623,3.344725,34.18,-2.4,-0.87,10.13
49.776854,3.344409,34.21,-1.92,-0.58,9.62
49.776854,3.344409,34.21,-1.56,-0.97,10.62
49.777084,3.344096,34.19,-1.53,0.3,10.66
49.777084,3.344096,34.19,-2.34,-1.11,10.13
49.777316,3.343778,34.21,-0.44,0.12,10.61
49.777316,3.343778,34.21,-1.1,0.16,9.3
49.777544,3.343464,34.19,-1.58,-0.94,9.41
49.777544,3.343464,34.19,-0.63,0.71,10.93
49.777778,3.343153,34.14,-0.57,-0.75,8.94
49.777778,3.343153,34.14,-1.64,-0.27,9.21
49.77801,3.34284,34.07,-0.18,0.35,11.13
49.77801,3.34284,34.07,-1.99,0.29,9.25
49.778237,3.34253,33.67,-1.03,-0.78,9.98
49.778463,3.342223,33.34,-2.04,-0.05,9.43
49.778463,3.342223,33.34,-0.86,0.21,11.07
49.778688,3.341916,33.2,-1.33,-0.42,10.15
49.778688,3.341916,33.2,-1.34,0.84,9.43
49.77891,3.341615,33.15,-0.67,0.48,9.46
49.77891,3.341615,33.15,-2.07,-0.11,9.81
49.779137,3.34132,32.91,-1.17,-0.76,9.8
49.779137,3.34132,32.91,-1.3,-0.13,11.65
49.779359,3.341023,32.78,-1.92,-1.28,10.46
49.779359,3.341023,32.78,-1.23,-0.25,9.21
49.779583,3.340726,32.7,-0.85,0.59,11.31
49.779583,3.340726,32.7,-1.22,-0.36,8.56
49.779801,3.340425,32.58,-1.13,-0.13,9.67
49.779801,3.340425,32.58,-1.5,0.04,8.99
49.780018,3.340123,32.47,-0.67,0.31,10.69
49.780018,3.340123,32.47,-1.05,-0.86,9.85
49.780233,3.339821,32.31,-1.82,-0.52,9.99
49.780233,3.339821,32.31,-2.2,-1.58,9.09
49.780445,3.339517,32.31,-1.07,-0.07,8.76
49.780445,3.339517,32.31,-2.29,-0.34,9.86
49.780657,3.339215,32.2,-1.68,0.03,9.28
49.780657,3.339215,32.2,-1.23,-0.02,10.11
49.78087,3.338914,32.1,-1.81,0.06,9.47
49.78087,3.338914,32.1,-2.1,0.06,9.6
49.781082,3.338612,32.01,-0.72,-0.31,9.26
49.781082,3.338612,32.01,-1.02,-0.11,11.24
49.781294,3.338311,31.99,-1.36,0.36,11.18
49.781294,3.338311,31.99,-0.21,0.67,11.05
49.781504,3.338009,31.89,-1.25,-1.04,9.56
49.781504,3.338009,31.89,-1.57,0.85,9.84
49.781712,3.337705,31.93,-1.43,-0.86,10.38
49.781712,3.337705,31.93,-2.19,-0.5,11.42
49.781923,3.337399,31.97,-0.85,-0.21,10.18
49.781923,3.337399,31.97,-1.84,-0.32,10.66
49.782131,3.337093,32.0,-1.46,-0.85,9.89
49.782131,3.337093,32.0,-1.36,-1.1,10.13
49.782344,3.336787,32.04,-1.75,0.04,10.41
49.782344,3.336787,32.04,-1.03,-0.76,10.23
49.782553,3.336481,32.03,-1.31,-0.85,7.94
49.782553,3.336481,32.03,-1.1,0.03,9.65
49.782761,3.336176,32.01,-2.25,-0.01,9.0
49.782761,3.336176,32.01,-1.46,-0.08,9.16
49.782967,3.335867,32.05,-2.2,-0.13,9.07
49.783169,3.335553,31.97,-1.72,1.14,11.03
49.783169,3.335553,31.97,-1.31,-0.46,9.51
49.783373,3.335239,31.99,-0.93,0.36,10.71
49.783373,3.335239,31.99,-0.7,0.21,10.09
49.783581,3.334926,31.98,-2.02,0.11,10.54
49.783581,3.334926,31.98,0.28,0.21,9.91
49.783785,3.334613,31.97,-2.2,-1.02,9.63
49.783785,3.334613,31.97,-1.11,-0.07,10.81
49.783988,3.3343,31.99,-1.76,-1.39,10.37
49.783988,3.3343,31.99,-2.12,-0.91,10.34
49.78419,3.333986,32.03,-2.17,-0.73,8.85
49.78419,3.333986,32.03,-1.76,-0.21,10.58
49.784393,3.333671,32.03,-1.25,0.12,9.69
49.784393,3.333671,32.03,-1.8,-0.45,8.96
49.784596,3.333355,32.06,-0.8,0.49,11.04
49.784596,3.333355,32.06,-1.05,0.46,8.76
49.784802,3.333041,32.16,-0.84,0.68,10.7
49.784802,3.333041,32.16,-1.36,-0.32,9.63
49.785005,3.332724,32.28,-0.88,0.57,10.67
49.785005,3.332724,32.28,-2.81,-0.23,10.62
49.785213,3.332409,32.41,-2.25,-1.09,10.64
49.785213,3.332409,32.41,-1.7,-1.23,9.79
49.78542,3.332093,32.53,-0.4,-0.18,9.16
49.78542,3.332093,32.53,-2.39,-0.99,9.44
49.785627,3.331775,32.63,-1.93,-1.03,10.36
49.785627,3.331775,32.63,-1.18,-0.38,8.92
49.785836,3.331453,32.72,-1.57,1.17,10.76
49.785836,3.331453,32.72,-1.7,-0.08,9.36
49.786044,3.331131,32.79,-1.73,-1.14,9.11
49.786044,3.331131,32.79,-1.36,-0.66,9.08
49.786252,3.330811,32.55,-0.89,1.18,10.76
49.786252,3.330811,32.55,-2.1,-0.2,9.49
49.786461,3.330487,33.24,-1.09,-0.27,9.21
49.786461,3.330487,33.24,-1.64,-0.53,10.67
49.786671,3.330158,33.4,-1.0,-0.06,9.53
49.786671,3.330158,33.4,-2.88,-0.63,8.86
49.786886,3.329829,33.56,-0.66,0.39,9.27
49.786886,3.329829,33.56,-2.23,-0.53,10.39
49.787101,3.329499,33.69,-1.11,0.4,8.36
49.787316,3.329167,33.81,-0.77,0.05,9.69
49.787316,3.329167,33.81,-0.56,-0.74,9.41
49.787532,3.328833,33.97,-1.3,1.36,12.47
49.787532,3.328833,33.97,-1.39,-0.49,9.38
49.787749,3.328499,34.02,-2.43,-0.86,9.78
49.787749,3.328499,34.02,-1.44,-0.29,10.58
49.787967,3.328165,34.11,-2.04,-1.0,9.81
49.787967,3.328165,34.11,-2.35,-0.66,9.86
49.788185,3.327829,34.28,-2.01,-0.29,10.14
49.788185,3.327829,34.28,-2.15,-0.15,10.1
49.788405,3.327492,34.34,-1.91,0.11,10.99
49.788405,3.327492,34.34,-0.49,-0.74,8.94
49.788621,3.327153,34.2,-1.2,-0.79,9.19
49.788621,3.327153,34.2,-1.65,0.11,9.42
49.788836,3.326815,34.13,-2.03,0.2,11.11
49.788836,3.326815,34.13,-0.97,-0.73,9.19
49.789055,3.326481,34.12,-1.6,0.0,8.85
49.789055,3.326481,34.12,-1.29,-0.34,10.42
49.789269,3.326144,34.06,0.06,-0.37,10.3
49.789269,3.326144,34.06,-1.35,-0.72,10.45
49.789481,3.325809,33.51,-2.69,-0.49,9.76
49.789481,3.325809,33.51,-0.7,-0.77,8.21
49.789697,3.325484,33.5,-0.97,0.68,10.04
49.789697,3.325484,33.5,-1.94,0.06,9.61
49.789909,3.325159,33.27,-2.75,-0.85,9.33
49.789909,3.325159,33.27,-2.04,-0.17,9.16
49.790119,3.324833,33.14,-3.32,-1.14,10.37
49.790119,3.324833,33.14,-1.78,-0.63,8.84
49.790326,3.324502,33.48,-1.18,0.16,9.39
49.790326,3.324502,33.48,-1.83,0.79,10.57
49.790543,3.32417,33.85,-0.21,0.1,8.65
49.790543,3.32417,33.85,-2.8,-1.2,9.61
49.790765,3.323841,34.0,-1.84,0.38,9.89
49.790765,3.323841,34.0,-0.8,-0.06,9.2
49.790991,3.323517,34.03,-0.63,0.09,10.48
49.790991,3.323517,34.03,-1.46,-0.47,8.77
49.791212,3.32319,33.91,-2.4,-0.11,9.21
49.791212,3.32319,33.91,-2.73,-0.59,10.69
49.791432,3.322863,33.97,-0.82,-0.14,8.75
49.791432,3.322863,33.97,-2.15,-0.47,9.4
49.791651,3.322535,33.95,-0.33,0.29,8.93
49.791651,3.322535,33.95,-1.43,-0.86,9.23
49.791867,3.322208,33.42,-0.57,0.23,10.07
49.792081,3.321885,33.27,-1.25,-0.2,9.85
49.792081,3.321885,33.27,-1.01,0.69,10.33
49.792298,3.321567,33.22,-1.95,-0.3,9.92
49.792298,3.321567,33.22,-0.97,0.09,9.33
49.792515,3.321248,33.31,-1.02,0.46,10.9
49.792515,3.321248,33.31,-1.49,0.03,9.56
49.792734,3.320931,33.46,-0.67,0.68,9.29
49.792734,3.320931,33.46,-2.07,-1.25,10.18
49.792955,3.320615,33.51,-0.28,1.19,10.22
49.792955,3.320615,33.51,-2.19,-0.58,9.23
49.793177,3.320298,33.58,-1.06,0.29,9.99
49.793177,3.320298,33.58,-1.63,0.29,10.07
49.793398,3.31998,33.56,-0.85,-0.49,9.57
49.793398,3.31998,33.56,-1.54,-0.81,10.79
49.793619,3.319663,33.65,-0.89,0.01,9.69
49.793619,3.319663,33.65,-2.26,-1.1,9.93
49.793845,3.319347,33.73,-1.84,0.07,9.22
49.793845,3.319347,33.73,-1.14,-0.38,8.97
49.794072,3.31903,33.79,-2.28,0.8,11.23
49.794072,3.31903,33.79,-1.14,0.19,10.49
49.794297,3.318712,33.9,-0.34,0.68,9.52
49.794297,3.318712,33.9,-2.3,-0.12,10.61
49.794523,3.318393,33.94,-1.45,-0.01,8.38
49.794523,3.318393,33.94,-2.67,-0.6,10.12
49.794749,3.318077,33.91,-2.31,-0.85,8.99
49.794749,3.318077,33.91,-0.8,0.97,11.03
49.794977,3.317762,33.76,-2.13,-0.5,9.18
49.794977,3.317762,33.76,-0.39,1.21,9.72
49.795203,3.317452,33.64,-1.35,-0.09,10.93
49.795203,3.317452,33.64,-1.52,0.51,11.08
49.795428,3.317139,33.58,-1.14,-0.32,9.48
49.795428,3.317139,33.58,-1.72,-0.23,8.41
49.795648,3.316831,33.43,0.05,0.34,9.17
49.795648,3.316831,33.43,-0.04,1.18,10.58
49.795871,3.316523,33.38,-2.15,-0.45,9.94
49.795871,3.316523,33.38,-1.46,-0.89,9.3
49.796099,3.316218,33.27,-2.63,-0.82,9.37
49.796099,3.316218,33.27,0.08,-0.19,9.52
49.796326,3.315913,33.18,-1.18,-0.01,10.07
49.796326,3.315913,33.18,-1.45,-0.9,10.0
49.796553,3.315609,32.99,-0.43,-0.48,9.21
49.796553,3.315609,32.99,-0.91,0.14,9.67
49.796773,3.315314,32.38,-0.91,0.27,9.28
49.796993,3.315023,31.99,-0.5,-0.56,9.52
49.796993,3.315023,31.99,0.36,0.33,9.14
49.797212,3.314736,31.61,-0.45,0.28,9.31
49.797212,3.314736,31.61,-0.79,-0.33,10.43
49.797431,3.314451,31.49,-0.08,0.59,10.6
49.797431,3.314451,31.49,-1.96,-1.0,8.53
49.797646,3.314168,31.36,-1.18,-0.39,8.9
49.797646,3.314168,31.36,-1.67,0.17,10.33
49.79786,3.313885,31.31,-0.34,0.1,9.52
49.79786,3.313885,31.31,-1.44,0.89,10.04
49.798075,3.313604,31.5,-1.16,0.25,10.03
49.798075,3.313604,31.5,-1.77,0.2,10.02
49.79829,3.313322,31.73,-1.52,-0.87,9.54
49.79829,3.313322,31.73,0.17,-0.02,10.61
49.798508,3.313042,31.71,-0.91,-0.62,9.21
49.798508,3.313042,31.71,-1.31,-0.84,10.15
49.798725,3.312763,31.17,-1.89,-1.12,11.28
49.798725,3.312763,31.17,-1.73,-0.86,9.5
49.798939,3.312481,31.36,-1.82,-0.07,9.28
49.798939,3.312481,31.36,-1.6,-0.54,10.19
49.799153,3.312197,31.68,-1.94,-0.81,9.61
49.799153,3.312197,31.68,-1.02,0.59,10.59
49.799371,3.311911,32.03,-1.26,-0.23,9.23
49.799371,3.311911,32.03,-2.57,-0.52,10.16
49.799592,3.311622,32.32,-0.72,0.26,9.24
49.799592,3.311622,32.32,-1.19,-0.51,9.13
49.799813,3.311329,32.55,-1.53,0.14,10.18
49.799813,3.311329,32.55,-2.52,-1.17,10.66
49.800038,3.311036,32.82,-2.38,-0.79,9.9
49.800038,3.311036,32.82,-1.34,0.37,10.43
49.800264,3.31074,33.12,-3.0,-1.11,8.77
49.800264,3.31074,33.12,-1.33,0.77,11.73
49.800491,3.310438,33.32,-2.3,-1.5,10.41
49.800491,3.310438,33.32,-1.68,0.27,10.23
49.800717,3.310133,33.51,-1.62,-1.4,9.72
49.800717,3.310133,33.51,-0.23,-0.69,9.14
49.800944,3.309827,33.52,-2.36,-0.7,9.28
49.801169,3.309519,33.56,-1.32,-0.49,8.75
49.801169,3.309519,33.56,-2.23,-1.83,7.92
49.801391,3.309209,33.55,-0.73,0.31,10.25
49.801391,3.309209,33.55,-3.04,-1.36,9.06
49.801611,3.308894,33.55,-0.41,-1.31,10.79
49.801611,3.308894,33.55,-2.11,-1.38,10.25
49.801835,3.30858,33.54,-0.59,-1.09,8.06
49.801835,3.30858,33.54,-2.94,-1.97,9.64
49.802055,3.308262,33.55,-1.27,-0.04,10.76
49.802055,3.308262,33.55,-1.97,-1.53,9.23
49.802276,3.307941,33.5,-1.19,-0.24,11.77
49.802276,3.307941,33.5,-2.79,-1.37,10.3
49.802498,3.307621,33.48,-1.22,-0.81,9.48
49.802498,3.307621,33.48,-2.23,-2.2,10.24
49.802719,3.307298,33.5,-1.12,0.15,10.98
49.802719,3.307298,33.5,-1.59,-0.48,7.48
49.80294,3.306976,33.42,-0.57,-0.9,10.47
49.80294,3.306976,33.42,-2.04,-1.22,9.17
49.803153,3.306649,33.56,-1.1,0.09,9.07
49.803153,3.306649,33.56,-2.31,-0.75,10.4
49.803365,3.306317,33.81,-1.25,0.21,10.0
49.803365,3.306317,33.81,-2.23,-1.42,9.34
49.803581,3.305983,33.93,-1.18,-0.95,9.48
49.803581,3.305983,33.93,-0.2,0.61,10.44
49.803792,3.305643,34.05,-2.2,-1.67,9.74
49.803792,3.305643,34.05,-0.48,-0.65,8.51
49.804004,3.3053,33.98,-1.0,0.55,11.97
49.804004,3.3053,33.98,-0.15,-0.48,9.08
49.804211,3.304959,33.47,-0.94,-0.73,8.9
49.804211,3.304959,33.47,-2.19,-1.08,10.25
49.804413,3.304619,33.26,-1.29,-0.68,10.32
49.804413,3.304619,33.26,-1.26,0.3,10.02
49.804614,3.30428,33.13,-1.65,0.2,10.4
49.804614,3.30428,33.13,-0.63,-0.23,10.38
49.804816,3.303942,33.07,-1.06,-0.61,10.57
49.804816,3.303942,33.07,-0.95,0.29,10.07
49.805014,3.3036,32.96,-0.12,0.55,10.67
49.805014,3.3036,32.96,-0.55,-0.11,10.03
49.805209,3.303256,32.93,-1.16,-0.16,9.68
49.805209,3.303256,32.93,-0.42,0.94,10.76
49.805404,3.302912,32.97,-0.57,0.69,10.23
49.805404,3.302912,32.97,-1.58,-0.1,9.37
49.805598,3.302563,32.98,-0.51,0.68,10.48
49.805598,3.302563,32.98,-1.82,-1.02,10.32
49.805792,3.302215,33.13,-1.1,0.16,9.86
49.805985,3.301863,33.21,-1.59,-0.47,9.28
49.805985,3.301863,33.21,-2.0,-0.54,9.42
49.806176,3.301508,33.3,-1.29,-0.56,9.89
49.806176,3.301508,33.3,-1.87,-1.02,10.68
49.806366,3.30115,33.33,-1.43,-0.15,9.64
49.806366,3.30115,33.33,-2.0,-0.37,10.47
49.806554,3.30079,33.35,-1.82,-0.65,9.8
49.806554,3.30079,33.35,-0.94,-0.44,10.75
49.806742,3.300426,33.43,-1.78,-0.75,10.46
49.806742,3.300426,33.43,-0.72,0.18,10.13
49.806931,3.30006,33.39,-1.28,-0.93,9.13
49.806931,3.30006,33.39,-0.38,1.13,11.76
49.807115,3.299694,33.32,-2.44,-1.03,9.58
49.807115,3.299694,33.32,-1.2,0.16,10.88
49.807297,3.299326,33.39,-2.89,-0.93,10.98
49.807297,3.299326,33.39,-1.45,-0.72,9.3
49.807477,3.298955,33.42,-1.85,-0.4,10.31
49.807477,3.298955,33.42,-1.69,-0.88,8.77
49.80766,3.298587,33.54,-2.23,-1.47,9.36
49.80766,3.298587,33.54,-0.66,0.31,9.96
49.807843,3.298216,33.67,-2.04,-0.79,10.18
49.807843,3.298216,33.67,-1.88,0.99,10.78
49.808023,3.297839,33.8,-1.11,-0.41,9.32
49.808023,3.297839,33.8,-0.59,0.52,9.84
49.808204,3.297461,33.83,-0.05,-0.86,8.77
49.808204,3.297461,33.83,-1.73,-0.6,11.3
49.808386,3.297085,33.75,-0.66,-0.09,10.36
49.808386,3.297085,33.75,-2.22,-1.4,5.2
49.808564,3.296708,33.71,-1.43,-0.83,9.3
49.808564,3.296708,33.71,-1.41,-0.72,9.61
49.80874,3.296328,33.71,-1.78,-0.23,9.32
49.80874,3.296328,33.71,-1.57,-0.45,9.0
49.808915,3.295945,33.73,-2.5,-0.46,9.77
49.808915,3.295945,33.73,-1.94,-0.68,9.84
49.809092,3.295565,33.74,-2.06,-0.38,9.62
49.809092,3.295565,33.74,-2.27,-1.05,9.72
49.80927,3.295186,33.73,-1.51,-1.05,8.38
49.80927,3.295186,33.73,-1.99,-1.79,9.13
49.809446,3.294803,33.8,-0.5,0.69,9.92
49.809446,3.294803,33.8,-1.63,-0.5,9.86
49.809624,3.294423,33.87,-1.4,0.37,12.11
49.809798,3.294039,33.94,-0.62,0.19,9.62
49.809798,3.294039,33.94,-0.92,0.18,9.52
49.809974,3.293652,34.0,0.04,0.65,10.07
49.809974,3.293652,34.0,-2.32,0.57,10.78
49.810149,3.293263,34.08,-1.13,0.23,9.06
49.810149,3.293263,34.08,-0.72,0.7,11.04
49.810325,3.292874,34.12,-2.02,-1.34,8.94
49.810325,3.292874,34.12,-1.83,-0.07,9.43
49.810499,3.292486,34.19,-1.35,0.35,9.13
49.810499,3.292486,34.19,-0.38,0.64,10.28
49.810675,3.292098,34.22,-2.75,-0.89,10.18
49.810675,3.292098,34.22,-3.04,-0.88,9.67
49.810855,3.291713,34.27,-0.3,1.16,10.59
49.810855,3.291713,34.27,-1.81,-0.62,10.09
49.811035,3.291325,34.32,-2.44,-0.75,10.85
49.811035,3.291325,34.32,-2.91,-0.91,10.14
49.811216,3.290939,34.28,-2.29,0.1,11.1
49.811216,3.290939,34.28,-1.06,0.1,9.31
49.811397,3.290554,34.29,-2.3,-0.69,9.48
49.811397,3.290554,34.29,-2.86,-1.32,10.47
49.81158,3.290174,34.3,-1.85,-0.34,8.43
49.81158,3.290174,34.3,-0.74,-0.6,8.36
49.811763,3.289788,34.35,-2.7,0.15,9.05
49.811763,3.289788,34.35,-3.17,-0.24,10.3
49.811947,3.289404,34.29,-1.16,0.31,10.64
49.811947,3.289404,34.29,-0.42,-1.56,9.73
49.812132,3.289022,34.11,-0.32,0.21,9.8
49.812132,3.289022,34.11,-0.94,0.11,10.3
49.812319,3.28865,33.81,-1.17,-0.21,8.6
49.812319,3.28865,33.81,-3.37,-1.59,9.74
49.812502,3.288275,33.63,-0.65,-0.9,9.41
49.812502,3.288275,33.63,-2.43,-0.67,10.94
49.812688,3.287902,33.89,-2.03,-0.04,9.58
49.812688,3.287902,33.89,-1.34,0.28,9.62
49.812872,3.287524,33.81,-2.39,-0.65,9.44
49.812872,3.287524,33.81,-0.8,0.32,10.1
49.813054,3.287145,33.74,-3.59,-0.83,8.73
49.813054,3.287145,33.74,-0.83,-0.33,11.68
49.813227,3.286765,33.66,-1.99,-0.42,9.62
49.813403,3.286384,33.65,-2.21,-0.1,10.13
49.813403,3.286384,33.65,-2.26,-1.01,11.27
49.813577,3.286005,33.55,-1.94,-0.46,9.3
49.813577,3.286005,33.55,-1.69,-0.58,10.34
49.813752,3.285626,33.44,-0.55,-0.4,11.65
49.813752,3.285626,33.44,-1.14,0.64,9.52
49.813927,3.285245,33.45,-3.18,-0.67,9.15
49.813927,3.285245,33.45,-2.84,-1.69,9.61
49.8141,3.284868,33.4,-0.11,0.23,9.06
49.8141,3.284868,33.4,-2.51,-1.02,10.18
49.814275,3.28449,33.37,-0.18,-0.13,8.78
49.814275,3.28449,33.37,-2.83,-1.25,10.22
49.814448,3.284112,33.31,-1.86,0.08,10.93
49.814448,3.284112,33.31,-2.26,-0.58,9.3
49.814623,3.283736,33.32,-1.41,0.14,10.09
49.814623,3.283736,33.32,-2.24,0.15,11.01
49.814794,3.283357,33.32,-1.98,-1.22,9.1
49.814794,3.283357,33.32,-1.8,-0.15,9.69
49.814962,3.282973,33.35,-2.22,-0.94,10.2
49.814962,3.282973,33.35,-0.84,-0.53,9.28
49.815131,3.282589,33.33,-2.64,-1.97,8.62
49.815131,3.282589,33.33,-1.41,-0.37,10.44
49.815296,3.2822,33.39,-2.66,-0.76,10.69
49.815296,3.2822,33.39,-1.36,-0.74,9.49
49.815459,3.281808,33.5,-2.27,-0.01,11.45
49.815459,3.281808,33.5,-1.38,-0.24,9.66
49.81562,3.281414,33.63,-2.52,-1.8,9.64
49.81562,3.281414,33.63,-1.86,0.28,11.42
49.815782,3.281018,33.72,-3.81,-0.73,12.32
49.815782,3.281018,33.72,-0.37,-0.28,8.59
49.815942,3.280619,33.78,-1.22,-0.64,10.08
49.815942,3.280619,33.78,-3.49,-1.65,9.57
49.8161,3.280217,33.86,-1.92,-0.76,9.32
49.8161,3.280217,33.86,-3.05,-0.82,9.6
49.816257,3.279814,33.9,-1.44,-0.13,9.66
49.816257,3.279814,33.9,-1.51,-0.22,10.36
49.816412,3.279409,33.87,-2.64,-1.31,9.18
49.816412,3.279409,33.87,-1.28,-0.09,10.02
49.816564,3.279,33.95,-1.22,0.27,9.38
49.816564,3.279,33.95,-2.88,-0.69,10.25
49.816714,3.27859,33.94,-0.02,0.33,9.43
49.816714,3.27859,33.94,-1.83,-0.7,10.62
49.816862,3.278178,34.04,-2.57,-1.23,9.86
49.817007,3.277763,34.16,-2.39,-0.01,9.18
49.817007,3.277763,34.16,-2.37,-0.44,9.93
49.81715,3.277342,34.31,-2.92,-0.53,10.16
49.81715,3.277342,34.31,-3.3,-0.64,10.06
49.817289,3.276916,34.61,-0.47,0.12,10.28
49.817289,3.276916,34.61,-0.87,-0.39,9.85
49.817433,3.276489,34.89,-1.34,0.19,11.38
49.817433,3.276489,34.89,-2.41,-0.57,9.96
49.817573,3.276056,35.01,-1.54,-0.55,10.09
49.817573,3.276056,35.01,-1.48,-0.34,9.49
49.817713,3.275618,35.17,-2.67,-1.24,10.31
49.817713,3.275618,35.17,-0.89,-1.43,9.6
49.817844,3.27517,35.42,-0.37,-1.35,10.57
49.817844,3.27517,35.42,-2.22,-0.66,9.98
49.817974,3.274716,35.52,-0.36,-0.22,10.01
49.817974,3.274716,35.52,-2.11,-0.45,8.48
49.818106,3.274261,35.73,0.52,-0.2,8.88
49.818106,3.274261,35.73,-3.93,-1.18,9.57
49.818239,3.273805,35.89,0.27,-0.2,9.8
49.818239,3.273805,35.89,-0.78,-1.13,9.82
49.818369,3.273348,35.5,-0.57,0.02,11.05
49.818369,3.273348,35.5,0.27,-0.19,10.25
49.818498,3.2729,34.96,0.01,0.1,9.37
49.818498,3.2729,34.96,-2.59,-0.49,11.33
49.818618,3.272456,34.36,-1.02,-1.21,8.06
49.818618,3.272456,34.36,0.06,0.58,10.23
49.818736,3.272019,33.78,-0.9,-1.16,10.32
49.818736,3.272019,33.78,0.38,1.02,9.85
49.818849,3.271586,33.1,-0.79,-0.58,8.91
49.818849,3.271586,33.1,-1.05,-1.25,9.04
49.818957,3.271162,32.68,-0.31,-0.43,9.09
49.818957,3.271162,32.68,-1.32,0.33,10.51
49.819062,3.27074,32.22,-0.64,-0.8,10.36
49.819062,3.27074,32.22,0.41,0.46,11.02
49.819162,3.270325,31.85,-0.32,0.64,9.86
49.819162,3.270325,31.85,-0.84,0.16,10.97
49.81926,3.269914,31.54,-2.37,-0.3,8.8
49.81926,3.269914,31.54,-2.17,-0.05,9.04
49.819357,3.2695,31.48,-1.95,-1.71,9.91
49.819357,3.2695,31.48,-1.86,-0.88,9.44
49.819454,3.269086,31.84,-1.23,0.44,9.58
49.819454,3.269086,31.84,-1.79,-0.47,9.23
49.819546,3.268664,32.01,-2.83,0.07,9.94
49.819636,3.268239,32.47,-0.62,-0.5,10.53
49.819636,3.268239,32.47,-3.31,-0.77,10.1
49.819728,3.267808,32.85,-2.82,-0.49,9.5
49.819728,3.267808,32.85,-0.09,0.42,9.26
49.819823,3.267378,32.92,-0.44,0.0,9.46
49.819823,3.267378,32.92,-0.49,-0.39,9.77
49.819914,3.266945,32.65,-1.53,0.43,10.85
49.819914,3.266945,32.65,-0.59,0.9,10.93
49.820005,3.266514,32.6,-1.36,0.12,10.83
49.820005,3.266514,32.6,-2.16,-0.76,10.03
49.820096,3.266081,32.72,-1.26,0.23,10.46
49.820096,3.266081,32.72,-1.47,0.23,8.81
49.820193,3.265649,32.77,-0.53,1.4,10.35
49.820193,3.265649,32.77,-1.14,-0.88,9.77
49.820287,3.265221,32.76,-1.88,-1.13,9.3
49.820287,3.265221,32.76,-0.21,0.23,9.46
49.820384,3.26479,32.84,-2.6,-1.22,8.7
49.820384,3.26479,32.84,-1.58,-0.18,10.22
49.820484,3.264359,33.11,-1.85,0.05,10.74
49.820484,3.264359,33.11,-1.25,-1.64,8.99
49.820585,3.263922,33.33,-1.7,-0.1,10.52
49.820585,3.263922,33.33,-2.37,0.24,8.8
49.820684,3.263482,33.36,-0.84,0.44,9.94
49.820684,3.263482,33.36,-1.24,0.47,9.83
49.82079,3.263047,33.58,0.35,0.68,9.9
49.82079,3.263047,33.58,-1.82,-0.49,9.61
49.820896,3.262614,33.3,-0.23,-0.44,9.57
49.820896,3.262614,33.3,-1.28,0.79,10.28
49.820998,3.262179,32.92,-1.5,-0.36,9.27
49.820998,3.262179,32.92,-0.65,0.68,9.92
49.821106,3.261754,32.5,-0.93,0.64,10.62
49.821106,3.261754,32.5,-0.3,1.05,10.55
49.821219,3.261343,32.19,-1.01,0.52,10.74
49.821219,3.261343,32.19,-1.06,0.41,11.18
49.821335,3.260943,31.98,-0.3,-0.08,11.02
49.821335,3.260943,31.98,-0.57,0.68,10.8
49.821446,3.260541,31.5,-2.15,-0.14,10.57
49.821446,3.260541,31.5,-1.96,0.22,9.57
49.82156,3.260143,31.43,-2.2,0.02,8.81
49.821668,3.25974,31.6,-2.0,0.54,10.34
49.821668,3.25974,31.6,-3.07,-0.4,9.36
49.821781,3.259334,31.79,-2.87,-0.33,11.07
49.821781,3.259334,31.79,-0.56,-0.13,9.75
49.821899,3.258929,32.04,-2.55,-0.44,9.89
49.821899,3.258929,32.04,-1.66,-0.35,8.47
49.822016,3.258521,32.07,-1.08,0.09,8.44
49.822016,3.258521,32.07,-1.63,-0.05,9.42
49.822129,3.25811,32.16,-1.5,0.55,9.46
49.822129,3.25811,32.16,-1.65,0.26,10.38
49.822247,3.257701,32.23,-0.91,1.57,10.39
49.822247,3.257701,32.23,-1.48,-0.26,9.82
49.822367,3.257294,32.26,-0.23,1.08,10.73
49.822367,3.257294,32.26,-1.47,1.37,8.25
49.822494,3.256891,32.28,-2.62,0.34,9.5
49.822494,3.256891,32.28,-2.87,-0.91,11.63
49.822625,3.256489,32.35,-0.79,0.45,9.12
49.822625,3.256489,32.35,-1.14,0.88,11.21
49.822757,3.256087,32.27,-0.1,0.16,9.19
49.822757,3.256087,32.27,0.12,1.27,9.59
49.822889,3.25569,32.11,-1.96,-0.18,10.65
49.822889,3.25569,32.11,-1.33,0.07,7.89
49.823023,3.255292,32.1,-2.46,-1.21,9.39
49.823023,3.255292,32.1,-2.37,-0.96,8.12
49.823161,3.254897,32.16,-1.89,-0.55,10.74
49.823161,3.254897,32.16,-2.15,-0.18,9.17
49.823301,3.254506,32.11,0.06,1.28,9.63
49.823301,3.254506,32.11,-2.88,0.92,10.46
49.823444,3.254119,32.08,-3.08,-0.12,9.61
49.823444,3.254119,32.08,-2.84,0.68,9.67
49.823586,3.253729,32.02,-0.72,0.8,9.46
49.823586,3.253729,32.02,-1.31,0.62,10.86
49.823734,3.253347,32.1,-2.14,-0.25,9.52
49.823734,3.253347,32.1,0.12,-0.36,12.08
49.823886,3.252963,32.16,-0.13,0.41,10.57
49.823886,3.252963,32.16,-1.32,-1.24,11.55
49.824037,3.252586,31.72,-1.71,-0.34,9.76
49.824037,3.252586,31.72,-2.07,-0.35,8.43
49.824186,3.25221,31.87,-0.34,0.01,8.1
49.824186,3.25221,31.87,-1.2,0.26,10.68
49.824335,3.251832,31.94,-0.13,0.08,9.17
49.824335,3.251832,31.94,-0.66,-0.13,10.19
49.824489,3.25146,31.8,-1.2,-0.35,10.98
49.824643,3.251094,31.25,-0.23,-0.56,10.27
49.824643,3.251094,31.25,0.13,0.79,9.54
49.8248,3.250735,30.94,-1.29,0.2,8.26
49.8248,3.250735,30.94,-1.93,-0.46,9.84
49.82495,3.250382,30.59,-0.48,1.27,9.68
49.82495,3.250382,30.59,-2.01,-0.05,9.07
49.825111,3.25004,30.53,-1.4,0.6,9.47
49.825111,3.25004,30.53,-1.53,0.74,9.43
49.82528,3.2497,30.9,-1.32,-0.4,9.19
49.82528,3.2497,30.9,-1.84,0.01,10.1
49.82545,3.249359,31.13,-0.97,0.62,9.96
49.82545,3.249359,31.13,-1.55,0.38,9.56
49.825627,3.249023,31.14,-1.79,-0.21,10.83
49.825627,3.249023,31.14,-2.12,0.13,10.42
49.825804,3.248686,31.25,-2.0,-0.33,9.62
49.825804,3.248686,31.25,-1.93,0.56,9.35
49.825986,3.248352,31.35,-1.22,0.4,9.4
49.825986,3.248352,31.35,-0.93,0.52,9.17
49.826169,3.248022,31.03,-0.93,0.32,9.81
49.826169,3.248022,31.03,-0.24,-0.22,10.33
49.826352,3.247701,30.52,-1.61,0.94,9.68
49.826352,3.247701,30.52,-1.52,0.19,9.78
49.826536,3.247391,30.13,-1.94,-0.4,9.17
49.826536,3.247391,30.13,-0.7,-0.2,10.36
49.826719,3.247088,29.54,-2.34,-1.17,9.13
49.826719,3.247088,29.54,-1.73,-0.22,9.8
49.826906,3.246797,29.6,-1.16,1.48,10.59
49.826906,3.246797,29.6,-2.11,0.25,9.89
49.827099,3.246514,29.67,-1.4,-0.35,9.84
49.827099,3.246514,29.67,-1.07,0.56,9.67
49.827292,3.246229,29.69,-2.91,-0.87,10.26
49.827292,3.246229,29.69,-1.1,0.61,9.59
49.827487,3.245948,29.58,-0.97,0.0,9.94
49.827487,3.245948,29.58,-1.43,0.25,10.02
49.827684,3.245669,29.46,-1.17,0.07,8.16
49.827684,3.245669,29.46,-1.24,0.67,9.67
49.827882,3.245398,29.25,-1.38,-0.44,10.87
49.827882,3.245398,29.25,-2.23,-1.02,9.37
49.828082,3.245131,29.41,-2.82,-1.44,9.32
49.828082,3.245131,29.41,-2.41,0.69,10.48
49.828285,3.244865,29.73,-1.99,-0.56,9.08
49.828285,3.244865,29.73,-2.5,0.63,10.09
49.828492,3.244594,30.23,-2.25,-0.08,9.62
49.828701,3.244322,30.6,-0.93,0.6,11.21
49.828701,3.244322,30.6,-2.13,0.08,9.43
49.828917,3.244052,30.91,-1.98,-0.02,10.04
49.828917,3.244052,30.91,-1.06,0.86,9.53
49.829132,3.243784,31.22,-1.9,1.98,9.93
49.829132,3.243784,31.22,-1.03,1.24,8.0
49.829354,3.243524,31.45,-2.06,-0.18,9.35
49.829354,3.243524,31.45,-1.49,0.22,8.83
49.829586,3.243276,31.85,-1.58,1.08,9.94
49.829586,3.243276,31.85,-2.57,-0.43,9.42
49.829827,3.243031,32.09,-0.88,1.04,8.39
49.829827,3.243031,32.09,-2.3,-0.07,9.33
49.830072,3.242793,32.07,-1.22,0.72,10.83
49.830072,3.242793,32.07,-2.07,-0.19,9.85
49.830321,3.242565,31.48,-0.79,0.08,9.97
49.830321,3.242565,31.48,-1.2,-0.66,10.05
49.830563,3.242342,30.9,-1.23,0.4,12.14
49.830563,3.242342,30.9,-1.72,0.48,9.67
49.830803,3.242124,30.64,-0.82,0.23,10.18
49.830803,3.242124,30.64,-2.01,0.86,9.0
49.831044,3.241911,30.59,-2.46,0.27,8.58
49.831044,3.241911,30.59,-1.49,1.14,11.31
49.831289,3.241707,30.5,-1.25,0.78,9.73
49.831289,3.241707,30.5,-2.18,-1.16,10.53
49.831537,3.241513,30.49,-1.81,0.56,9.96
49.831537,3.241513,30.49,-1.96,-0.15,10.33
49.831776,3.241313,30.57,-2.1,0.21,9.7
49.831776,3.241313,30.57,-1.95,0.8,10.2
49.832025,3.241119,30.56,-2.06,0.29,10.46
49.832025,3.241119,30.56,-1.82,0.06,9.87
49.832272,3.240925,30.64,-1.87,-0.79,8.42
49.832272,3.240925,30.64,-2.36,-0.1,10.55
49.832514,3.240735,30.85,-2.14,0.28,9.56
49.832514,3.240735,30.85,-1.73,-1.02,10.0
49.832758,3.240551,30.84,-2.24,-0.05,9.0
49.832758,3.240551,30.84,-2.76,-0.83,10.75
49.833009,3.240381,30.87,-1.14,-0.28,9.75
49.833009,3.240381,30.87,-1.37,1.4,10.01
49.833266,3.240212,30.88,-1.82,0.83,9.72
49.833266,3.240212,30.88,-2.24,-0.73,10.08
49.833521,3.24004,30.94,-1.17,0.81,9.6
49.833521,3.24004,30.94,-0.07,-0.07,10.02
49.833779,3.239872,31.05,-2.28,0.56,8.74
49.833779,3.239872,31.05,-1.37,-0.86,10.05
49.834044,3.239712,31.1,-2.45,-0.96,7.55
49.834303,3.239547,31.1,-1.33,0.15,9.03
49.834303,3.239547,31.1,-2.01,1.06,9.39
49.834563,3.239389,31.16,-1.98,1.31,9.62
49.834563,3.239389,31.16,-1.84,-0.17,9.82
49.83482,3.239235,31.21,-1.02,0.34,10.02
49.83482,3.239235,31.21,-1.51,2.01,10.39
49.835079,3.239086,31.22,-1.53,1.35,10.41
49.835079,3.239086,31.22,-1.9,0.51,8.45
49.835339,3.238951,31.25,-2.78,-0.34,9.77
49.835339,3.238951,31.25,-2.52,-0.71,9.58
49.835601,3.238819,31.28,-0.91,0.66,10.23
49.835601,3.238819,31.28,-2.99,0.66,11.06
49.835865,3.238687,31.29,-1.58,-0.76,10.47
49.835865,3.238687,31.29,-1.54,-0.23,7.63
49.836133,3.238553,31.34,-0.77,1.59,8.96
49.836133,3.238553,31.34,-1.83,-0.91,9.61
49.836398,3.238419,31.35,-2.17,0.08,10.54
49.836398,3.238419,31.35,-2.16,-0.56,9.08
49.836667,3.238289,31.37,-1.48,0.23,9.7
49.836667,3.238289,31.37,-1.96,-0.91,9.19
49.836941,3.238165,31.36,-1.55,-0.09,10.24
49.836941,3.238165,31.36,-1.43,-0.22,8.74
49.837211,3.23804,31.43,-1.03,-0.78,9.33
49.837211,3.23804,31.43,-0.62,-0.12,9.31
49.837482,3.237915,31.47,-2.05,-0.86,9.56
49.837482,3.237915,31.47,-2.69,0.02,10.97
49.837754,3.237792,31.5,-2.15,0.42,11.21
49.837754,3.237792,31.5,-3.17,0.38,11.29
49.838029,3.237673,31.45,-2.34,0.49,10.26
49.838029,3.237673,31.45,-2.34,-0.1,9.91
49.8383,3.237554,31.4,-0.97,1.49,8.95
49.8383,3.237554,31.4,-1.55,1.0,9.24
49.838574,3.237437,31.41,-2.7,-1.06,9.31
49.838574,3.237437,31.41,-1.98,-0.3,10.02
49.838848,3.237325,31.4,-1.74,-1.02,8.97
49.838848,3.237325,31.4,-1.52,-0.94,7.93
49.839123,3.237217,31.43,-0.49,-0.83,8.85
49.839123,3.237217,31.43,-1.08,0.05,10.4
49.839397,3.237109,31.5,-0.55,0.41,8.38
49.839397,3.237109,31.5,-0.94,0.98,9.78
49.839672,3.237,31.52,-1.86,-0.05,10.62
49.839953,3.236899,31.54,-1.14,1.54,9.55
49.839953,3.236899,31.54,-3.17,-0.6,9.66
49.840234,3.236797,31.6,-1.78,0.1,8.12
49.840234,3.236797,31.6,-1.91,-0.91,8.12
49.840515,3.236698,31.69,-0.58,-0.61,9.29
49.840515,3.236698,31.69,-1.76,-0.41,9.03
49.840797,3.236601,31.81,-1.44,-0.9,9.23
49.840797,3.236601,31.81,-2.38,-0.04,10.09
49.841078,3.236507,31.91,-2.56,-0.28,10.12
49.841078,3.236507,31.91,-2.48,-0.28,9.08
49.841362,3.236417,32.01,-1.47,-0.2,9.57
49.841362,3.236417,32.01,-2.63,-0.39,10.24
49.841646,3.23633,32.15,-1.14,1.03,10.24
49.841646,3.23633,32.15,-1.02,0.45,8.55
49.841924,3.236241,32.23,-0.26,0.96,10.65
49.841924,3.236241,32.23,-1.4,1.15,9.27
49.842203,3.236154,32.17,-1.29,0.98,11.19
49.842203,3.236154,32.17,-2.01,-0.29,9.17
49.842488,3.236074,32.22,-2.29,0.19,10.75
49.842488,3.236074,32.22,-1.65,-0.23,10.26
49.842772,3.235996,32.28,-1.62,-0.22,9.27
49.842772,3.235996,32.28,-1.57,0.35,8.97
49.843059,3.235925,32.49,-0.78,0.01,10.13
49.843059,3.235925,32.49,-2.38,0.23,9.9
49.843348,3.235852,32.57,-1.61,0.07,8.11
49.843348,3.235852,32.57,-1.04,-0.28,9.1
49.843634,3.235775,32.73,-0.6,0.75,9.97
49.843634,3.235775,32.73,-2.23,-1.18,9.89
49.843931,3.235698,32.93,-1.2,-0.1,8.42
49.843931,3.235698,32.93,-0.53,0.83,11.39
49.844226,3.23562,32.94,-0.85,-0.08,10.29
49.844226,3.23562,32.94,-1.45,0.03,9.82
49.844521,3.235557,32.3,-0.73,-0.26,10.73
49.844521,3.235557,32.3,-1.22,-0.27,10.87
49.84481,3.235492,31.96,-1.24,0.0,10.84
49.84481,3.235492,31.96,-1.31,0.13,10.09
49.845096,3.235428,31.56,-1.92,-0.89,9.91
49.845096,3.235428,31.56,-2.26,-1.06,10.49
49.845377,3.235365,31.39,-0.52,0.29,10.11
49.845377,3.235365,31.39,-1.48,0.46,9.96
49.845654,3.235295,31.45,-1.74,-0.27,9.78
49.845654,3.235295,31.45,-1.31,-0.41,10.1
49.845945,3.235231,31.45,-1.78,-0.23,8.81
49.846229,3.235171,31.6,-1.11,0.62,9.23
49.846229,3.235171,31.6,-2.35,-0.81,7.92
49.846511,3.235115,31.87,-1.15,0.31,10.44
49.846511,3.235115,31.87,-1.71,1.18,9.94
49.846795,3.235058,32.02,-1.31,0.24,9.92
49.846795,3.235058,32.02,-1.79,0.69,9.92
49.847085,3.235005,32.08,-1.79,-0.1,9.98
49.847085,3.235005,32.08,-1.22,0.43,10.13
49.847375,3.234964,32.39,-1.79,-0.15,10.86
49.847375,3.234964,32.39,-1.81,-1.35,8.71
49.847667,3.234925,32.51,-1.23,0.19,9.27
49.847667,3.234925,32.51,-1.66,-0.29,9.7
49.847959,3.234888,32.59,-1.24,-0.31,10.32
49.847959,3.234888,32.59,-1.12,0.71,10.85
49.848249,3.234851,32.63,-1.94,-0.8,10.24
49.848249,3.234851,32.63,-1.89,-0.43,9.06
49.848537,3.234818,32.0,-0.62,-0.37,10.04
49.848537,3.234818,32.0,-1.48,-0.43,8.38
49.848821,3.234787,31.37,-0.84,-0.95,9.0
49.848821,3.234787,31.37,-0.17,-0.3,10.65
49.849098,3.234761,30.93,-1.38,-0.02,9.44
49.849098,3.234761,30.93,-2.1,-0.45,8.72
49.849372,3.234735,30.48,-1.23,0.42,10.5
49.849372,3.234735,30.48,-2.08,-0.3,9.39
49.849644,3.234712,30.39,-2.04,-0.56,9.92
49.849644,3.234712,30.39,-0.73,0.44,8.94
49.849914,3.234695,30.32,-2.17,-1.08,10.37
49.849914,3.234695,30.32,-0.88,0.79,10.24
49.850187,3.234674,30.37,-1.82,-1.31,9.62
49.850187,3.234674,30.37,-1.64,-0.5,10.72
49.850467,3.23466,30.53,-1.94,0.26,9.05
49.850467,3.23466,30.53,-2.63,-1.61,10.03
49.850745,3.234645,30.69,-1.46,-0.34,10.26
49.850745,3.234645,30.69,-2.53,0.39,9.52
49.851018,3.23462,30.96,-0.97,-0.71,9.98
49.851018,3.23462,30.96,-2.87,-0.22,10.12
49.851293,3.23459,31.22,-1.52,0.41,10.37
49.851293,3.23459,31.22,-0.85,0.53,9.36
49.851575,3.234563,31.35,-1.45,1.38,10.07
49.851575,3.234563,31.35,-2.15,0.26,7.45
49.851857,3.234546,31.77,-1.45,0.22,8.99
49.852145,3.234537,31.95,-1.93,1.07,9.72
49.852145,3.234537,31.95,-1.99,0.12,10.01
49.852436,3.234532,32.26,-1.66,-0.14,10.72
49.852436,3.234532,32.26,-1.64,0.22,10.32
49.852727,3.234533,32.43,-1.62,0.23,10.44
49.852727,3.234533,32.43,-1.01,0.93,9.4
49.853022,3.234542,32.5,-1.36,0.69,9.91
49.853022,3.234542,32.5,-2.34,-0.29,8.19
49.853315,3.234555,32.79,-1.62,0.12,8.84
49.853315,3.234555,32.79,-1.67,0.81,10.25
49.85361,3.234578,32.86,-0.96,0.72,9.28
49.85361,3.234578,32.86,-1.79,-0.61,10.41
49.853898,3.234603,33.04,-1.45,0.34,11.79
49.853898,3.234603,33.04,-1.53,-0.64,10.57
49.854196,3.234634,33.14,-1.62,-0.31,8.66
49.854196,3.234634,33.14,-1.48,-0.53,9.34
49.854493,3.23466,33.11,-1.39,0.68,10.19
49.854493,3.23466,33.11,-2.68,0.23,10.81
49.854788,3.234684,33.09,-2.22,-0.79,10.14
49.854788,3.234684,33.09,-1.41,-0.18,9.41
49.855086,3.234711,33.23,-0.11,-0.01,9.85
49.855086,3.234711,33.23,-1.02,0.43,10.18
49.855384,3.234742,33.21,-2.18,0.55,9.91
49.855384,3.234742,33.21,-1.49,0.33,9.2
49.855683,3.234773,33.24,-1.41,0.56,10.66
49.855683,3.234773,33.24,-1.54,-0.27,9.19
49.855983,3.234809,33.39,-1.67,0.02,8.71
49.855983,3.234809,33.39,-2.39,-0.72,9.7
49.856282,3.234848,33.54,-1.81,0.94,10.88
49.856282,3.234848,33.54,-2.72,-0.34,10.08
49.856583,3.234891,33.63,-1.08,-0.29,9.66
49.856583,3.234891,33.63,-1.47,-0.24,10.76
49.856884,3.234937,33.62,-0.95,1.7,10.59
49.856884,3.234937,33.62,-1.82,-0.83,10.5
49.857188,3.234989,33.72,-1.21,0.35,10.74
49.857188,3.234989,33.72,-2.05,-0.35,9.07
49.85749,3.235043,33.77,-1.94,0.44,9.63
49.85749,3.235043,33.77,-1.03,-0.69,9.32
49.857791,3.235098,33.81,-1.62,0.32,11.3
49.857791,3.235098,33.81,-0.21,0.58,10.75
49.858095,3.235159,33.94,-1.61,-0.54,7.97
49.858397,3.23522,33.98,-2.11,-0.99,9.84
49.858397,3.23522,33.98,-1.13,0.22,9.66
49.8587,3.235283,34.14,-1.87,-0.02,9.62
49.8587,3.235283,34.14,-0.9,0.92,9.74
49.859003,3.23535,34.11,-2.57,-0.29,10.6
49.859003,3.23535,34.11,-1.57,0.2,9.65
49.859306,3.235423,34.17,-3.05,-0.21,7.71
49.859306,3.235423,34.17,-1.55,0.58,11.31
49.859607,3.235499,34.29,-1.46,0.15,10.69
49.859607,3.235499,34.29,-0.33,-0.01,9.17
49.859912,3.23558,34.42,-1.65,-0.53,9.83
49.859912,3.23558,34.42,-2.76,0.06,10.21
49.860218,3.23566,34.54,-2.53,0.39,9.83
49.860218,3.23566,34.54,-0.87,-0.06,10.86
49.860523,3.235744,34.41,-1.42,-0.21,9.24
49.860523,3.235744,34.41,-0.67,-0.44,9.11
49.860826,3.235834,34.15,-0.84,0.1,10.62
49.860826,3.235834,34.15,-0.45,-0.88,9.74
49.861126,3.235929,33.75,-1.52,-0.65,9.84
49.861126,3.235929,33.75,-1.27,-0.07,9.13
49.861422,3.236024,33.31,-1.2,0.2,9.67
49.861422,3.236024,33.31,-0.81,0.07,8.71
49.861712,3.236118,33.08,-1.34,-0.81,12.14
49.861712,3.236118,33.08,-2.55,-1.13,10.59
49.862003,3.236217,33.07,-0.78,1.24,11.0
49.862003,3.236217,33.07,-2.02,-0.56,9.5
49.862293,3.236319,33.1,-2.16,-0.64,9.14
49.862293,3.236319,33.1,-1.13,-0.22,10.3
49.862584,3.236426,33.2,-1.72,0.07,9.32
49.862584,3.236426,33.2,-0.61,0.58,9.17
49.862874,3.236539,33.19,-1.62,-0.13,10.51
49.862874,3.236539,33.19,-1.1,0.0,10.18
49.863163,3.236657,33.18,-1.63,-0.1,9.94
49.863163,3.236657,33.18,-1.06,0.05,9.26
49.863452,3.236768,33.25,-2.17,-0.41,10.16
49.863452,3.236768,33.25,0.08,0.87,9.37
49.863743,3.236892,33.52,-2.54,-0.8,9.74
49.863743,3.236892,33.52,-2.26,0.51,10.69
49.864034,3.237023,33.64,-2.25,-0.68,8.76
49.864034,3.237023,33.64,-1.03,0.41,9.27
49.864327,3.23716,33.82,-1.73,-0.08,9.92
49.86462,3.237298,33.86,-1.64,0.34,9.4
49.86462,3.237298,33.86,-1.25,0.41,9.53
49.864912,3.237438,33.92,-2.74,-1.17,9.33
49.864912,3.237438,33.92,-2.25,-1.06,10.45
49.865204,3.237584,34.01,-0.95,0.87,9.68
49.865204,3.237584,34.01,-2.18,-0.43,9.05
49.865495,3.237733,34.13,-3.39,-0.37,10.81
49.865495,3.237733,34.13,-0.63,0.15,9.49
49.865787,3.237889,34.16,-2.6,-0.36,9.26
49.865787,3.237889,34.16,-0.8,1.1,10.38
49.866077,3.238048,34.28,-1.47,0.55,10.04
49.866077,3.238048,34.28,-1.44,0.42,9.36
49.866368,3.238216,34.42,-0.45,-0.5,9.98
49.866368,3.238216,34.42,-1.99,0.87,9.02
49.866661,3.238392,34.51,-0.8,-0.35,10.34
49.866661,3.238392,34.51,-0.83,0.83,10.69
49.866946,3.238558,34.02,-1.31,-0.11,9.47
49.866946,3.238558,34.02,-0.4,0.62,9.07
49.867226,3.238725,33.61,-0.51,-0.13,9.01
49.867226,3.238725,33.61,-2.07,-0.16,9.96
49.867502,3.238894,33.49,-1.83,0.09,10.01
49.867502,3.238894,33.49,-1.32,-0.25,9.39
49.867778,3.23907,33.48,-0.83,0.04,10.35
49.867778,3.23907,33.48,-2.73,-0.73,9.56
49.868055,3.239247,33.39,-2.38,0.45,10.0
49.868055,3.239247,33.39,-2.39,-1.15,10.21
49.868332,3.23943,33.39,0.08,0.21,9.7
49.868332,3.23943,33.39,-1.05,0.94,10.13
49.868609,3.239617,33.25,-1.0,-0.1,7.73
49.868609,3.239617,33.25,-1.1,1.6,10.34
49.868882,3.239805,33.15,-1.58,-0.26,10.58
49.868882,3.239805,33.15,-0.39,0.64,10.16
49.869143,3.239993,33.35,-1.57,-0.43,10.0
49.869143,3.239993,33.35,-2.69,-0.61,9.88
49.869415,3.24019,33.18,-1.35,0.96,10.97
49.869415,3.24019,33.18,-2.64,-0.85,8.92
49.869684,3.24039,33.2,-2.27,0.27,9.96
49.869684,3.24039,33.2,-1.46,0.25,8.9
49.869951,3.240593,33.18,-1.8,-0.38,9.62
49.869951,3.240593,33.18,-1.01,0.58,9.51
49.870219,3.240797,33.18,-2.76,0.26,10.68
49.870486,3.24101,33.16,-0.52,0.9,8.03
49.870486,3.24101,33.16,-1.49,0.64,10.0
49.870752,3.241226,33.14,-2.56,-0.66,10.85
49.870752,3.241226,33.14,-0.96,0.91,10.62
49.871017,3.241438,33.01,-2.1,-0.11,9.43
49.871017,3.241438,33.01,-2.73,-0.84,9.14
49.871279,3.241656,32.99,-0.61,1.69,11.11
49.871279,3.241656,32.99,0.01,0.47,9.53
49.871538,3.241873,32.79,-2.41,-0.78,9.64
49.871538,3.241873,32.79,-1.11,0.38,9.56
49.871794,3.242097,32.66,-1.13,0.39,10.13
49.871794,3.242097,32.66,-1.86,-0.25,9.78
49.872051,3.242325,32.67,-1.94,-0.59,9.33
49.872051,3.242325,32.67,-1.83,-0.16,10.22
49.872304,3.242554,32.57,-1.15,1.04,10.1
49.872304,3.242554,32.57,-0.43,0.16,9.82
49.872556,3.242786,32.51,-2.66,-1.2,9.4
49.872556,3.242786,32.51,-1.81,0.47,10.79
49.872808,3.24302,32.43,-1.09,0.93,10.05
49.872808,3.24302,32.43,-1.84,0.14,8.27
49.873056,3.243257,32.48,-0.98,1.18,10.78
49.873056,3.243257,32.48,-2.4,-0.04,10.85
49.873304,3.243497,32.54,-2.22,0.86,8.03
49.873304,3.243497,32.54,-1.58,-0.64,9.4
49.873552,3.243741,32.58,-0.51,0.88,9.84
49.873552,3.243741,32.58,-1.67,-0.12,10.71
49.873798,3.243991,32.59,-2.2,-1.6,10.69
49.873798,3.243991,32.59,-1.43,0.24,9.67
49.874041,3.244245,32.67,-2.04,-0.11,10.56
49.874041,3.244245,32.67,-1.67,-0.13,8.16
49.874282,3.244497,32.73,-1.39,-0.7,9.24
49.874282,3.244497,32.73,-1.58,0.37,10.54
49.874521,3.244749,32.59,-1.96,-0.41,9.96
49.874521,3.244749,32.59,-2.29,-0.9,10.4
49.874759,3.245005,32.53,-2.42,0.75,9.54
49.874759,3.245005,32.53,-0.94,0.53,9.0
49.874998,3.245262,32.58,-0.25,0.1,10.08
49.874998,3.245262,32.58,0.28,0.31,9.15
49.875238,3.245517,32.12,-2.29,-1.5,9.64
49.875479,3.245772,32.02,-1.94,-0.23,10.56
49.875479,3.245772,32.02,-2.02,-0.57,10.41
49.875719,3.246019,32.18,-2.15,-0.16,11.03
49.875719,3.246019,32.18,-2.51,-1.19,9.52
49.87596,3.246265,32.34,-2.39,0.39,10.59
49.87596,3.246265,32.34,-1.24,0.68,8.94
49.876203,3.246518,32.61,-0.92,0.45,9.58
49.876203,3.246518,32.61,-1.92,-0.01,10.69
49.876442,3.246781,32.86,-2.16,-1.14,9.48
49.876442,3.246781,32.86,-1.81,-0.43,9.39
49.876679,3.247051,33.08,-1.37,-0.63,9.94
49.876679,3.247051,33.08,-0.91,0.49,9.94
49.876916,3.247324,33.33,-0.31,1.29,10.21
49.876916,3.247324,33.33,-0.98,1.13,9.56
49.877168,3.247594,33.61,-2.72,-0.83,9.64
49.877168,3.247594,33.61,-1.62,1.01,10.12
49.877416,3.247867,33.8,-2.46,-0.41,9.52
49.877416,3.247867,33.8,-1.14,-0.9,10.74
49.877664,3.248145,33.87,-1.1,-0.87,9.07
49.877664,3.248145,33.87,-0.87,0.16,10.31
49.877908,3.248423,33.32,-1.5,-0.63,10.49
49.877908,3.248423,33.32,-0.97,0.58,10.22
49.878147,3.248697,33.16,-2.24,-1.56,10.32
49.878147,3.248697,33.16,-0.67,-0.85,9.35
49.878387,3.248968,33.13,-2.55,-2.11,10.31
49.878387,3.248968,33.13,-1.93,-1.61,10.8
49.878635,3.249227,33.28,-1.07,0.92,10.05
49.878635,3.249227,33.28,-1.64,-0.55,10.25
49.878883,3.249479,33.3,-0.89,0.2,8.81
49.878883,3.249479,33.3,-2.57,-0.48,10.72
49.879134,3.249732,33.48,-0.97,1.3,11.19
49.879134,3.249732,33.48,-1.2,0.0,10.3
49.879391,3.249989,33.59,-2.49,-0.77,8.71
49.879391,3.249989,33.59,-1.8,-0.27,8.92
49.879646,3.250241,33.62,-2.2,-1.45,9.84
49.879646,3.250241,33.62,-0.28,0.58,10.09
49.879904,3.25049,33.77,-2.82,-1.13,10.93
49.879904,3.25049,33.77,-0.57,1.74,10.03
49.880168,3.25073,33.81,-0.96,0.16,9.47
49.880168,3.25073,33.81,-1.66,0.15,9.89
49.880431,3.250969,33.96,-0.95,0.02,10.23
49.880698,3.251199,33.99,-1.56,-0.38,9.86
49.880698,3.251199,33.99,-0.61,-0.01,10.07
49.880971,3.25142,33.83,-0.11,-0.42,10.87
49.880971,3.25142,33.83,-0.77,0.59,9.95
49.881243,3.251636,33.67,-0.94,-0.19,9.87
49.881243,3.251636,33.67,-2.21,0.1,10.01
49.88152,3.251844,33.49,-1.11,0.16,8.96
49.88152,3.251844,33.49,-1.44,-0.15,9.92
49.88179,3.25204,33.31,-0.8,-0.33,11.19
49.88179,3.25204,33.31,-0.05,0.54,9.78
49.882055,3.252236,33.37,-0.61,0.4,10.09
49.882055,3.252236,33.37,-1.86,0.32,10.46
49.882333,3.252424,33.38,-1.9,0.14,9.93
49.882333,3.252424,33.38,-0.71,-0.36,9.08
49.882606,3.252607,33.58,-1.06,-0.55,10.41
49.882606,3.252607,33.58,-1.4,-0.81,9.92
49.882885,3.252788,33.65,-0.94,0.22,8.94
49.882885,3.252788,33.65,-1.79,-0.3,10.07
49.883165,3.252961,33.73,-0.19,0.29,9.04
49.883165,3.252961,33.73,-1.81,-0.97,9.39
49.883453,3.253133,33.82,-1.6,0.18,9.0
49.883453,3.253133,33.82,-0.78,0.64,10.94
49.883741,3.253302,33.98,-2.04,-0.75,9.51
49.883741,3.253302,33.98,-0.45,0.35,8.69
49.88403,3.253462,34.2,-1.65,0.24,9.26
49.88403,3.253462,34.2,-2.46,-1.45,9.58
49.884323,3.253614,34.27,-2.7,-0.65,9.82
49.884323,3.253614,34.27,-0.11,0.53,9.81
49.884619,3.25376,34.4,-0.48,1.01,10.39
49.884619,3.25376,34.4,-0.73,1.12,10.49
49.884916,3.253897,34.36,-2.79,-0.68,10.52
49.884916,3.253897,34.36,-2.38,-0.23,9.84
49.885214,3.254032,34.41,-2.68,-0.28,9.75
49.885214,3.254032,34.41,-1.07,0.37,10.39
49.885517,3.254174,34.63,-0.59,-0.46,9.0
49.885517,3.254174,34.63,-1.09,-0.19,9.51
49.885818,3.254307,34.88,-1.7,-0.81,10.9
49.885818,3.254307,34.88,-0.61,-0.43,10.33
49.886123,3.254425,35.14,-0.63,-0.1,10.38
49.886123,3.254425,35.14,-0.9,-1.17,9.9
49.88643,3.254535,35.29,-0.49,-0.44,9.84
49.886738,3.254636,34.74,-0.67,0.42,10.31
49.886738,3.254636,34.74,-1.29,-0.5,9.35
49.887045,3.254725,34.18,-0.76,0.12,9.42
49.887045,3.254725,34.18,-1.51,0.37,9.17
49.887351,3.254807,34.14,-2.9,-0.57,9.5
49.887351,3.254807,34.14,-2.59,-0.5,10.03
49.887654,3.254889,34.27,-1.42,-0.4,10.31
49.887654,3.254889,34.27,-2.34,0.7,10.3
49.88796,3.25497,34.44,-2.86,-0.44,9.92
49.88796,3.25497,34.44,-0.21,1.78,10.71
49.888267,3.255043,34.55,-0.8,1.1,10.17
49.888267,3.255043,34.55,-0.81,1.33,10.49
49.888573,3.25511,34.7,-2.27,-1.13,9.76
49.888573,3.25511,34.7,-2.85,-1.5,9.7
49.888885,3.255166,34.83,-2.08,-0.16,9.46
49.888885,3.255166,34.83,0.21,0.2,10.12
49.889198,3.255206,34.48,-1.27,0.53,9.98
49.889198,3.255206,34.48,-1.27,-0.75,9.07
49.889508,3.255232,34.28,-0.57,0.49,10.2
49.889508,3.255232,34.28,-0.28,0.46,9.03
49.889812,3.255252,33.96,-0.99,1.51,10.75
49.889812,3.255252,33.96,-1.16,-0.57,9.99
49.890113,3.255271,33.75,-0.85,1.06,10.35
49.890113,3.255271,33.75,-1.15,0.72,9.76
49.890413,3.255292,33.59,-2.25,-0.49,9.4
49.890413,3.255292,33.59,-0.87,0.66,12.18
49.890713,3.255307,33.58,-1.09,0.3,11.02
49.890713,3.255307,33.58,-1.24,-0.84,8.3
49.891012,3.255317,33.51,-1.85,-0.85,8.97
49.891012,3.255317,33.51,-0.83,0.49,10.43
49.89131,3.255323,33.34,-1.25,0.02,9.62
49.89131,3.255323,33.34,-0.3,0.0,8.46
49.891606,3.25532,33.32,-0.53,0.85,9.17
49.891606,3.25532,33.32,-2.14,-0.18,9.83
49.891902,3.255312,33.36,-1.75,0.02,9.53
49.891902,3.255312,33.36,-2.78,-0.77,9.29
49.8922,3.255299,33.45,-1.12,0.49,11.05
49.8922,3.255299,33.45,-2.03,-0.11,9.01
49.892502,3.255281,33.41,-0.92,-0.06,9.08
49.892502,3.255281,33.41,-1.61,-0.44,9.45
49.892802,3.255254,33.29,-1.03,0.99,10.31
49.892802,3.255254,33.29,-3.41,-0.04,9.59
49.893102,3.255224,33.43,-1.49,0.17,7.62
49.893403,3.255193,33.49,-2.38,-0.28,11.3
49.893403,3.255193,33.49,-0.95,0.05,8.19
49.893706,3.255165,33.67,-1.81,0.03,10.25
49.893706,3.255165,33.67,-1.5,0.54,11.58
49.894008,3.25513,33.7,-1.8,-0.75,10.07
49.894008,3.25513,33.7,0.31,0.56,10.86
49.89431,3.255088,33.52,-1.36,-0.33,9.81
49.89431,3.255088,33.52,-0.32,-1.01,8.47
49.894609,3.255031,33.22,-1.16,-0.83,9.54
49.894609,3.255031,33.22,-1.04,0.42,10.16
49.894905,3.254966,33.09,-1.61,0.78,11.3
49.894905,3.254966,33.09,-1.83,-0.23,9.85
49.895203,3.254897,33.1,-1.35,0.01,10.33
49.895203,3.254897,33.1,-0.63,1.45,9.74
49.895498,3.254818,33.0,-1.81,-0.23,9.21
49.895498,3.254818,33.0,-1.6,0.11,11.66
49.89579,3.25473,33.04,-1.66,0.53,11.1
49.89579,3.25473,33.04,-1.86,-0.17,11.04
49.896079,3.254627,33.02,-0.95,1.03,9.82
49.896079,3.254627,33.02,-1.27,-0.7,10.66
49.896368,3.254521,33.03,-1.58,0.49,10.07
49.896368,3.254521,33.03,-1.47,0.84,10.96
49.896657,3.254417,33.05,-1.98,-0.68,10.37
49.896657,3.254417,33.05,-1.81,0.38,9.91
49.896949,3.254308,33.08,-1.35,0.67,8.97
49.896949,3.254308,33.08,-1.94,0.57,11.44
49.897236,3.254195,33.12,-1.71,-0.47,9.01
49.897236,3.254195,33.12,-2.56,0.3,10.1
49.89752,3.254077,33.2,-2.31,-0.6,9.02
49.89752,3.254077,33.2,-1.35,0.35,9.71
49.897804,3.253953,33.24,-2.34,-0.89,9.57
49.897804,3.253953,33.24,-0.16,-0.1,9.49
49.898087,3.253822,33.26,-1.99,-0.1,10.91
49.898087,3.253822,33.26,-1.2,-0.07,8.26
49.89837,3.253684,33.22,-3.62,-0.87,11.36
49.89837,3.253684,33.22,-1.02,0.29,9.27
49.898654,3.253542,33.28,-2.84,-1.14,9.52
49.898654,3.253542,33.28,-0.27,1.24,11.14
49.898934,3.253392,33.4,-1.12,1.05,10.22
49.898934,3.253392,33.4,-2.21,0.07,9.54
49.899207,3.253232,33.44,-1.66,0.13,9.83
49.899486,3.253069,33.51,-1.57,-0.05,10.25
49.899486,3.253069,33.51,-0.11,0.36,9.59
49.899769,3.2529,33.59,-0.53,0.84,9.99
49.899769,3.2529,33.59,-2.18,-0.31,10.97
49.900046,3.252721,33.58,-1.04,0.72,9.21
49.900046,3.252721,33.58,-2.38,0.16,10.26
49.900322,3.252535,33.67,-1.06,0.64,10.26
49.900322,3.252535,33.67,-1.16,-0.31,10.57
49.900601,3.252346,33.76,-1.38,0.81,9.98
49.900601,3.252346,33.76,-1.53,0.31,9.81
49.900881,3.252148,33.94,-1.31,0.75,9.96
49.900881,3.252148,33.94,-2.72,-0.19,10.08
49.901156,3.251947,33.84,-2.48,-0.63,10.27
49.901156,3.251947,33.84,-1.27,-0.11,10.54
49.901431,3.251745,33.9,-2.83,0.39,10.84
49.901431,3.251745,33.9,-1.69,0.76,9.55
49.901706,3.251531,33.9,-2.68,-1.06,10.1
49.901706,3.251531,33.9,-2.17,-0.94,10.0
49.901981,3.251317,34.1,-1.53,0.46,10.1
49.901981,3.251317,34.1,-1.5,-0.22,8.92
49.902255,3.251097,34.29,-2.91,-0.91,9.27
49.902255,3.251097,34.29,-2.44,-0.81,11.1
49.902525,3.25087,34.44,-1.82,-0.34,8.91
49.902525,3.25087,34.44,-0.97,0.11,10.52
49.902797,3.250635,34.64,-1.77,-0.4,11.19
49.902797,3.250635,34.64,-0.54,-1.0,8.56
49.903071,3.250394,34.78,-1.7,-0.14,8.91
49.903071,3.250394,34.78,-0.63,-0.43,10.73
49.903335,3.250144,34.11,-1.44,0.32,10.01
49.903335,3.250144,34.11,-2.03,-0.45,9.73
49.903593,3.249886,33.93,-0.77,-0.24,9.28
49.903593,3.249886,33.93,-1.24,0.03,9.94
49.903849,3.249629,33.91,-1.27,0.15,9.86
49.903849,3.249629,33.91,-0.87,1.02,10.32
49.904101,3.249362,34.04,-0.72,-0.59,10.29
49.904101,3.249362,34.04,-0.71,0.92,10.09
49.904353,3.24909,34.09,-0.44,1.22,11.11
49.904353,3.24909,34.09,-1.55,-0.8,9.85
49.904606,3.248815,34.16,-2.49,-1.87,9.77
49.904606,3.248815,34.16,-0.65,-0.12,8.31
49.904857,3.248536,34.06,-1.13,-0.35,10.75
49.905101,3.248253,33.59,-0.06,-0.27,9.19
49.905101,3.248253,33.59,-1.35,-0.26,9.15
49.90534,3.247969,33.37,-1.25,-0.69,9.39
49.90534,3.247969,33.37,-1.05,-0.73,10.24
49.905572,3.247684,32.86,-0.22,0.79,10.69
49.905572,3.247684,32.86,-1.17,-0.46,10.27
49.905799,3.247401,32.39,-0.21,-0.76,9.24
49.905799,3.247401,32.39,-0.35,-0.79,9.94
49.906024,3.24712,31.97,-1.38,-0.95,10.24
49.906024,3.24712,31.97,-1.19,-0.92,9.53
49.906244,3.246841,31.58,-0.28,-0.52,9.91
49.906244,3.246841,31.58,-1.18,-0.94,9.64
49.906459,3.246567,31.21,-0.61,0.02,10.25
49.906459,3.246567,31.21,-1.59,-0.41,8.59
49.906673,3.246289,31.22,-1.91,-0.51,9.08
49.906673,3.246289,31.22,-2.21,-1.51,10.73
49.906885,3.246,31.34,-2.2,0.02,9.87
49.906885,3.246,31.34,-2.02,-0.28,10.07
49.907096,3.245705,31.7,-1.02,0.55,10.59
49.907096,3.245705,31.7,-2.1,0.29,10.4
49.90731,3.245411,32.1,-2.5,-0.18,9.82
49.90731,3.245411,32.1,-2.44,-0.79,10.51
49.907529,3.245119,32.51,-1.8,0.27,9.84
49.907529,3.245119,32.51,-0.89,0.42,10.14
49.907753,3.244824,32.95,-0.65,0.15,9.86
49.907753,3.244824,32.95,-0.9,0.86,8.5
49.907981,3.244528,33.24,-1.46,-0.51,10.29
49.907981,3.244528,33.24,-1.61,-0.05,8.17
49.908214,3.244228,33.69,-1.71,-0.19,9.9
49.908214,3.244228,33.69,-0.63,0.9,9.51
49.908453,3.243929,34.14,-0.25,-0.58,9.75
49.908453,3.243929,34.14,-0.1,0.04,9.25
49.908694,3.243628,33.79,-1.3,0.82,9.64
49.908694,3.243628,33.79,-1.28,-0.03,9.65
49.908934,3.243338,33.53,-1.6,-0.48,10.52
49.908934,3.243338,33.53,-1.22,0.01,9.89
49.90917,3.243054,33.15,-0.69,0.08,9.43
49.90917,3.243054,33.15,-0.31,0.06,10.86
49.909405,3.242774,32.96,-0.58,-0.74,10.33
49.909405,3.242774,32.96,-1.19,0.32,10.44
49.90964,3.242497,32.77,-1.82,-0.56,9.98
49.90964,3.242497,32.77,-0.7,-0.12,11.1
49.909875,3.242223,32.59,-0.44,-0.44,10.93
49.910108,3.241949,32.44,0.18,-0.07,9.77
49.910108,3.241949,32.44,-1.85,-0.97,10.1
49.910337,3.241673,32.11,-1.93,-0.45,9.5
49.910337,3.241673,32.11,-0.54,-0.39,10.02
49.910563,3.241402,31.95,-1.3,-0.89,10.97
49.910563,3.241402,31.95,-1.07,-0.26,8.86
49.91079,3.241135,31.54,-0.93,0.14,10.48
49.91079,3.241135,31.54,-0.39,-0.89,11.2
49.911009,3.240869,31.07,-1.2,0.23,9.42
49.911009,3.240869,31.07,-1.35,-0.91,10.03
49.911229,3.240608,30.89,-1.3,0.22,9.79
49.911229,3.240608,30.89,-1.54,-0.54,8.67
49.911455,3.240348,31.22,-1.17,0.47,9.43
49.911455,3.240348,31.22,-1.61,0.32,9.85
49.911676,3.240088,31.48,-1.35,0.88,9.43
49.911676,3.240088,31.48,-1.19,0.45,9.54
49.9119,3.239827,31.92,-1.58,-0.29,9.27
49.9119,3.239827,31.92,-1.53,-0.38,9.39
49.912129,3.239563,32.27,-0.76,-0.4,11.17
49.912129,3.239563,32.27,-1.33,0.62,10.32
49.912362,3.23929,32.6,-2.72,-0.84,10.58
49.912362,3.23929,32.6,-0.98,0.5,9.86
49.912601,3.239021,32.83,-1.4,0.47,9.87
49.912601,3.239021,32.83,-2.9,-0.45,10.82
49.912844,3.238748,33.11,-0.1,0.67,10.18
49.912844,3.238748,33.11,-2.05,-0.35,11.16
49.913086,3.238476,33.31,-1.28,0.68,9.72
49.913086,3.238476,33.31,-1.22,0.61,9.37
49.913328,3.238205,33.27,-1.63,-0.53,9.19
49.913328,3.238205,33.27,-1.24,0.02,9.82
49.913569,3.237936,32.78,-1.15,-0.53,9.69
49.913569,3.237936,32.78,-1.17,-0.25,10.19
49.913806,3.23767,32.52,-1.43,-0.47,8.79
49.913806,3.23767,32.52,-0.78,0.15,9.51
49.914043,3.237407,32.48,-1.37,0.44,10.05
49.914043,3.237407,32.48,-2.71,-1.13,10.22
49.914281,3.237148,32.62,-1.81,-0.61,9.74
49.914281,3.237148,32.62,-1.99,0.27,9.43
49.914522,3.236891,32.61,-1.94,-0.84,9.47
49.914522,3.236891,32.61,-2.14,-0.41,8.78
49.914769,3.236629,32.75,-1.81,-0.65,9.26
49.915015,3.236367,32.85,-1.04,0.7,10.53
49.915015,3.236367,32.85,-1.02,0.7,9.69
49.915253,3.236114,32.75,-1.3,-0.03,9.33
49.915253,3.236114,32.75,-0.72,0.63,9.89
49.915495,3.235858,32.74,-1.89,-0.88,9.65
49.915495,3.235858,32.74,-1.37,-0.16,9.3
49.915737,3.235604,32.65,-1.77,-1.53,10.05
49.915737,3.235604,32.65,-2.14,-1.02,10.93
49.915981,3.23535,32.62,-1.1,-0.24,9.93
49.915981,3.23535,32.62,-1.7,-0.81,9.4
49.916227,3.235093,32.6,-1.28,0.42,10.66
49.916227,3.235093,32.6,-1.59,0.39,11.03
49.916469,3.234835,32.6,-1.04,0.25,8.93
49.916469,3.234835,32.6,-1.51,0.46,10.35
49.916705,3.234577,32.34,-2.57,-1.26,10.93
49.916705,3.234577,32.34,-1.99,-0.76,9.51
49.916944,3.234326,32.3,-2.4,0.76,10.84
49.916944,3.234326,32.3,-0.99,1.2,10.41
49.917186,3.234078,32.15,-2.19,1.12,9.71
49.917186,3.234078,32.15,-2.24,-0.99,9.12
49.917425,3.233834,32.13,-0.85,0.38,8.77
49.917425,3.233834,32.13,-1.48,0.22,9.62
49.917668,3.233597,32.11,-0.91,-0.36,9.01
49.917668,3.233597,32.11,-1.17,0.19,10.14
49.917911,3.233362,32.03,-1.31,1.5,11.98
49.917911,3.233362,32.03,-1.8,-0.13,9.18
49.918161,3.233135,31.92,-1.47,0.22,9.32
49.918161,3.233135,31.92,-1.29,0.41,9.99
49.918406,3.232907,31.64,-1.23,1.08,10.27
49.918406,3.232907,31.64,-1.3,-0.01,8.13
49.91865,3.232679,31.66,-0.76,0.31,9.83
49.91865,3.232679,31.66,-1.14,0.77,10.39
49.918893,3.232453,31.65,-1.26,-0.05,9.85
49.918893,3.232453,31.65,-1.46,1.02,9.04
49.919137,3.23223,31.6,-1.42,0.57,8.27
49.919137,3.23223,31.6,-1.82,-0.34,7.59
49.919386,3.232015,31.59,-2.01,-0.77,11.54
49.919386,3.232015,31.59,-1.73,-0.1,10.3
49.919634,3.231802,31.52,-2.05,-0.52,11.02
49.919634,3.231802,31.52,-2.23,-0.49,9.4
49.919881,3.231589,31.51,-1.75,0.23,10.58
49.920128,3.231372,31.53,-2.27,-1.37,10.13
49.920128,3.231372,31.53,-1.31,-0.47,10.51
49.920375,3.231157,31.55,-1.52,-0.58,9.84
49.920375,3.231157,31.55,-2.21,-0.64,9.42
49.920627,3.230939,31.64,-1.79,-0.02,9.84
49.920627,3.230939,31.64,-1.64,-0.21,9.91
49.920877,3.230718,31.59,-2.58,-0.98,9.65
49.920877,3.230718,31.59,-2.29,-0.23,10.72
49.921127,3.230502,31.66,-3.48,-0.44,11.99
49.921127,3.230502,31.66,-2.46,-0.69,9.86
49.921379,3.23029,31.69,-2.52,-0.53,8.77
49.921379,3.23029,31.69,-2.41,-1.62,10.38
49.921627,3.230071,31.81,-1.8,0.55,10.17
49.921627,3.230071,31.81,-2.55,-0.22,10.3
49.921872,3.229849,31.83,-2.48,-1.22,10.73
49.921872,3.229849,31.83,-1.43,0.71,10.24
49.922121,3.229631,31.84,-2.38,-0.35,10.01
49.922121,3.229631,31.84,-3.19,-0.77,9.65
49.922374,3.229416,31.94,-2.06,0.5,10.82
49.922374,3.229416,31.94,-2.68,-1.85,10.15
49.922631,3.229208,31.98,-2.33,-0.45,9.45
49.922631,3.229208,31.98,-1.87,-0.09,10.11
49.922883,3.22899,32.12,-2.0,0.19,8.63
49.922883,3.22899,32.12,-1.69,-0.46,8.86
49.923141,3.228781,32.17,-1.65,0.3,10.48
49.923141,3.228781,32.17,-0.95,0.55,9.4
49.923397,3.228577,32.25,-1.02,0.0,9.48
49.923397,3.228577,32.25,-1.99,0.9,9.32
49.923649,3.228368,32.36,-2.19,-0.88,9.74
49.923649,3.228368,32.36,-1.73,0.13,8.39
49.92391,3.228163,32.49,-1.39,0.19,9.73
49.92391,3.228163,32.49,-0.38,1.07,9.52
49.92417,3.227948,32.62,-2.54,-0.71,10.55
49.92417,3.227948,32.62,-1.36,-0.02,8.81
49.924428,3.227734,32.75,-1.44,0.11,9.18
49.924428,3.227734,32.75,-1.96,0.79,10.67
49.924686,3.227516,32.84,-1.51,0.74,9.44
49.924686,3.227516,32.84,-2.27,-0.57,8.46
49.924955,3.227306,33.0,-2.58,-1.04,9.22
49.924955,3.227306,33.0,-1.13,0.1,8.37
49.925219,3.227098,33.04,-0.98,0.75,10.98
49.925219,3.227098,33.04,-1.46,0.41,9.01
49.925479,3.226888,33.35,-3.17,-1.14,9.82
49.925479,3.226888,33.35,-3.16,-1.44,10.42
49.92575,3.22668,33.51,-2.2,-0.39,9.39
49.92602,3.226475,33.63,-1.27,-0.18,9.01
49.92602,3.226475,33.63,-1.17,0.91,11.25
49.926289,3.226267,33.79,-0.15,0.17,9.48
49.926289,3.226267,33.79,-2.23,-0.68,9.56
49.926558,3.226059,33.77,-1.61,-0.53,9.17
49.926558,3.226059,33.77,-1.88,-0.12,9.84
49.926833,3.225851,34.03,-1.22,1.25,10.61
49.926833,3.225851,34.03,-1.73,-0.07,9.86
49.927101,3.22565,34.12,-0.93,-0.06,9.03
49.927101,3.22565,34.12,-1.19,-0.41,9.36
49.927383,3.225446,34.04,-0.89,0.77,10.14
49.927383,3.225446,34.04,-1.06,0.11,11.26
49.927664,3.225239,33.8,-0.71,0.93,7.81
49.927664,3.225239,33.8,-1.05,-0.35,8.95
49.927941,3.225039,33.85,-2.59,-0.72,10.34
49.927941,3.225039,33.85,-1.66,-0.79,9.51
49.928218,3.224833,33.89,-1.23,-0.29,9.59
49.928218,3.224833,33.89,-1.94,-0.79,9.85
49.928502,3.224635,34.09,-1.58,1.1,11.95
49.928502,3.224635,34.09,-1.02,-0.49,8.47
49.928778,3.224436,34.25,-1.4,0.03,9.6
49.928778,3.224436,34.25,-2.77,-1.23,9.99
49.92905,3.224225,34.34,-3.15,-0.28,10.01
49.92905,3.224225,34.34,-1.31,-0.75,9.87
49.929322,3.224013,34.41,-0.3,-0.75,8.84
49.929322,3.224013,34.41,-1.8,0.35,10.1
49.929595,3.223792,34.5,-1.78,0.07,7.96
49.929595,3.223792,34.5,-0.19,0.32,9.13
49.929868,3.223565,34.54,-0.08,0.75,11.7
49.929868,3.223565,34.54,-0.66,1.11,10.44
49.930132,3.223337,33.85,-0.82,-0.38,10.75
49.930132,3.223337,33.85,-1.17,-0.98,8.03
49.930399,3.223114,33.74,-2.59,-1.87,9.88
49.930399,3.223114,33.74,-1.28,-0.62,9.54
49.930664,3.222888,33.6,-2.62,-1.02,9.9
49.930664,3.222888,33.6,-0.82,-0.23,10.65
49.930929,3.222662,33.59,-3.29,-1.83,9.24
49.930929,3.222662,33.59,-2.08,0.03,9.58
49.931192,3.222435,33.56,-2.83,-1.16,10.18
49.931192,3.222435,33.56,-2.1,-1.1,9.89
49.931453,3.222205,33.56,-2.71,-2.15,8.85
49.931453,3.222205,33.56,-1.99,-0.97,10.19
49.931717,3.221974,33.72,-2.45,-1.69,11.68
49.931981,3.221735,33.72,-0.51,-1.07,8.77
49.931981,3.221735,33.72,-2.22,-1.09,9.96
49.932248,3.221486,33.79,-1.73,-0.09,9.49
49.932248,3.221486,33.79,-0.52,-0.05,8.1
49.932512,3.221235,33.91,-2.73,-1.34,10.36
49.932512,3.221235,33.91,-0.58,0.25,10.92
49.932773,3.220985,33.99,-1.38,-0.07,9.74
49.932773,3.220985,33.99,-2.47,-1.04,8.51
49.933025,3.220743,34.07,-1.6,0.33,10.02
49.933025,3.220743,34.07,-0.37,0.1,8.92
49.933283,3.220498,34.18,-3.06,-0.36,9.05
49.933283,3.220498,34.18,0.49,1.05,9.69
49.933545,3.220251,33.78,-0.77,-0.21,9.3
49.933545,3.220251,33.78,-0.47,1.27,9.71
49.933796,3.220003,33.31,-1.61,-0.38,9.77
49.933796,3.220003,33.31,-2.01,-1.19,10.23
49.93405,3.219761,33.14,-2.34,-0.41,10.37
49.93405,3.219761,33.14,-0.72,0.07,10.41
49.934297,3.219514,33.03,-2.33,-1.07,9.55
49.934297,3.219514,33.03,-1.49,-0.31,10.74
49.93454,3.219258,33.03,-0.76,0.51,11.58
49.93454,3.219258,33.03,-2.25,-0.77,9.62
49.934789,3.219009,32.96,-1.18,-0.3,8.78
49.934789,3.219009,32.96,-1.59,-0.63,9.52
49.935038,3.218764,32.78,-2.12,-0.63,10.17
49.935038,3.218764,32.78,-1.2,0.63,11.24
49.935288,3.218522,32.76,-1.37,1.1,10.34
49.935288,3.218522,32.76,-0.87,1.1,10.48
49.935537,3.218284,32.75,-2.52,-0.33,9.76
49.935537,3.218284,32.75,-1.2,0.03,10.07
49.935787,3.218038,32.63,-1.13,-0.57,9.76
49.935787,3.218038,32.63,-2.23,-0.31,9.09
49.936037,3.217799,32.73,-2.07,0.23,8.82
49.936037,3.217799,32.73,-1.37,1.39,9.68
49.936298,3.217571,32.73,-1.3,0.04,9.64
49.936298,3.217571,32.73,-1.89,-0.63,9.11
49.93655,3.217333,32.91,-1.81,0.31,10.53
49.93655,3.217333,32.91,-1.24,0.82,9.86
49.936802,3.217093,32.98,-2.42,0.93,6.88
49.937054,3.216851,33.0,-1.26,0.67,10.44
49.937054,3.216851,33.0,-1.37,-0.65,10.5
49.937307,3.216615,33.12,-2.15,-0.41,9.9
49.937307,3.216615,33.12,-1.7,-0.38,11.3
49.937561,3.216377,33.17,-2.26,-0.42,9.66
49.937561,3.216377,33.17,-1.28,0.17,8.98
49.93782,3.216145,33.27,-1.76,-0.45,8.79
49.93782,3.216145,33.27,-1.68,0.05,9.76
49.938073,3.215908,33.28,-1.89,-0.98,9.3
49.938073,3.215908,33.28,-2.36,-1.24,9.18
49.938328,3.215672,33.28,-0.91,0.41,9.65
49.938328,3.215672,33.28,-1.51,0.73,10.67
49.938587,3.215441,33.41,-1.74,-0.07,9.85
49.938587,3.215441,33.41,-1.82,-0.37,10.88
49.938852,3.215214,33.47,-1.02,0.38,9.36
49.938852,3.215214,33.47,-1.78,0.56,10.66
49.939115,3.214983,33.55,-1.33,1.1,10.02
49.939115,3.214983,33.55,-1.3,0.76,10.0
49.939377,3.214754,33.6,-2.31,0.16,10.98
49.939377,3.214754,33.6,-1.52,1.49,9.38
49.939641,3.214525,33.77,-2.21,-0.57,10.09
49.939641,3.214525,33.77,-1.82,1.08,10.41
49.939909,3.2143,33.78,-2.25,0.14,8.55
49.939909,3.2143,33.78,-1.96,-0.15,9.01
49.940178,3.214074,33.91,-0.97,0.59,9.55
49.940178,3.214074,33.91,-2.02,0.78,9.98
49.940448,3.213851,34.0,-1.57,0.31,9.69
49.940448,3.213851,34.0,-0.62,0.46,9.55
49.94072,3.213627,34.07,-1.44,0.5,9.03
49.94072,3.213627,34.07,-2.04,-1.08,8.97
49.940991,3.213402,34.09,-1.38,-0.3,10.75
49.940991,3.213402,34.09,-0.85,0.43,10.18
49.941255,3.21318,33.98,-3.17,-0.37,10.57
49.941255,3.21318,33.98,-0.77,-0.23,9.71
49.941528,3.212965,33.89,-3.25,-1.01,7.41
49.941528,3.212965,33.89,-2.31,-0.23,9.54
49.941802,3.21275,33.86,-1.93,-0.02,10.28
49.941802,3.21275,33.86,-1.89,-1.38,9.33
49.94207,3.212534,33.97,-0.38,0.44,9.39
49.94207,3.212534,33.97,-1.99,-0.34,9.96
49.94234,3.212322,33.96,-2.36,-0.24,10.82
49.942609,3.212108,33.95,-0.99,0.23,9.47
49.942609,3.212108,33.95,-1.57,0.56,9.85
49.942888,3.211895,34.22,-2.66,-0.41,8.96
49.942888,3.211895,34.22,-2.43,-0.95,9.3
49.943167,3.21169,34.28,-1.78,0.94,10.5
49.943167,3.21169,34.28,-2.55,-0.48,10.04
49.943442,3.211488,34.31,-2.4,-0.64,10.81
49.943442,3.211488,34.31,-1.78,-0.16,11.48
49.943719,3.211287,34.35,-1.43,-0.67,9.03
49.943719,3.211287,34.35,-3.22,-0.71,9.89
49.943996,3.211083,34.39,-1.86,0.41,10.62
49.943996,3.211083,34.39,0.45,0.09,8.44
49.944278,3.210876,34.27,-1.72,-0.65,11.0
49.944278,3.210876,34.27,-1.6,-1.11,9.9
49.944563,3.210677,33.84,-0.93,-0.07,10.07
49.944563,3.210677,33.84,-2.15,-0.69,10.64
49.944844,3.210479,33.76,-0.77,0.34,9.1
49.944844,3.210479,33.76,-1.38,-0.27,9.64
49.945126,3.210281,33.63,-0.76,0.99,9.47
49.945126,3.210281,33.63,-0.72,-0.24,9.34
49.945406,3.210089,33.76,-2.31,0.01,9.91
49.945406,3.210089,33.76,-2.71,0.59,9.29
49.945689,3.209898,33.82,-3.04,-0.34,9.49
49.945689,3.209898,33.82,-2.83,-0.74,8.66
49.945969,3.209707,33.85,-1.23,0.8,9.86
49.945969,3.209707,33.85,-1.27,-0.43,9.45
49.946244,3.209512,33.9,-1.34,0.41,10.52
49.946244,3.209512,33.9,-1.57,-0.47,9.29
49.946524,3.209323,33.9,-2.23,-1.71,11.61
49.946524,3.209323,33.9,-0.82,0.76,10.33
49.946804,3.209139,33.96,-0.82,-0.25,8.75
49.946804,3.209139,33.96,-1.33,-0.11,9.44
49.947087,3.208959,34.05,-1.58,0.62,10.08
49.947087,3.208959,34.05,-1.1,0.13,10.42
49.947373,3.208779,34.11,-2.17,0.05,11.38
49.947373,3.208779,34.11,-2.43,-0.73,9.23
49.947653,3.208595,34.19,-0.54,0.83,11.82
49.947653,3.208595,34.19,-1.72,-0.29,9.87
49.947939,3.20841,33.97,-0.11,0.61,10.0
49.947939,3.20841,33.97,-1.5,-0.23,9.19
49.948219,3.208226,33.62,-2.91,-0.89,9.33
49.948219,3.208226,33.62,-0.52,0.84,8.95
49.948496,3.208043,33.57,-2.47,-0.92,10.33
49.948772,3.207859,33.56,-1.56,0.5,10.17
49.948772,3.207859,33.56,-2.45,-0.97,9.97
49.949049,3.207675,33.71,-0.51,0.95,10.27
49.949049,3.207675,33.71,-1.23,0.27,11.14
49.949327,3.207491,33.67,-2.15,-1.0,9.01
49.949327,3.207491,33.67,-1.0,0.05,8.64
49.949607,3.20731,33.52,-1.69,-1.24,10.23
49.949607,3.20731,33.52,-1.73,-0.26,10.07
49.949885,3.207129,33.42,-1.34,1.49,9.81
49.949885,3.207129,33.42,-1.97,0.47,8.95
49.950163,3.206952,33.33,-1.48,-0.79,10.18
49.950163,3.206952,33.33,-2.09,-1.42,10.85
49.95044,3.206775,33.29,-0.82,0.66,10.93
49.95044,3.206775,33.29,-2.09,-0.66,9.66
49.950717,3.206598,33.32,-0.87,-0.04,9.52
49.950717,3.206598,33.32,-1.65,-0.65,9.48
49.950992,3.206418,33.31,-0.89,-0.06,9.79
49.950992,3.206418,33.31,-1.09,-0.45,9.96
49.951268,3.206237,33.3,-1.57,0.46,10.14
49.951268,3.206237,33.3,-1.38,-0.36,9.34
49.951546,3.206055,33.29,-1.38,-2.0,10.06
49.951546,3.206055,33.29,-0.7,1.4,10.92
49.951825,3.205874,33.34,-1.73,-0.29,9.49
49.951825,3.205874,33.34,-0.97,0.2,8.71
49.952102,3.205693,33.41,-2.0,-0.63,9.5
49.952102,3.205693,33.41,-1.18,0.6,11.19
49.952379,3.205511,33.42,-2.03,-0.02,11.01
49.952379,3.205511,33.42,-1.16,-0.23,9.63
49.952658,3.205328,33.43,-0.69,-1.14,8.8
49.952658,3.205328,33.43,-0.99,0.01,10.22
49.952935,3.205144,33.69,-1.9,-0.07,11.5
49.952935,3.205144,33.69,-0.44,0.47,8.25
49.953213,3.204961,33.7,-1.38,0.35,11.17
49.953213,3.204961,33.7,-1.58,-0.54,9.6
49.953493,3.204779,33.72,-0.8,-0.5,8.63
49.953493,3.204779,33.72,-2.2,0.53,9.73
49.953773,3.204597,33.82,-1.36,0.23,9.83
49.953773,3.204597,33.82,-2.25,0.07,10.87
49.954056,3.204417,33.89,-2.36,-0.77,9.81
49.954056,3.204417,33.89,0.45,-0.41,9.01
49.954338,3.204237,33.83,-2.04,-1.18,9.42
49.954617,3.204055,33.51,-0.44,0.96,11.23
49.954617,3.204055,33.51,-1.73,-0.63,9.03
49.954894,3.203873,33.45,-0.81,0.32,9.95
49.954894,3.203873,33.45,-1.81,-0.5,10.13
49.95517,3.203692,33.26,-1.72,-0.19,9.43
49.95517,3.203692,33.26,-1.46,-0.48,9.97
49.955445,3.203512,33.13,-1.82,-1.09,9.59
49.955445,3.203512,33.13,-2.6,-0.72,8.87
49.955719,3.203331,33.11,-3.51,-1.15,9.05
49.955719,3.203331,33.11,-1.08,-1.4,9.05
49.955993,3.203149,33.0,-0.17,-0.71,9.47
49.955993,3.203149,33.0,-2.89,-1.49,11.33
49.956267,3.202963,32.98,-0.97,-0.31,9.79
49.956267,3.202963,32.98,-1.63,-0.5,9.61
49.956539,3.202771,32.87,-2.27,0.11,9.2
49.956539,3.202771,32.87,-0.59,0.44,9.94
49.95681,3.202581,32.89,-1.32,0.46,10.14
49.95681,3.202581,32.89,-1.49,-0.08,9.31
49.957083,3.202396,32.89,-0.33,0.93,10.47
49.957083,3.202396,32.89,-0.44,1.11,11.17
49.957355,3.202214,32.77,-1.01,0.37,10.24
49.957355,3.202214,32.77,-2.2,-1.55,9.61
49.957628,3.202037,32.79,-0.07,0.51,10.29
49.957628,3.202037,32.79,0.02,0.98,9.83
49.957901,3.201859,32.96,-2.8,-1.36,10.44
49.957901,3.201859,32.96,-1.42,-0.78,8.49
49.958175,3.201679,33.02,-1.66,0.71,9.55
49.958175,3.201679,33.02,-1.89,-0.4,8.85
49.958448,3.201498,33.13,-0.71,0.72,10.09
49.958448,3.201498,33.13,-2.15,-1.26,10.49
49.958724,3.201319,33.2,-0.51,-0.06,8.5
49.958724,3.201319,33.2,-2.94,-0.65,9.88
49.959,3.201139,33.31,-1.03,-0.79,8.45
49.959,3.201139,33.31,-1.92,0.63,9.83
49.959277,3.200961,33.37,-1.84,-0.3,7.87
49.959277,3.200961,33.37,-2.08,-0.47,8.98
49.959555,3.200784,33.38,-2.01,0.9,10.76
49.959555,3.200784,33.38,-2.29,-0.89,9.29
49.959834,3.200609,33.56,-1.97,-0.53,11.26
49.959834,3.200609,33.56,-1.78,-0.17,9.95
49.960115,3.200439,33.59,-1.08,-0.35,9.53
49.960394,3.200266,33.78,-2.86,-0.05,10.77
49.960394,3.200266,33.78,-0.7,0.02,9.84
49.960675,3.200091,33.83,-1.44,-0.27,9.11
49.960675,3.200091,33.83,-2.92,-0.8,9.96
49.960958,3.199914,34.01,-0.46,-0.76,8.9
49.960958,3.199914,34.01,-1.16,0.01,10.61
49.961245,3.199739,34.18,-2.69,0.58,11.3
49.961245,3.199739,34.18,-1.36,-0.1,10.15
49.961534,3.199569,34.2,-0.62,-0.33,10.14
49.961534,3.199569,34.2,-2.06,-0.45,9.84
49.961819,3.199388,34.29,-1.05,1.23,10.94
49.961819,3.199388,34.29,-0.52,1.43,10.21
49.962108,3.199214,34.35,-1.17,-0.12,10.0
49.962108,3.199214,34.35,-2.34,-0.54,10.49
49.96239,3.199032,34.51,-2.51,-0.96,10.44
49.96239,3.199032,34.51,-1.77,-0.95,9.6
49.962675,3.198852,34.5,-1.64,-0.29,9.08
49.962675,3.198852,34.5,-1.81,0.47,10.77
49.96296,3.198678,34.01,-1.59,-1.11,10.5
49.96296,3.198678,34.01,-0.79,0.67,9.84
49.963241,3.1985,33.9,-1.72,-0.94,9.65
49.963241,3.1985,33.9,-0.46,-0.01,10.13
49.963525,3.198338,33.65,-1.03,-0.83,8.68
49.963525,3.198338,33.65,-0.29,0.19,10.48
49.963814,3.19819,33.29,-0.98,-0.69,8.83
49.963814,3.19819,33.29,-0.37,0.0,10.64
49.964093,3.198039,32.6,0.75,0.34,10.86
49.964093,3.198039,32.6,-0.03,0.79,9.96
49.964367,3.197886,32.27,-2.39,-0.23,10.67
49.964367,3.197886,32.27,-2.05,-0.74,10.99
49.964644,3.197742,32.22,-1.31,-0.67,11.44
49.964644,3.197742,32.22,-1.52,0.2,9.05
49.964919,3.197596,32.32,-1.37,-0.52,10.89
49.964919,3.197596,32.32,-0.69,-0.45,8.74
49.965197,3.197451,32.58,-2.48,-0.32,11.12
49.965197,3.197451,32.58,-1.74,-0.09,10.05
49.965476,3.197301,32.92,-1.39,-0.33,8.7
49.965476,3.197301,32.92,-2.51,-0.75,9.29
49.965755,3.197142,33.17,0.3,-0.57,8.91
49.966035,3.19698,33.37,-1.99,-0.82,10.72
49.966035,3.19698,33.37,-1.88,-0.09,8.67
49.966316,3.196818,33.2,0.49,1.05,10.33
49.966316,3.196818,33.2,-1.25,-0.06,10.49
49.966598,3.196673,32.88,-1.04,-0.7,9.92
49.966598,3.196673,32.88,-0.59,0.23,10.05
49.966876,3.196531,32.54,-1.72,0.01,9.66
49.966876,3.196531,32.54,-0.73,-0.34,10.91
49.967154,3.196394,32.38,-1.62,-0.9,9.98
49.967154,3.196394,32.38,-2.22,-1.05,10.33
49.967434,3.196262,32.25,-1.19,0.7,11.31
49.967434,3.196262,32.25,-1.03,-0.41,9.53
49.967711,3.19613,32.12,-0.14,1.19,10.17
49.967711,3.19613,32.12,-0.79,-0.29,10.41
49.967988,3.196,32.08,-0.19,1.35,11.34
49.967988,3.196,32.08,-0.72,-0.11,9.52
49.968263,3.195872,31.88,0.14,0.62,9.96
49.968263,3.195872,31.88,0.03,0.35,10.3
49.968536,3.195748,31.51,0.08,1.01,8.61
49.968536,3.195748,31.51,-1.74,-1.58,8.89
49.968807,3.195628,31.08,-1.79,-0.63,10.65
49.968807,3.195628,31.08,-1.04,0.59,9.69
49.969075,3.195511,30.93,-0.63,0.27,10.76
49.969075,3.195511,30.93,-1.19,-0.02,9.3
49.969344,3.195396,30.74,-1.24,-0.74,8.84
49.969344,3.195396,30.74,-0.46,1.2,10.34
49.96961,3.195285,30.38,-1.44,-0.51,10.16
49.96961,3.195285,30.38,-0.82,0.48,10.66
49.969872,3.195175,29.97,-1.29,-0.5,11.09
49.969872,3.195175,29.97,-1.88,-0.23,10.07
49.97013,3.195066,29.8,-1.1,-0.69,9.82
49.97013,3.195066,29.8,-0.72,-0.23,9.6
49.970388,3.194962,29.31,-1.4,0.58,11.04
49.970388,3.194962,29.31,-1.9,-0.46,8.75
49.970642,3.194859,29.1,-1.85,0.4,11.36
49.970642,3.194859,29.1,-1.39,-0.28,10.68
49.970897,3.194763,28.89,-0.87,-0.05,9.87
49.970897,3.194763,28.89,0.15,0.03,8.84
49.97115,3.194668,28.82,-0.54,-0.22,8.83
49.97115,3.194668,28.82,0.18,0.26,11.17
49.971402,3.194574,28.31,0.34,0.68,10.35
49.971649,3.194486,27.73,-1.72,0.17,10.84
49.971649,3.194486,27.73,-0.93,0.21,10.26
49.971891,3.1944,27.39,-0.73,-0.91,9.63
49.971891,3.1944,27.39,-1.55,-0.56,9.4
49.972129,3.194313,26.92,-0.34,-0.36,10.15
49.972129,3.194313,26.92,-1.23,-0.25,9.55
49.972358,3.194224,26.27,-1.26,-0.87,9.62
49.972358,3.194224,26.27,-1.43,-0.93,10.46
49.972586,3.194142,25.74,-1.87,0.68,9.51
49.972586,3.194142,25.74,-2.66,-0.53,10.34
49.97281,3.194061,25.41,-1.47,0.04,9.98
49.97281,3.194061,25.41,-1.74,0.08,10.53
49.973031,3.193979,25.23,-2.61,0.05,9.57
49.973031,3.193979,25.23,-1.9,-0.47,9.69
49.973248,3.193893,25.29,-2.66,-0.26,10.04
49.973248,3.193893,25.29,-1.0,0.01,9.66
49.973465,3.193816,24.97,-2.04,0.76,11.17
49.973465,3.193816,24.97,-1.77,-0.22,9.74
49.973683,3.193738,24.85,-1.72,0.2,8.91
49.973683,3.193738,24.85,-1.04,-0.89,10.31
49.9739,3.193664,24.89,-1.85,-0.45,10.03
49.9739,3.193664,24.89,-2.72,-0.46,9.33
49.974118,3.193593,25.04,-2.11,0.62,9.29
49.974118,3.193593,25.04,-2.65,0.23,10.76
49.974341,3.193521,25.47,-2.82,-0.37,9.47
49.974341,3.193521,25.47,-1.78,-0.1,9.86
49.974567,3.193448,25.83,-2.18,0.88,9.82
49.974567,3.193448,25.83,-3.17,-1.13,8.77
49.974799,3.193377,26.36,-1.77,-1.22,8.14
49.974799,3.193377,26.36,-2.22,0.49,10.17
49.975034,3.193303,26.58,-1.74,0.52,8.83
49.975034,3.193303,26.58,-1.36,-0.79,10.09
49.975273,3.193223,27.1,-1.72,-1.33,9.25
49.975273,3.193223,27.1,-2.01,0.57,9.16
49.975514,3.193145,27.38,-2.13,0.39,9.77
49.975514,3.193145,27.38,-2.37,-0.04,10.28
49.975755,3.193062,27.75,-3.07,0.68,10.76
49.975755,3.193062,27.75,-2.07,1.49,10.56
49.975999,3.192983,28.09,-2.11,0.63,11.07
49.975999,3.192983,28.09,-1.74,1.17,10.47
49.976244,3.192897,28.33,-1.75,0.44,10.07
49.976488,3.192804,28.6,-2.15,0.21,9.73
49.976488,3.192804,28.6,-1.38,-0.59,9.43
49.976734,3.192709,28.93,-0.87,-0.23,9.61
49.976734,3.192709,28.93,-1.8,0.1,9.71
49.976988,3.192626,29.23,-1.54,-0.24,9.59
49.976988,3.192626,29.23,-1.85,0.91,9.72
49.977247,3.192547,29.54,-1.79,0.16,11.01
49.977247,3.192547,29.54,-1.67,0.7,9.38
49.977509,3.19247,29.74,-2.48,1.01,8.95
49.977509,3.19247,29.74,-2.07,-0.85,11.85
49.977776,3.192407,30.06,-2.02,-1.32,10.05
49.977776,3.192407,30.06,-0.75,-2.7,9.57
49.978042,3.19234,29.63,-2.05,-2.08,9.87
49.978042,3.19234,29.63,-2.48,0.65,10.5
49.978308,3.192264,29.63,-1.8,-0.87,10.01
49.978308,3.192264,29.63,-2.09,0.04,9.52
49.978571,3.192178,29.79,-1.89,0.51,10.1
49.978571,3.192178,29.79,-1.84,0.44,9.76
49.978836,3.192092,30.12,-1.49,-0.11,8.95
49.978836,3.192092,30.12,-2.45,-0.25,10.42
49.979107,3.192012,30.56,-1.58,-1.44,10.17
49.979107,3.192012,30.56,-1.92,0.17,10.35
49.979379,3.191923,30.86,-2.18,-0.32,10.15
49.979379,3.191923,30.86,-1.55,-0.17,10.32
49.979651,3.191832,31.27,-2.39,-1.28,9.32
49.979651,3.191832,31.27,-1.98,-0.67,10.06
49.979928,3.191739,31.64,-1.57,-0.14,8.8
49.979928,3.191739,31.64,-1.33,0.52,9.29
49.980209,3.191647,32.04,-1.72,-0.32,8.93
49.980209,3.191647,32.04,-1.55,-0.58,9.29
49.980492,3.191556,32.39,-2.47,-0.88,9.95
49.980492,3.191556,32.39,-0.91,-0.13,9.12
49.980775,3.191461,32.61,-0.06,0.34,9.56
49.980775,3.191461,32.61,-1.51,-0.12,10.79
49.981061,3.191365,32.6,-2.44,-1.22,9.49
49.981061,3.191365,32.6,-1.05,-0.88,9.86
49.98135,3.191267,32.96,-1.94,-0.98,10.05
49.98135,3.191267,32.96,-2.72,-0.71,9.75
49.981643,3.191158,33.36,-2.61,-0.93,9.05
49.981937,3.191043,33.82,-0.84,0.86,9.39
49.981937,3.191043,33.82,-2.26,0.06,9.54
49.982237,3.190935,34.22,-1.12,0.23,9.53
49.982237,3.190935,34.22,-0.86,-0.36,9.89
49.982538,3.190829,34.63,-1.6,0.21,8.77
49.982538,3.190829,34.63,-1.3,-0.03,9.76
49.982842,3.190724,34.69,0.25,0.07,10.09
49.982842,3.190724,34.69,-0.44,0.26,9.95
49.983143,3.190623,34.14,-0.66,0.54,12.53
49.983143,3.190623,34.14,-1.24,-0.73,10.52
49.983438,3.19052,33.96,0.26,1.6,10.07
49.983438,3.19052,33.96,-1.24,-0.38,10.92
49.983735,3.190427,33.28,-1.04,-0.98,9.85
49.983735,3.190427,33.28,-2.09,-1.3,10.3
49.984028,3.190331,33.19,-1.72,0.2,10.48
49.984028,3.190331,33.19,-2.26,-1.19,9.99
49.984324,3.190234,33.33,-1.32,-0.62,9.46
49.984324,3.190234,33.33,-1.18,-1.27,10.23
49.98462,3.190132,33.4,-2.66,-1.22,10.59
49.98462,3.190132,33.4,-0.67,0.06,9.33
49.984909,3.190016,33.34,-0.9,-0.14,9.63
49.984909,3.190016,33.34,-0.59,-0.09,10.26
49.985199,3.189907,33.33,-2.46,-0.83,9.26
49.985199,3.189907,33.33,-1.23,-0.75,8.06
49.985497,3.189805,33.62,-1.28,-1.02,9.82
49.985497,3.189805,33.62,-0.48,0.7,10.16
49.985794,3.18969,33.89,-0.37,0.0,10.73
49.985794,3.18969,33.89,-2.19,-0.6,8.85
49.986089,3.189573,33.84,-1.38,-0.36,9.93
49.986089,3.189573,33.84,-1.92,-0.55,11.1
49.986385,3.18946,33.79,-1.92,-1.43,9.06
49.986385,3.18946,33.79,-1.19,-0.62,10.18
49.98668,3.189343,33.76,-1.61,-1.2,10.65
49.98668,3.189343,33.76,-0.06,0.83,10.38
49.986974,3.189221,33.67,-3.05,-1.99,10.28
49.986974,3.189221,33.67,-1.33,-0.76,9.07
49.987267,3.189093,33.8,-1.5,-0.83,9.58
49.987267,3.189093,33.8,-1.07,0.0,8.52
49.987559,3.188961,33.98,-0.8,0.64,11.88
49.987559,3.188961,33.98,-1.96,-1.43,8.13
49.987852,3.188824,34.09,-1.22,0.09,8.82
49.987852,3.188824,34.09,-0.37,0.25,8.89
49.988145,3.188681,34.34,-1.19,0.67,10.87
49.988438,3.188538,34.44,-1.29,-0.42,10.59
49.988438,3.188538,34.44,-0.55,-0.49,8.58
49.988735,3.188395,34.15,-0.41,-0.53,10.05
49.988735,3.188395,34.15,-1.05,0.79,9.23
49.989027,3.188251,33.85,-1.35,-0.82,10.39
49.989027,3.188251,33.85,-0.41,0.34,9.95
49.989317,3.188107,33.87,-2.18,-1.22,10.38
49.989317,3.188107,33.87,-2.66,-1.56,9.52
49.989612,3.187962,34.03,-0.55,0.67,10.69
49.989612,3.187962,34.03,-1.72,-0.7,11.37
49.989902,3.187804,34.23,-1.84,-1.26,9.28
49.989902,3.187804,34.23,-0.01,0.07,10.35
49.990188,3.187639,34.06,-2.21,-0.86,9.12
49.990188,3.187639,34.06,-1.77,-1.29,9.75
