Location-lat,Location-long,Speed,Accelerometer-X,Accelerometer-Y,Accelerometer-Z
49.275659,4.088361,21.09,0.2,2.46,10.02
49.275756,4.088612,21.44,0.26,1.72,9.17
49.275756,4.088612,21.44,-1.5,2.75,9.73
49.275858,4.088862,21.99,-0.65,1.27,10.08
49.275858,4.088862,21.99,-0.66,0.54,8.21
49.275956,4.08912,21.36,-0.71,2.14,8.52
49.275956,4.08912,21.36,0.26,1.43,8.06
49.276054,4.089373,21.49,-0.46,1.24,10.83
49.276054,4.089373,21.49,0.0,1.14,9.92
49.276153,4.089629,21.8,0.18,1.12,7.93
49.276153,4.089629,21.8,-0.03,1.72,9.6
49.276252,4.089891,22.07,-0.71,2.03,10.56
49.276252,4.089891,22.07,0.01,1.31,11.59
49.27635,4.090159,22.61,-0.13,1.82,10.69
49.27635,4.090159,22.61,-0.03,2.95,11.13
49.276451,4.090431,22.89,-0.54,0.91,10.42
49.276451,4.090431,22.89,-0.35,2.41,9.43
49.276553,4.090706,23.16,-0.71,2.15,9.08
49.276553,4.090706,23.16,-0.79,2.36,9.71
49.276657,4.090985,23.47,-0.52,3.18,9.76
49.276657,4.090985,23.47,0.35,1.35,10.97
49.276762,4.091268,23.68,-0.39,1.07,8.38
49.276762,4.091268,23.68,-0.83,1.05,9.53
49.276867,4.091547,23.34,-0.33,1.93,9.71
49.276867,4.091547,23.34,0.41,1.47,10.68
49.276972,4.091825,23.34,-0.5,1.82,9.53
49.276972,4.091825,23.34,-0.94,1.71,9.86
49.277076,4.092102,23.39,-0.74,0.66,11.49
49.277076,4.092102,23.39,-0.2,2.39,9.43
49.27718,4.092379,23.49,-0.66,1.56,10.99
49.27718,4.092379,23.49,-0.69,2.4,10.29
49.277286,4.092659,23.71,-0.05,1.47,10.22
49.277286,4.092659,23.71,-0.88,1.48,8.32
49.277392,4.092943,23.83,-0.25,2.0,10.81
49.277392,4.092943,23.83,-0.67,0.68,8.77
49.277502,4.093227,23.97,-1.58,2.62,8.35
49.277611,4.093515,24.12,-0.45,1.48,10.45
49.277611,4.093515,24.12,-0.73,1.19,10.85
49.277718,4.093805,24.27,-1.07,2.3,8.2
49.277718,4.093805,24.27,-0.77,1.13,10.22
49.277825,4.094097,24.44,-0.24,1.32,11.23
49.277825,4.094097,24.44,-0.83,1.48,10.4
49.277936,4.094389,24.54,0.08,0.61,8.77
49.277936,4.094389,24.54,-0.28,1.17,9.11
49.278044,4.094681,24.24,0.27,0.61,7.88
49.278044,4.094681,24.24,-0.72,1.42,10.58
49.278153,4.094965,23.96,-2.0,1.26,10.48
49.278153,4.094965,23.96,-0.52,1.38,10.74
49.278259,4.095253,24.06,-0.67,1.63,9.04
49.278259,4.095253,24.06,-0.51,1.33,10.71
49.278369,4.095543,24.31,-0.56,2.32,9.9
49.278369,4.095543,24.31,-0.51,1.58,10.01
49.278479,4.095835,24.53,-0.64,1.99,8.66
49.278479,4.095835,24.53,-1.29,2.4,11.38
49.27859,4.096128,24.72,-0.5,1.73,10.17
49.27859,4.096128,24.72,-0.7,1.29,10.53
49.278701,4.096424,24.92,-0.17,0.86,10.12
49.278701,4.096424,24.92,0.11,1.27,10.5
49.278814,4.096723,25.12,-0.04,0.38,11.36
49.278814,4.096723,25.12,-0.33,0.71,9.29
49.278926,4.097023,24.84,-0.13,0.44,12.3
49.278926,4.097023,24.84,-1.16,2.18,8.73
49.279035,4.097318,24.31,-0.78,2.04,10.16
49.279035,4.097318,24.31,-0.43,0.84,10.64
49.279143,4.097608,24.28,0.06,1.47,9.45
49.279143,4.097608,24.28,-0.33,1.4,9.93
49.279253,4.097898,24.37,-1.21,1.76,9.17
49.279253,4.097898,24.37,-0.07,1.23,9.65
49.279364,4.098189,24.48,0.35,1.98,9.37
49.279364,4.098189,24.48,-1.05,1.26,9.82
49.279474,4.098479,24.51,-0.14,0.33,11.9
49.279474,4.098479,24.51,-0.43,0.29,9.92
49.279586,4.098769,24.18,0.12,1.47,8.6
49.279586,4.098769,24.18,0.1,1.33,10.5
49.279695,4.099054,23.6,0.63,0.98,8.79
49.279695,4.099054,23.6,-0.06,0.5,11.18
49.279801,4.099333,23.31,0.22,1.42,11.06
49.279904,4.099611,23.14,-0.42,1.87,8.96
49.279904,4.099611,23.14,0.0,0.86,8.71
49.280005,4.099887,23.05,-0.95,1.34,10.4
49.280005,4.099887,23.05,0.31,1.58,9.19
49.280107,4.100162,22.96,-0.03,1.98,11.2
49.280107,4.100162,22.96,-0.78,2.2,9.14
49.280208,4.100434,22.93,-0.82,0.83,8.47
49.280208,4.100434,22.93,-0.09,1.45,10.72
49.280305,4.100709,22.88,-1.04,0.43,7.58
49.280305,4.100709,22.88,-0.36,1.68,9.25
49.280404,4.100985,22.9,-1.25,1.57,8.79
49.280404,4.100985,22.9,-0.32,0.45,8.79
49.280508,4.10126,22.96,-0.59,0.9,9.76
49.280508,4.10126,22.96,-0.99,1.26,9.05
49.280607,4.101536,23.06,-0.67,0.56,10.83
49.280607,4.101536,23.06,0.1,1.17,10.86
49.28071,4.101815,23.27,0.17,1.61,8.18
49.28071,4.101815,23.27,-0.79,1.05,9.39
49.280812,4.102095,23.4,0.27,1.04,10.08
49.280812,4.102095,23.4,0.1,0.31,11.14
49.280913,4.102373,22.93,0.36,0.61,10.55
49.280913,4.102373,22.93,0.12,0.33,11.46
49.28101,4.102642,22.34,-0.54,0.76,9.94
49.28101,4.102642,22.34,-0.63,0.56,9.76
49.281103,4.102907,21.92,-1.18,0.67,10.38
49.281103,4.102907,21.92,-0.34,-0.02,9.99
49.281195,4.103161,21.19,0.05,0.04,8.9
49.281195,4.103161,21.19,0.2,0.52,8.32
49.28128,4.103415,20.6,-1.07,0.11,7.52
49.28128,4.103415,20.6,-1.09,-0.52,13.05
49.281365,4.103655,19.51,-0.71,-0.47,10.43
49.281365,4.103655,19.51,0.15,-0.14,9.16
49.281444,4.103879,18.24,0.16,0.27,7.35
49.281444,4.103879,18.24,-0.73,-0.13,9.15
49.281519,4.104091,17.23,-1.27,0.21,8.35
49.281519,4.104091,17.23,-0.58,1.13,10.54
49.281594,4.10429,16.71,-0.04,1.04,9.44
49.281594,4.10429,16.71,0.38,1.94,9.22
49.281671,4.10449,16.68,-0.7,0.36,9.53
49.281671,4.10449,16.68,-1.1,0.7,8.33
49.281745,4.10469,16.26,-0.29,0.75,9.59
49.281817,4.104884,15.98,0.27,1.26,9.43
49.281817,4.104884,15.98,-0.68,-0.71,6.16
49.281887,4.105073,15.68,-1.0,0.88,9.73
49.281887,4.105073,15.68,0.08,0.49,9.18
49.281954,4.105255,15.01,-0.62,0.21,10.11
49.281954,4.105255,15.01,-0.41,-0.03,9.18
49.282019,4.105428,13.93,-1.35,0.2,10.29
49.282019,4.105428,13.93,-0.46,-0.3,8.46
49.282076,4.105591,13.23,-0.32,0.29,11.25
49.282076,4.105591,13.23,-0.22,1.07,10.86
49.282133,4.105741,12.72,-0.58,0.66,10.39
49.282133,4.105741,12.72,-1.14,0.56,11.32
49.282185,4.105888,12.07,-0.43,1.0,11.07
49.282185,4.105888,12.07,-0.09,1.17,9.68
49.282239,4.106032,11.53,-0.73,0.09,9.17
49.282239,4.106032,11.53,0.39,1.4,9.89
49.282289,4.106168,11.08,0.9,0.76,9.32
49.282289,4.106168,11.08,0.24,0.23,10.43
49.282325,4.106309,10.65,-0.09,0.04,9.93
49.282325,4.106309,10.65,0.82,0.77,10.21
49.282354,4.106439,9.72,1.71,1.1,9.21
49.282354,4.106439,9.72,2.72,1.13,10.63
49.282373,4.106566,9.72,2.91,2.03,10.15
49.282373,4.106566,9.72,2.45,2.29,10.89
49.282372,4.106697,10.46,1.74,2.19,10.4
49.282372,4.106697,10.46,3.35,1.1,11.27
49.282349,4.106839,11.11,4.01,1.65,9.49
49.282349,4.106839,11.11,2.69,1.59,9.52
49.282285,4.10697,10.86,2.36,2.07,10.28
49.282285,4.10697,10.86,1.07,2.84,9.07
49.282205,4.107067,11.82,0.61,2.51,10.78
49.282205,4.107067,11.82,0.37,2.05,8.71
49.282105,4.107155,12.82,1.38,1.72,10.16
49.282105,4.107155,12.82,1.13,1.2,10.0
49.281998,4.107231,13.38,1.15,0.91,9.93
49.281998,4.107231,13.38,1.9,2.51,11.13
49.281891,4.107297,13.22,1.25,1.71,9.3
49.281891,4.107297,13.22,0.13,1.81,10.65
49.281777,4.107352,13.04,-0.22,1.7,8.03
49.281777,4.107352,13.04,-0.26,2.84,10.0
49.281652,4.107387,13.45,-0.45,2.64,10.34
49.281524,4.107427,14.19,-1.15,2.83,9.44
49.281524,4.107427,14.19,-1.06,0.39,11.54
49.281396,4.107463,13.95,-0.89,1.65,10.11
49.281396,4.107463,13.95,0.03,2.95,9.2
49.28127,4.107502,14.31,-1.59,2.41,10.52
49.28127,4.107502,14.31,-1.07,2.29,10.7
49.281146,4.107521,14.66,-0.51,2.87,8.83
49.281146,4.107521,14.66,-0.92,1.74,8.75
49.281021,4.107556,14.91,-0.93,2.39,9.96
49.281021,4.107556,14.91,0.4,1.94,9.22
49.28089,4.107595,15.37,0.34,1.88,11.82
49.28089,4.107595,15.37,0.5,0.63,2.25
49.280751,4.107639,15.52,0.03,2.03,7.69
49.280751,4.107639,15.52,-0.78,0.94,10.53
49.280611,4.10768,15.84,0.0,1.07,9.75
49.280611,4.10768,15.84,0.01,1.23,9.98
49.280471,4.107723,15.41,-0.49,2.01,9.41
49.280471,4.107723,15.41,-0.63,2.92,10.88
49.280332,4.107765,15.61,-0.86,1.75,12.3
49.280332,4.107765,15.61,0.22,2.19,9.63
49.28019,4.107811,15.83,-0.86,2.22,10.68
49.28019,4.107811,15.83,-0.81,1.94,9.08
49.280047,4.107858,16.0,0.37,1.99,9.75
49.280047,4.107858,16.0,-0.97,1.12,8.08
49.279901,4.107903,16.04,-0.57,1.46,8.4
49.279901,4.107903,16.04,-1.22,1.08,9.41
49.279755,4.107948,15.96,-0.47,1.97,9.74
49.279755,4.107948,15.96,0.33,2.53,9.8
49.279613,4.107981,15.99,-0.39,1.65,9.53
49.279613,4.107981,15.99,0.43,2.31,9.62
49.27947,4.108006,16.18,0.19,2.5,10.55
49.27947,4.108006,16.18,-1.32,1.13,9.44
49.279319,4.108032,16.43,0.19,1.64,8.93
49.279319,4.108032,16.43,-0.79,0.92,9.23
49.279172,4.108038,16.09,-0.99,0.57,10.89
49.279172,4.108038,16.09,-0.78,0.35,10.3
49.279033,4.108041,15.36,-0.6,-0.29,8.93
49.279033,4.108041,15.36,-1.59,-0.08,9.32
49.278905,4.108038,14.21,-0.39,0.04,10.26
49.278786,4.108029,12.93,0.58,0.13,9.62
49.278786,4.108029,12.93,-0.2,0.16,8.01
49.27868,4.108017,11.88,0.19,1.18,10.31
49.27868,4.108017,11.88,1.67,0.13,10.01
49.278582,4.108,11.03,1.36,-0.03,10.95
49.278582,4.108,11.03,1.66,0.78,8.24
49.278488,4.107964,10.35,1.65,0.71,10.73
49.278488,4.107964,10.35,2.04,1.9,10.15
49.278404,4.1079,10.02,3.51,1.74,10.09
49.278404,4.1079,10.02,3.08,1.59,9.87
49.278335,4.107803,10.75,3.22,2.07,9.17
49.278335,4.107803,10.75,2.61,1.47,9.59
49.278289,4.107663,11.77,3.52,2.61,10.36
49.278289,4.107663,11.77,3.17,1.83,9.98
49.278265,4.107498,12.55,3.5,1.77,9.82
49.278265,4.107498,12.55,2.56,2.24,11.13
49.278271,4.107308,13.7,2.45,2.16,10.86
49.278271,4.107308,13.7,3.12,2.45,10.61
49.278301,4.107112,14.74,2.15,1.79,9.45
49.278301,4.107112,14.74,2.23,0.92,9.79
49.278364,4.106919,15.06,1.89,0.94,9.69
49.278364,4.106919,15.06,1.64,0.8,8.75
49.278442,4.106738,15.09,1.73,1.27,10.37
49.278442,4.106738,15.09,1.4,1.27,9.67
49.278541,4.106584,15.1,1.19,2.07,8.86
49.278541,4.106584,15.1,1.22,0.94,9.09
49.278647,4.106448,15.79,1.08,1.47,8.5
49.278647,4.106448,15.79,1.13,2.2,10.61
49.278771,4.106327,16.8,0.37,0.9,8.8
49.278771,4.106327,16.8,0.75,0.94,9.96
49.278909,4.106226,17.11,0.88,0.82,10.07
49.278909,4.106226,17.11,0.11,0.49,12.4
49.27905,4.106129,17.09,0.67,-0.19,9.65
49.27905,4.106129,17.09,0.04,-0.68,12.04
49.279198,4.106039,16.35,0.93,0.65,9.13
49.279198,4.106039,16.35,1.74,-0.39,10.62
49.279335,4.105959,15.54,2.54,0.26,10.51
49.279335,4.105959,15.54,3.82,0.25,10.64
49.279466,4.105901,14.96,3.56,0.34,9.63
49.279605,4.105881,14.96,3.34,0.78,9.18
49.279605,4.105881,14.96,3.93,1.74,9.28
49.279744,4.10593,15.95,4.77,0.87,11.16
49.279744,4.10593,15.95,4.87,0.91,10.75
49.279873,4.106037,15.5,4.17,1.13,9.69
49.279873,4.106037,15.5,2.69,1.77,9.68
49.279981,4.106201,15.68,0.57,2.22,9.54
49.279981,4.106201,15.68,0.55,2.3,10.04
49.28006,4.106407,16.5,0.76,0.47,10.06
49.28006,4.106407,16.5,1.55,2.48,9.45
49.280134,4.106618,16.61,0.06,2.41,8.06
49.280134,4.106618,16.61,-0.07,2.45,10.19
49.280208,4.106834,17.8,0.26,2.79,10.21
49.280208,4.106834,17.8,-0.04,2.22,9.2
49.280286,4.107064,18.87,-1.2,1.56,9.46
49.280286,4.107064,18.87,0.55,2.21,9.84
49.280375,4.107304,19.78,-1.05,2.13,8.55
49.280375,4.107304,19.78,0.32,3.41,8.84
49.280459,4.107552,20.62,-0.68,2.33,9.22
49.280459,4.107552,20.62,-1.09,2.06,10.25
49.280546,4.107811,21.39,-0.61,1.96,10.87
49.280546,4.107811,21.39,-1.03,1.92,9.54
49.280638,4.108081,22.52,-0.86,2.08,8.22
49.280638,4.108081,22.52,-0.27,3.04,9.84
49.280738,4.108353,23.53,-0.09,2.68,8.91
49.280738,4.108353,23.53,0.24,1.6,7.11
49.280843,4.108635,24.32,0.0,2.23,9.73
49.280843,4.108635,24.32,-1.48,2.87,11.1
49.280953,4.108933,25.25,-0.29,2.83,10.42
49.280953,4.108933,25.25,-1.05,0.45,8.39
49.281066,4.109242,25.53,-0.62,1.4,8.64
49.281066,4.109242,25.53,-0.22,1.76,7.4
49.281172,4.109549,25.3,-0.42,1.3,7.98
49.281172,4.109549,25.3,0.41,1.55,8.75
49.281278,4.109861,25.64,-0.6,1.36,9.41
49.281278,4.109861,25.64,-0.35,1.18,11.18
49.281387,4.110183,26.41,0.13,2.3,9.36
49.281387,4.110183,26.41,-0.68,1.47,10.49
49.281498,4.110509,27.03,0.3,1.25,10.77
49.281498,4.110509,27.03,-1.84,1.13,10.74
49.281613,4.11084,27.54,-1.04,0.59,10.73
49.281728,4.111174,27.25,0.28,1.95,10.35
49.281728,4.111174,27.25,-2.26,1.12,9.94
49.281842,4.111508,27.1,-0.77,1.1,9.05
49.281842,4.111508,27.1,-1.11,2.09,9.28
49.281956,4.111835,27.3,-0.68,2.05,11.12
49.281956,4.111835,27.3,-0.45,-0.07,10.88
49.282071,4.112166,27.32,-2.0,0.74,9.61
49.282071,4.112166,27.32,-0.6,0.41,9.63
49.282186,4.112495,27.34,0.23,2.39,9.08
49.282186,4.112495,27.34,0.28,1.15,11.5
49.282302,4.112829,27.61,-0.22,0.48,8.26
49.282302,4.112829,27.61,0.37,1.58,9.79
49.282419,4.113171,27.95,-0.32,1.06,9.74
49.282419,4.113171,27.95,-0.97,1.62,12.45
49.282537,4.113517,28.05,-0.31,1.0,11.21
49.282537,4.113517,28.05,-0.05,1.91,10.87
49.282654,4.113854,28.12,-0.24,1.05,8.67
49.282654,4.113854,28.12,0.78,-0.14,12.65
49.282771,4.114195,27.92,-0.52,0.1,8.59
49.282771,4.114195,27.92,-1.2,1.49,8.26
49.282889,4.114537,27.77,-1.23,0.8,10.19
49.282889,4.114537,27.77,-1.8,0.53,8.72
49.283008,4.114868,27.94,-0.43,1.45,9.42
49.283008,4.114868,27.94,0.52,2.01,10.96
49.283134,4.1152,28.37,-1.47,1.36,8.12
49.283134,4.1152,28.37,-0.54,0.39,10.19
49.283265,4.115535,28.76,-1.45,0.98,9.9
49.283265,4.115535,28.76,-1.31,2.23,10.03
49.283401,4.115872,29.08,-1.03,1.23,8.99
49.283401,4.115872,29.08,-0.79,2.3,9.69
49.283539,4.116213,29.58,-1.8,0.57,9.65
49.283539,4.116213,29.58,-0.21,1.49,10.73
49.283683,4.11655,29.89,-1.59,-0.6,10.74
49.283683,4.11655,29.89,-1.62,0.51,10.55
49.283829,4.116891,29.66,-0.7,0.42,11.25
49.283829,4.116891,29.66,-0.94,1.14,9.11
49.283977,4.117227,29.35,-0.82,0.25,11.45
49.283977,4.117227,29.35,-0.66,1.03,10.67
49.284129,4.11756,29.42,-1.21,1.44,9.94
49.28428,4.117891,29.59,-0.45,1.39,11.41
49.28428,4.117891,29.59,-1.06,1.36,8.18
49.284434,4.118223,29.71,-1.49,1.01,11.03
49.284434,4.118223,29.71,-1.33,1.66,9.69
49.284592,4.118553,29.79,-0.25,1.15,10.37
49.284592,4.118553,29.79,-0.45,1.06,9.28
49.284755,4.118878,29.44,-0.68,1.86,7.72
49.284755,4.118878,29.44,-1.47,0.43,10.86
49.28492,4.119201,29.38,0.26,1.27,9.81
49.28492,4.119201,29.38,-1.3,1.12,10.06
49.285084,4.119519,29.55,-0.16,1.94,11.21
49.285084,4.119519,29.55,-1.04,1.72,9.12
49.285252,4.119837,29.8,-1.25,1.93,9.63
49.285252,4.119837,29.8,-2.12,-0.23,9.46
49.285422,4.120152,29.92,-1.69,1.58,9.02
49.285422,4.120152,29.92,0.81,1.69,8.69
49.285593,4.120464,29.84,-1.04,0.27,10.79
49.285593,4.120464,29.84,-1.48,1.27,8.0
49.285766,4.120768,29.39,-0.65,2.12,8.85
49.285766,4.120768,29.39,-1.59,0.91,9.66
49.28594,4.121067,29.21,-1.55,1.14,13.49
49.28594,4.121067,29.21,-2.31,1.95,8.82
49.286119,4.121364,29.37,-0.06,1.81,9.78
49.286119,4.121364,29.37,-1.8,0.98,8.23
49.286303,4.121659,29.63,-0.97,1.92,10.23
49.286303,4.121659,29.63,-0.62,1.7,10.46
49.286487,4.121954,29.83,-0.42,1.03,11.27
49.286487,4.121954,29.83,-1.47,1.64,10.82
49.28668,4.122242,29.87,-1.29,1.05,9.5
49.28668,4.122242,29.87,-0.66,1.13,10.47
49.286874,4.122534,29.78,-0.19,0.89,10.4
49.286874,4.122534,29.78,-1.22,1.57,10.0
49.287069,4.122819,29.77,-0.14,1.34,9.53
49.287069,4.122819,29.77,-0.23,1.33,11.02
49.287267,4.123099,29.82,-1.02,1.22,10.06
49.287267,4.123099,29.82,-0.55,1.76,9.47
49.287467,4.123377,29.89,-0.88,1.03,9.81
49.287467,4.123377,29.89,-1.0,2.22,9.62
49.287667,4.123654,29.96,-0.44,0.59,11.43
49.287667,4.123654,29.96,-0.7,1.54,10.09
49.287867,4.123928,30.04,-0.91,0.27,10.85
49.288072,4.124199,29.99,-1.25,0.91,9.47
49.288072,4.124199,29.99,-0.13,2.14,9.19
49.288276,4.124472,29.92,-1.36,0.53,9.74
49.288276,4.124472,29.92,-0.49,2.16,8.33
49.288483,4.124732,29.9,-0.13,0.99,10.77
49.288483,4.124732,29.9,-0.62,1.59,9.42
49.288689,4.124988,29.82,-1.21,1.43,7.84
49.288689,4.124988,29.82,-1.47,0.75,10.35
49.288896,4.125241,29.73,-0.83,1.23,9.39
49.288896,4.125241,29.73,-0.18,0.05,10.02
49.289106,4.125489,29.7,-1.49,0.92,11.47
49.289106,4.125489,29.7,-0.68,1.42,7.2
49.289319,4.125731,29.64,-0.28,0.52,9.25
49.289319,4.125731,29.64,-1.79,0.61,11.03
49.289534,4.125968,29.54,-1.21,1.37,10.78
49.289534,4.125968,29.54,-1.35,1.17,11.76
49.289751,4.126203,29.5,-1.96,1.67,12.78
49.289751,4.126203,29.5,-1.21,1.24,9.45
49.289967,4.126434,29.54,-0.67,1.16,8.63
49.289967,4.126434,29.54,-0.81,0.23,11.2
49.290184,4.12666,29.47,0.66,2.25,11.59
49.290184,4.12666,29.47,-0.57,2.03,10.64
49.290406,4.126876,29.5,-1.68,1.13,9.0
49.290406,4.126876,29.5,-0.66,2.0,9.73
49.290628,4.127094,29.63,-0.94,1.27,7.65
49.290628,4.127094,29.63,-0.87,1.03,9.46
49.290854,4.127307,29.77,-0.76,1.75,10.52
49.290854,4.127307,29.77,0.23,2.59,8.82
49.291084,4.127518,29.91,-0.55,1.56,9.17
49.291084,4.127518,29.91,-0.92,0.98,9.63
49.291313,4.127727,29.95,-1.0,0.62,11.17
49.291313,4.127727,29.95,-2.06,1.45,8.45
49.291546,4.127935,29.94,-0.11,0.21,9.12
49.291546,4.127935,29.94,-0.22,1.48,9.37
49.291788,4.128135,30.03,-1.17,0.99,12.09
49.292028,4.12833,30.11,-1.4,1.14,8.28
49.292028,4.12833,30.11,-1.21,1.16,9.01
49.292274,4.128518,30.1,-0.68,0.75,9.61
49.292274,4.128518,30.1,-0.62,0.76,8.43
49.292517,4.128706,29.51,-0.7,0.42,11.02
49.292517,4.128706,29.51,-0.5,0.52,11.44
49.292754,4.128885,29.11,0.59,1.42,11.34
49.292754,4.128885,29.11,-0.15,1.3,10.52
49.292984,4.129052,28.89,-0.94,1.58,9.46
49.292984,4.129052,28.89,-1.02,1.99,7.17
49.293214,4.129215,28.78,-0.54,1.79,7.71
49.293214,4.129215,28.78,0.16,2.18,11.43
49.293445,4.129378,28.89,-0.88,1.58,9.79
49.293445,4.129378,28.89,1.19,1.76,9.17
49.29368,4.129543,29.13,-2.09,2.36,10.72
49.29368,4.129543,29.13,-0.6,1.24,9.82
49.293921,4.12971,29.27,-1.5,1.4,7.68
49.293921,4.12971,29.27,-0.52,-0.23,10.14
49.294163,4.129872,29.14,-0.5,0.75,9.76
49.294163,4.129872,29.14,0.13,0.68,9.5
49.294401,4.130034,28.8,-0.73,1.93,12.88
49.294401,4.130034,28.8,-0.1,1.64,9.06
49.294637,4.130197,28.82,-0.7,0.49,10.38
49.294637,4.130197,28.82,-0.63,1.05,9.05
49.29487,4.130358,28.49,0.0,2.15,7.95
49.29487,4.130358,28.49,-0.74,1.51,10.81
49.295101,4.130519,28.23,-0.18,0.71,11.16
49.295101,4.130519,28.23,-0.26,1.0,7.51
49.295332,4.130679,28.27,0.65,1.01,9.54
49.295332,4.130679,28.27,-0.74,1.38,8.27
49.295562,4.130841,28.37,-0.53,1.07,11.63
49.295562,4.130841,28.37,-0.78,0.03,9.51
49.295795,4.131002,28.5,-1.06,1.87,8.83
49.295795,4.131002,28.5,-1.21,0.83,8.95
49.29603,4.131161,28.62,0.05,1.45,8.1
49.29603,4.131161,28.62,-0.39,1.06,12.03
49.296266,4.13132,28.73,0.15,0.53,12.46
49.296266,4.13132,28.73,0.86,1.28,12.2
49.296504,4.131478,28.57,0.67,0.48,12.59
49.296504,4.131478,28.57,-0.9,0.96,8.95
49.296738,4.131637,28.42,0.46,1.28,9.95
49.296972,4.131798,28.53,0.31,1.36,9.38
49.296972,4.131798,28.53,-0.11,2.38,9.35
49.297207,4.131959,28.64,-1.03,0.76,9.64
49.297207,4.131959,28.64,-0.64,1.01,9.9
49.297442,4.132121,28.73,-0.15,0.64,12.26
49.297442,4.132121,28.73,-0.05,1.69,11.06
49.297678,4.132284,28.8,-2.41,0.49,12.99
49.297678,4.132284,28.8,-1.92,1.28,10.93
49.297914,4.132447,28.83,-0.29,1.68,10.19
49.297914,4.132447,28.83,-0.79,1.58,8.75
49.298149,4.132611,28.81,0.16,1.57,9.74
49.298149,4.132611,28.81,-0.18,1.68,10.72
49.298384,4.132775,28.8,-1.06,1.29,7.57
49.298384,4.132775,28.8,-0.06,2.36,10.93
49.298621,4.132938,28.81,-0.79,2.44,7.99
49.298621,4.132938,28.81,-0.66,0.97,9.63
49.298857,4.133101,28.8,-0.29,1.19,10.31
49.298857,4.133101,28.8,0.01,1.07,10.66
49.299094,4.133261,28.8,-0.36,1.19,10.38
49.299094,4.133261,28.8,-0.01,1.19,9.34
49.299331,4.133423,28.85,-1.4,1.16,9.28
49.299331,4.133423,28.85,0.0,0.98,10.33
49.299568,4.133585,28.87,-0.91,0.6,9.97
49.299568,4.133585,28.87,-0.1,1.12,9.49
49.299806,4.133747,28.97,-0.5,1.27,6.22
49.299806,4.133747,28.97,-0.23,0.91,9.05
49.300046,4.133908,28.83,-0.45,0.56,7.93
49.300046,4.133908,28.83,-0.35,-0.01,12.2
49.300279,4.134072,28.7,1.26,0.54,10.29
49.300279,4.134072,28.7,1.2,0.86,10.87
49.300514,4.134247,28.72,0.62,1.07,10.7
49.300514,4.134247,28.72,-0.33,1.1,10.09
49.300746,4.134428,28.9,0.0,1.28,11.58
49.300746,4.134428,28.9,-0.83,0.48,10.54
49.300976,4.134618,29.0,-0.77,1.31,9.94
49.300976,4.134618,29.0,0.22,1.42,9.21
49.301204,4.134815,29.27,-0.1,-0.13,9.88
49.301204,4.134815,29.27,-0.4,1.71,9.81
49.301435,4.135021,29.35,-0.68,0.05,10.96
49.301435,4.135021,29.35,-0.51,0.66,7.56
49.301664,4.135227,29.16,-0.52,1.13,9.84
49.301888,4.135441,29.05,0.43,0.23,10.3
49.301888,4.135441,29.05,-0.23,0.43,11.37
49.302109,4.135655,29.31,0.56,1.04,9.71
49.302109,4.135655,29.31,-1.19,1.03,9.41
49.302325,4.135877,29.52,-0.57,1.78,7.86
49.302325,4.135877,29.52,-0.32,1.19,10.96
49.302542,4.136104,29.7,0.07,1.59,9.25
49.302542,4.136104,29.7,0.39,0.34,9.65
49.302759,4.136335,29.86,-0.08,0.54,9.97
49.302759,4.136335,29.86,-0.03,1.88,9.26
49.302972,4.13657,29.51,0.8,0.63,11.42
49.302972,4.13657,29.51,-0.09,0.93,9.84
49.303182,4.136814,29.57,0.35,1.91,10.89
49.303182,4.136814,29.57,0.7,0.37,10.03
49.303393,4.137063,29.61,0.46,0.98,11.74
49.303393,4.137063,29.61,0.09,1.67,10.44
49.303601,4.137319,29.56,-1.1,1.42,9.08
49.303601,4.137319,29.56,-1.3,0.36,9.95
49.303807,4.137572,29.52,-0.67,0.72,11.88
49.303807,4.137572,29.52,-0.87,1.52,7.01
49.304012,4.137828,29.52,-0.25,0.22,11.27
49.304012,4.137828,29.52,-0.25,1.24,10.5
49.304217,4.138085,29.43,-1.61,0.91,7.95
49.304217,4.138085,29.43,-1.25,0.44,9.16
49.304425,4.138337,29.32,-0.54,0.75,10.59
49.304425,4.138337,29.32,-0.64,1.39,8.83
49.304633,4.138585,29.19,0.45,0.76,11.32
49.304633,4.138585,29.19,-0.94,1.33,8.83
49.304836,4.138833,28.97,-0.95,1.45,9.11
49.304836,4.138833,28.97,-1.63,1.69,9.53
49.30504,4.139081,28.76,-0.02,1.49,8.72
49.30504,4.139081,28.76,-0.07,1.04,9.64
49.305242,4.13933,28.68,0.14,1.08,9.4
49.305242,4.13933,28.68,0.91,0.21,11.54
49.305443,4.139581,28.73,0.19,0.73,10.22
49.305443,4.139581,28.73,-1.2,0.96,11.78
49.305645,4.13983,28.83,-1.6,1.88,8.95
49.305846,4.14008,28.92,-0.45,1.99,7.83
49.305846,4.14008,28.92,0.07,1.38,9.7
49.306048,4.140328,29.0,-1.46,1.86,7.24
49.306048,4.140328,29.0,-1.11,1.38,8.71
49.306249,4.140579,29.12,-0.95,1.02,11.51
49.306249,4.140579,29.12,-1.65,-0.14,9.73
49.306454,4.14083,29.1,-1.07,1.6,11.17
49.306454,4.14083,29.1,-0.11,1.48,9.24
49.306661,4.141079,29.07,-1.53,1.67,7.98
49.306661,4.141079,29.07,-1.13,1.72,10.87
49.306867,4.141326,28.93,-1.04,2.03,10.3
49.306867,4.141326,28.93,-0.41,0.65,9.0
49.307071,4.141571,28.88,-0.45,0.23,10.25
49.307071,4.141571,28.88,0.01,0.63,9.07
49.307276,4.141821,28.85,-0.88,0.65,6.13
49.307276,4.141821,28.85,-0.51,1.56,10.45
49.307478,4.142066,28.88,0.3,2.25,8.98
49.307478,4.142066,28.88,-0.19,1.54,7.51
49.307684,4.142312,28.97,-1.24,2.11,6.85
49.307684,4.142312,28.97,-0.47,2.63,8.7
49.307888,4.142557,29.08,-0.58,1.06,8.21
49.307888,4.142557,29.08,-0.29,0.34,11.07
49.308092,4.14281,28.98,0.09,0.86,11.14
49.308092,4.14281,28.98,-0.95,1.51,10.56
49.308291,4.143064,28.67,-0.53,0.5,10.27
49.308291,4.143064,28.67,0.62,1.22,7.58
49.308492,4.143313,28.53,-1.21,1.43,9.21
49.308492,4.143313,28.53,-1.57,0.39,10.58
49.308693,4.143558,28.5,-0.67,1.36,10.96
49.308693,4.143558,28.5,-0.39,1.62,9.95
49.308895,4.143804,28.53,0.17,1.19,9.22
49.308895,4.143804,28.53,-0.3,0.52,9.74
49.309097,4.144044,28.66,-0.47,1.3,10.05
49.309097,4.144044,28.66,-0.41,1.82,9.65
49.309297,4.144287,28.84,-1.04,1.25,10.7
49.309297,4.144287,28.84,-0.97,1.84,10.65
49.309498,4.14453,28.87,-0.63,1.45,10.38
49.309498,4.14453,28.87,0.01,1.64,8.68
49.3097,4.144776,28.83,-1.15,0.97,8.35
49.309901,4.145024,28.86,-0.77,1.59,8.76
49.309901,4.145024,28.86,0.13,0.77,7.89
49.310105,4.145272,28.92,-0.36,0.79,8.31
49.310105,4.145272,28.92,-0.85,1.81,8.94
49.310308,4.145522,29.0,-0.78,1.89,10.04
49.310308,4.145522,29.0,-0.57,1.58,10.14
49.310516,4.145773,29.18,0.4,2.85,9.6
49.310516,4.145773,29.18,-0.39,1.61,8.28
49.310723,4.146024,29.3,-0.38,0.48,10.55
49.310723,4.146024,29.3,-0.1,0.65,8.65
49.310927,4.146274,29.2,-0.31,1.03,14.62
49.310927,4.146274,29.2,-0.49,1.85,8.59
49.311131,4.146524,29.0,-0.08,0.59,9.08
49.311131,4.146524,29.0,-1.42,0.63,9.93
49.311334,4.146776,28.85,-1.28,-0.23,8.89
49.311334,4.146776,28.85,-0.7,-0.2,10.31
49.311537,4.147015,28.6,-0.61,0.32,9.01
49.311537,4.147015,28.6,0.0,0.23,11.56
49.311736,4.147262,28.21,-0.48,1.58,14.58
49.311736,4.147262,28.21,-0.72,2.04,9.37
49.311934,4.147505,28.1,0.51,1.67,9.89
49.311934,4.147505,28.1,0.91,2.06,12.35
49.312132,4.147742,27.87,-0.41,0.36,11.41
49.312132,4.147742,27.87,-1.41,1.37,9.74
49.312328,4.147981,27.86,-0.56,0.79,10.1
49.312328,4.147981,27.86,-0.92,0.61,9.74
49.312524,4.148212,27.47,-0.17,-0.01,10.1
49.312524,4.148212,27.47,0.02,1.47,10.78
49.312717,4.148442,27.14,0.15,1.76,9.52
49.312717,4.148442,27.14,-0.37,1.01,8.79
49.312912,4.148671,27.15,-0.39,1.88,11.17
49.312912,4.148671,27.15,-0.33,1.58,8.51
49.313107,4.148909,27.4,-0.41,2.12,10.43
49.313107,4.148909,27.4,-0.79,1.57,9.45
49.3133,4.149147,27.56,-0.01,1.55,9.49
49.3133,4.149147,27.56,-1.17,0.42,10.96
49.313496,4.149386,27.87,-0.19,1.92,7.55
49.313496,4.149386,27.87,-0.2,1.66,8.73
49.313688,4.149627,27.94,-0.19,1.27,8.77
49.313688,4.149627,27.94,-0.93,1.45,8.68
49.313884,4.149867,28.18,-0.88,1.18,8.76
49.314084,4.150109,28.46,0.22,1.36,10.61
49.314084,4.150109,28.46,0.56,1.96,8.43
49.314285,4.150353,28.8,-0.2,1.25,11.41
49.314285,4.150353,28.8,-0.19,0.77,10.39
49.314487,4.150604,28.87,-0.1,1.04,10.19
49.314487,4.150604,28.87,-1.06,1.47,8.67
49.314687,4.150848,28.57,0.11,1.59,9.89
49.314687,4.150848,28.57,-0.94,1.36,9.31
49.314888,4.151088,27.95,-0.45,1.58,7.75
49.314888,4.151088,27.95,0.17,1.93,9.05
49.315092,4.151333,29.1,-0.68,0.97,9.81
49.315092,4.151333,29.1,0.21,0.8,10.84
49.315299,4.151584,29.06,0.68,1.21,11.9
49.315299,4.151584,29.06,-0.49,0.77,9.87
49.315505,4.151826,28.93,0.03,1.22,10.96
49.315505,4.151826,28.93,-0.44,1.48,9.29
49.315708,4.152075,28.97,-0.59,1.15,8.35
49.315708,4.152075,28.97,0.28,1.55,8.49
49.315912,4.152324,29.14,0.39,0.46,11.29
49.315912,4.152324,29.14,-0.34,0.58,11.54
49.316116,4.152576,29.12,-0.11,1.43,10.35
49.316116,4.152576,29.12,-0.73,1.24,8.94
49.316319,4.152835,29.27,0.96,2.03,8.61
49.316319,4.152835,29.27,-0.76,0.65,9.77
49.316526,4.153085,29.34,-0.9,1.18,9.33
49.316526,4.153085,29.34,-0.93,1.52,10.09
49.316732,4.153344,29.41,-0.82,1.37,9.47
49.316732,4.153344,29.41,-0.54,1.5,11.13
49.31694,4.153597,29.5,0.29,2.15,10.07
49.31694,4.153597,29.5,-0.93,1.71,8.45
49.317147,4.153849,29.58,-0.52,0.57,9.68
49.317147,4.153849,29.58,-0.53,1.58,9.53
49.317355,4.154103,29.62,-1.9,1.79,14.69
49.317355,4.154103,29.62,-0.12,0.62,9.71
49.317564,4.154358,29.63,0.03,1.34,11.33
49.317564,4.154358,29.63,0.3,1.51,9.03
49.317771,4.154614,29.61,-0.48,0.75,9.52
49.317771,4.154614,29.61,-0.28,1.16,8.67
49.317979,4.154868,29.5,-0.74,1.55,8.44
49.317979,4.154868,29.5,-1.69,1.59,7.78
49.318186,4.155121,29.4,-0.44,-0.76,10.25
49.318186,4.155121,29.4,0.43,-0.03,10.09
49.318392,4.155369,28.93,-1.03,0.26,9.5
49.318596,4.155616,28.8,0.57,1.85,9.39
49.318596,4.155616,28.8,-0.72,1.68,11.87
49.318797,4.155862,28.77,-0.1,1.24,10.62
49.318797,4.155862,28.77,-0.57,1.69,9.02
49.319,4.156107,28.9,-0.27,1.23,10.76
49.319,4.156107,28.9,-0.8,2.07,7.8
49.319201,4.156357,28.87,0.08,1.55,8.72
49.319201,4.156357,28.87,0.8,1.75,10.22
49.319404,4.156605,28.98,-1.47,0.43,9.82
49.319404,4.156605,28.98,-0.75,1.43,10.41
49.319608,4.156854,29.09,0.23,1.32,10.09
49.319608,4.156854,29.09,0.2,1.71,11.62
49.319811,4.157104,29.0,-1.88,1.54,8.41
49.319811,4.157104,29.0,0.17,2.73,9.14
49.320013,4.157354,28.88,0.34,1.68,9.83
49.320013,4.157354,28.88,-0.54,1.01,9.26
49.320215,4.1576,28.74,0.52,0.95,8.29
49.320215,4.1576,28.74,0.11,1.34,9.74
49.320417,4.157843,28.73,-0.21,0.77,10.61
49.320417,4.157843,28.73,-1.23,1.0,9.38
49.320619,4.158093,28.76,-0.64,1.02,11.22
49.320619,4.158093,28.76,-0.1,0.84,9.5
49.320822,4.158339,28.76,0.66,0.98,10.15
49.320822,4.158339,28.76,0.63,1.65,12.42
49.321025,4.158586,28.91,0.24,1.52,10.15
49.321025,4.158586,28.91,-0.17,1.44,9.1
49.321229,4.158834,29.14,0.14,1.87,9.11
49.321229,4.158834,29.14,0.4,2.14,11.06
49.321436,4.159085,29.25,0.72,0.72,10.04
49.321436,4.159085,29.25,-1.68,2.06,8.2
49.321644,4.159337,29.3,-0.23,1.11,8.68
49.321644,4.159337,29.3,-1.15,0.1,10.74
49.321851,4.159588,28.97,-0.28,1.27,8.19
49.321851,4.159588,28.97,-0.34,0.96,9.08
49.322055,4.159835,28.63,-0.27,0.51,10.54
49.322055,4.159835,28.63,-0.32,0.59,10.45
49.322255,4.160075,28.38,-0.84,0.46,9.73
49.322255,4.160075,28.38,-0.91,1.57,9.73
49.322455,4.160318,28.32,0.05,2.03,11.21
49.322455,4.160318,28.32,0.19,1.2,10.04
49.322653,4.16056,28.3,-1.16,2.08,11.13
49.32285,4.160803,28.26,-0.9,0.32,11.09
49.32285,4.160803,28.26,-0.04,1.32,9.46
49.323048,4.161043,28.27,-0.76,1.37,10.27
49.323048,4.161043,28.27,-1.03,1.08,10.55
49.323248,4.161281,28.16,-1.08,1.42,8.82
49.323248,4.161281,28.16,0.34,1.3,9.66
49.323444,4.161521,28.14,-0.49,1.68,10.52
49.323444,4.161521,28.14,-0.53,1.67,8.74
49.323641,4.161761,28.17,0.66,1.39,9.62
49.323641,4.161761,28.17,-0.19,2.11,8.79
49.323838,4.162003,28.17,-0.89,1.06,11.36
49.323838,4.162003,28.17,-0.09,1.44,8.37
49.324036,4.162246,28.22,-0.57,1.45,10.64
49.324036,4.162246,28.22,-0.05,1.63,9.96
49.324237,4.162488,28.23,-0.77,1.9,8.32
49.324237,4.162488,28.23,-0.97,1.42,10.08
49.324437,4.162731,28.24,-0.79,1.06,10.43
49.324437,4.162731,28.24,-0.34,0.78,10.01
49.324634,4.162972,28.03,-0.78,1.42,11.47
49.324634,4.162972,28.03,-0.06,1.49,11.36
49.324831,4.163211,27.97,0.16,0.75,6.78
49.324831,4.163211,27.97,0.44,1.65,8.49
49.325027,4.163451,28.03,-0.42,1.74,8.48
49.325027,4.163451,28.03,0.72,1.33,10.69
49.325224,4.163693,28.18,0.33,1.59,10.48
49.325224,4.163693,28.18,-0.29,1.96,8.06
49.325425,4.163934,28.35,-0.6,1.29,9.31
49.325425,4.163934,28.35,-0.08,1.58,10.37
49.325626,4.16418,28.44,0.23,1.16,9.91
49.325626,4.16418,28.44,-0.45,1.14,9.99
49.325828,4.164427,28.52,-0.39,1.23,9.87
49.325828,4.164427,28.52,0.49,0.33,8.73
49.326031,4.164672,28.55,-0.31,0.62,8.53
49.326031,4.164672,28.55,-1.02,0.33,10.61
49.326232,4.164913,28.08,0.19,1.02,9.92
49.326232,4.164913,28.08,-0.61,1.49,8.58
49.32643,4.16515,27.75,0.02,1.1,10.1
49.32643,4.16515,27.75,-0.73,0.52,9.83
49.326625,4.165381,27.86,-1.05,0.59,9.6
49.326625,4.165381,27.86,-0.67,1.11,10.42
49.32682,4.165623,28.12,-0.69,2.08,10.47
49.32682,4.165623,28.12,-0.43,2.26,9.8
49.327019,4.165867,28.38,-1.18,1.52,8.47
49.327019,4.165867,28.38,-0.66,2.62,9.92
49.327221,4.166108,28.64,-0.75,2.48,9.81
49.327425,4.166353,28.88,-0.95,1.55,10.1
49.327425,4.166353,28.88,0.24,1.06,10.42
49.327628,4.166599,29.07,-0.06,1.13,10.96
49.327628,4.166599,29.07,-0.03,1.36,10.22
49.327835,4.166847,29.14,-1.09,0.97,9.72
49.327835,4.166847,29.14,-0.28,2.12,9.45
49.328042,4.167097,29.22,0.94,1.77,10.99
49.328042,4.167097,29.22,-0.93,0.89,9.7
49.328248,4.167346,29.29,0.09,2.01,10.97
49.328248,4.167346,29.29,0.81,1.33,10.02
49.328454,4.167595,28.98,-1.32,1.41,8.75
49.328454,4.167595,28.98,0.08,1.86,7.97
49.328659,4.167841,28.67,-1.33,2.02,8.28
49.328659,4.167841,28.67,0.2,2.2,8.83
49.328861,4.168086,28.73,-1.51,0.83,9.1
49.328861,4.168086,28.73,0.09,1.93,9.92
49.32906,4.168333,28.65,-0.82,1.33,8.02
49.32906,4.168333,28.65,0.27,0.76,7.38
49.329261,4.168581,28.57,-1.61,2.22,8.52
49.329261,4.168581,28.57,-1.08,1.46,9.04
49.329463,4.168825,28.56,0.15,1.02,11.84
49.329463,4.168825,28.56,0.28,0.73,6.81
49.329664,4.169065,28.19,-0.94,1.66,9.12
49.329664,4.169065,28.19,-0.27,1.58,9.98
49.329863,4.169301,27.98,-0.79,1.21,9.46
49.329863,4.169301,27.98,-0.1,-0.06,11.76
49.33006,4.169539,27.7,-0.07,0.58,11.02
49.33006,4.169539,27.7,0.32,1.87,8.66
49.330255,4.169777,27.64,-0.4,1.52,9.2
49.330255,4.169777,27.64,-1.33,1.32,8.43
49.330449,4.170017,27.63,-0.57,2.92,13.05
49.330449,4.170017,27.63,-0.43,2.02,8.94
49.330644,4.170254,27.65,0.51,2.49,10.63
49.330644,4.170254,27.65,-0.38,0.65,11.92
49.33084,4.17049,27.85,-0.52,1.37,12.36
49.33084,4.17049,27.85,-0.61,1.45,8.96
49.331035,4.170731,27.93,-0.55,1.84,9.65
49.331035,4.170731,27.93,-1.05,1.41,11.5
49.331231,4.170972,27.92,0.93,0.57,9.01
49.331231,4.170972,27.92,-0.62,1.89,10.43
49.331427,4.171212,28.01,-1.11,2.15,7.11
49.331625,4.17145,27.96,-0.43,1.41,10.55
49.331625,4.17145,27.96,-0.96,1.67,9.27
49.331823,4.171688,27.89,-1.04,0.23,10.64
49.331823,4.171688,27.89,-0.89,1.28,10.52
49.33202,4.171925,27.84,-0.32,2.39,9.32
49.33202,4.171925,27.84,-1.49,1.3,8.72
49.332216,4.172162,27.74,0.35,1.65,9.27
49.332216,4.172162,27.74,0.19,1.54,9.84
49.332412,4.172397,27.71,0.21,1.13,9.95
49.332412,4.172397,27.71,-0.84,1.76,10.16
49.332607,4.172633,27.81,-1.34,0.89,10.36
49.332607,4.172633,27.81,-0.87,0.68,9.19
49.332804,4.172872,27.98,-0.7,0.96,10.86
49.332804,4.172872,27.98,-0.74,2.13,9.99
49.333,4.173111,28.24,-0.76,1.72,8.55
49.333,4.173111,28.24,-0.95,2.0,9.49
49.333199,4.173353,28.42,-1.13,2.32,8.67
49.333199,4.173353,28.42,-0.08,1.57,9.16
49.333399,4.173595,28.6,1.29,2.04,8.88
49.333399,4.173595,28.6,-0.62,1.92,9.12
49.333602,4.173841,28.7,0.01,1.92,9.54
49.333602,4.173841,28.7,-0.66,2.18,8.74
49.333804,4.174088,28.86,-0.3,1.36,6.79
49.333804,4.174088,28.86,-0.79,0.98,9.42
49.334007,4.174335,29.0,0.18,1.13,10.46
49.334007,4.174335,29.0,-0.22,1.09,11.13
49.334212,4.174584,29.05,-1.5,0.68,6.84
49.334212,4.174584,29.05,0.29,1.27,10.27
49.334416,4.174833,28.99,-1.12,1.51,9.15
49.334416,4.174833,28.99,-0.65,0.55,7.39
49.334622,4.175081,29.1,0.04,0.63,9.34
49.334622,4.175081,29.1,-0.86,0.69,8.39
49.33483,4.175328,29.17,-0.58,0.8,9.31
49.33483,4.175328,29.17,0.29,2.06,7.9
49.335036,4.175572,29.24,-0.88,0.86,11.36
49.335036,4.175572,29.24,-0.92,1.73,9.45
49.335243,4.175819,29.31,-0.74,1.4,9.74
49.335449,4.176071,28.84,0.07,0.59,10.41
49.335449,4.176071,28.84,-1.03,0.89,8.99
49.335655,4.176317,28.73,-0.62,1.26,8.75
49.335655,4.176317,28.73,-0.69,1.22,9.19
49.335859,4.176562,28.83,1.26,0.98,9.33
49.335859,4.176562,28.83,-0.33,1.1,8.58
49.336062,4.176807,28.59,-0.39,2.45,7.77
49.336062,4.176807,28.59,-1.1,1.55,9.47
49.336263,4.177051,28.59,-1.35,0.8,7.7
49.336263,4.177051,28.59,-0.34,1.99,9.26
49.336464,4.177296,28.7,-0.05,0.96,7.75
49.336464,4.177296,28.7,0.68,1.34,8.24
49.336667,4.17754,28.86,-0.45,0.38,7.07
49.336667,4.17754,28.86,-1.46,1.58,9.87
49.33687,4.177787,28.93,-0.86,1.31,11.18
49.33687,4.177787,28.93,-0.94,1.79,8.07
49.337074,4.178028,28.81,0.05,1.83,10.57
49.337074,4.178028,28.81,-0.08,1.65,11.14
49.337278,4.17827,28.82,-1.39,1.65,11.37
49.337278,4.17827,28.82,-0.67,2.22,9.35
49.337483,4.178515,28.82,-0.11,1.52,8.91
49.337483,4.178515,28.82,0.3,1.51,9.37
49.337687,4.178757,28.81,-0.42,0.96,10.59
49.337687,4.178757,28.81,-0.94,0.93,8.53
49.337889,4.179,28.7,-0.67,1.09,10.1
49.337889,4.179,28.7,-0.21,1.22,10.67
49.338093,4.17924,28.68,-0.71,0.68,8.77
49.338093,4.17924,28.68,-0.66,0.54,11.4
49.338296,4.179487,28.71,-0.42,0.84,10.07
49.338296,4.179487,28.71,0.17,0.83,10.42
49.338499,4.179733,28.57,-0.86,0.32,9.72
49.338499,4.179733,28.57,-0.45,0.49,9.39
49.338697,4.179982,28.34,-1.43,1.26,9.61
49.338697,4.179982,28.34,0.16,1.13,10.08
49.338896,4.180226,27.89,-0.92,-0.04,10.2
49.338896,4.180226,27.89,-0.77,0.45,12.48
49.339092,4.180457,27.62,-0.45,1.39,12.83
49.339092,4.180457,27.62,-0.47,1.44,9.12
49.339286,4.180694,27.5,-0.15,1.43,10.46
49.339286,4.180694,27.5,-0.22,0.83,10.13
49.339481,4.180932,27.79,0.86,1.95,9.78
49.339677,4.181176,28.24,0.45,1.55,10.18
49.339677,4.181176,28.24,-1.25,2.44,6.94
49.339877,4.181419,28.36,-0.16,1.62,7.21
49.339877,4.181419,28.36,-0.94,1.51,9.84
49.340078,4.18166,28.28,-0.13,0.95,10.29
49.340078,4.18166,28.28,0.04,1.35,13.51
49.340278,4.181901,28.33,0.04,1.94,12.16
49.340278,4.181901,28.33,-0.82,1.77,10.36
49.340478,4.182145,28.48,-1.49,0.84,9.86
49.340478,4.182145,28.48,-0.8,1.14,9.62
49.340678,4.182391,28.61,-1.11,1.1,10.31
49.340678,4.182391,28.61,0.34,0.83,8.33
49.34088,4.182636,28.75,-0.31,0.67,11.65
49.34088,4.182636,28.75,-0.82,0.99,9.02
49.341082,4.182883,28.8,-1.38,1.57,9.48
49.341082,4.182883,28.8,0.09,0.83,10.41
49.341285,4.183129,28.75,0.15,1.7,9.71
49.341285,4.183129,28.75,-0.83,1.48,10.03
49.341486,4.183373,28.5,-0.39,0.82,11.97
49.341486,4.183373,28.5,-0.85,0.32,8.47
49.341686,4.183613,28.23,0.28,0.18,9.89
49.341686,4.183613,28.23,-0.91,0.29,9.13
49.341884,4.183854,27.97,0.41,-0.08,10.0
49.341884,4.183854,27.97,-0.81,1.06,9.65
49.34208,4.184094,27.81,-1.33,1.49,8.0
49.34208,4.184094,27.81,-1.0,1.12,10.59
49.342277,4.184332,27.87,-0.84,0.69,11.81
49.342277,4.184332,27.87,-0.94,0.93,10.34
49.342474,4.184571,28.05,-0.81,1.51,9.05
49.342474,4.184571,28.05,-1.32,1.1,5.9
49.342674,4.184812,28.16,-1.43,1.02,7.41
49.342674,4.184812,28.16,-0.02,2.57,8.98
49.342873,4.185054,28.25,-0.25,1.16,8.63
49.342873,4.185054,28.25,0.6,1.94,10.07
49.343074,4.185298,28.29,-1.08,0.43,11.6
49.343074,4.185298,28.29,-0.79,0.93,9.76
49.343273,4.185538,28.18,-0.1,0.23,9.37
49.343273,4.185538,28.18,0.11,1.17,11.83
49.34347,4.185782,28.24,-0.32,1.08,10.73
49.34347,4.185782,28.24,-0.59,1.14,9.53
49.343667,4.186028,28.38,-0.86,1.14,10.39
49.343667,4.186028,28.38,-1.32,2.17,9.4
49.343867,4.18627,28.36,-1.56,1.34,9.15
49.344067,4.186509,28.31,-1.03,1.33,9.72
49.344067,4.186509,28.31,-0.74,0.91,10.37
49.344266,4.186751,28.36,0.11,0.68,10.82
49.344266,4.186751,28.36,0.54,1.64,11.23
49.344464,4.186993,28.45,-1.08,1.34,10.48
49.344464,4.186993,28.45,-0.82,1.86,10.44
49.344665,4.187235,28.67,0.48,1.85,9.66
49.344665,4.187235,28.67,0.02,1.63,11.49
49.344868,4.187479,28.83,-0.61,2.09,10.64
49.344868,4.187479,28.83,-0.68,2.25,9.33
49.345073,4.187726,29.0,0.18,1.75,8.99
49.345073,4.187726,29.0,-0.83,0.92,9.75
49.345277,4.187975,29.06,-1.07,0.84,9.96
49.345277,4.187975,29.06,-0.81,2.11,9.58
49.345483,4.188225,29.07,-0.25,1.42,10.67
49.345483,4.188225,29.07,-0.84,2.21,10.15
49.345688,4.188476,29.08,-0.66,2.01,7.02
49.345688,4.188476,29.08,-0.35,0.81,9.39
49.345894,4.188725,29.08,0.24,0.2,10.05
49.345894,4.188725,29.08,-0.25,1.3,10.36
49.3461,4.188975,29.03,0.8,1.23,9.58
49.3461,4.188975,29.03,-0.35,1.49,10.51
49.346304,4.189226,28.98,-0.71,2.1,9.17
49.346304,4.189226,28.98,-1.33,1.57,8.66
49.346507,4.189476,28.84,0.11,1.66,9.18
49.346507,4.189476,28.84,-0.41,0.6,9.24
49.346706,4.18973,28.71,0.5,0.91,10.88
49.346706,4.18973,28.71,1.01,0.9,10.19
49.346904,4.189989,28.89,1.69,1.32,10.72
49.346904,4.189989,28.89,0.41,1.24,8.48
49.347102,4.190246,29.11,0.8,1.31,11.38
49.347102,4.190246,29.11,0.75,1.86,9.81
49.34729,4.190522,29.28,1.25,1.78,7.73
49.34729,4.190522,29.28,1.0,0.41,10.55
49.347468,4.190818,29.06,-0.18,-0.1,11.74
49.347468,4.190818,29.06,0.7,-0.27,11.03
49.347633,4.191126,28.7,0.3,0.04,12.63
49.347633,4.191126,28.7,-0.18,0.0,10.18
49.347792,4.191439,28.41,0.26,0.96,10.64
49.347943,4.191742,28.25,1.51,0.61,9.38
49.347943,4.191742,28.25,0.86,1.68,9.38
49.348093,4.192047,28.14,0.32,1.51,7.85
49.348093,4.192047,28.14,0.3,0.73,7.72
49.34823,4.192371,27.86,0.17,1.61,9.01
49.34823,4.192371,27.86,0.98,1.47,9.89
49.348344,4.192712,27.7,0.36,1.71,8.21
49.348344,4.192712,27.7,0.32,2.36,8.71
49.348456,4.193057,27.86,0.17,1.56,9.06
49.348456,4.193057,27.86,0.74,0.79,10.34
49.348557,4.193402,28.02,0.73,1.18,10.0
49.348557,4.193402,28.02,-0.6,0.89,9.72
49.348646,4.193761,28.19,0.33,1.76,9.05
49.348646,4.193761,28.19,1.28,2.25,8.35
49.348725,4.194134,28.34,0.79,1.49,9.67
49.348725,4.194134,28.34,1.22,1.32,8.61
49.348793,4.194508,28.54,-0.47,1.7,7.15
49.348793,4.194508,28.54,1.42,1.98,9.44
49.348847,4.194892,28.98,0.09,2.16,9.01
49.348847,4.194892,28.98,-0.52,1.27,9.74
49.348902,4.195283,29.28,0.11,1.14,9.73
49.348902,4.195283,29.28,-1.17,1.14,9.95
49.348954,4.195679,29.48,-0.25,0.54,10.76
49.348954,4.195679,29.48,0.29,0.51,12.92
49.348996,4.196078,29.09,0.57,1.01,11.55
49.348996,4.196078,29.09,-1.26,0.47,8.63
49.349037,4.196474,28.76,-0.71,0.42,10.87
49.349037,4.196474,28.76,-0.47,1.21,9.91
49.349077,4.196868,28.71,0.1,1.27,10.11
49.349077,4.196868,28.71,-0.88,1.1,10.88
49.349116,4.197263,28.79,-0.97,1.28,9.46
49.349116,4.197263,28.79,-0.93,1.38,9.12
49.349156,4.197655,28.74,-1.38,0.9,7.53
49.349156,4.197655,28.74,-1.31,1.8,9.94
49.349203,4.198044,28.86,-0.9,0.92,9.61
49.349203,4.198044,28.86,-1.78,0.76,7.59
49.34926,4.198429,28.97,-1.28,1.05,10.78
49.34926,4.198429,28.97,-1.47,1.58,9.35
49.349324,4.198812,28.92,-1.1,1.62,9.62
49.349396,4.199193,29.15,-0.94,1.41,7.76
49.349396,4.199193,29.15,-0.7,2.04,7.99
49.349489,4.19957,29.01,-1.82,1.12,8.87
49.349489,4.19957,29.01,-1.61,0.58,10.51
49.349593,4.199941,29.01,-1.71,0.84,9.48
49.349593,4.199941,29.01,-1.08,2.0,10.92
49.349701,4.200309,28.86,-2.04,1.47,10.13
49.349701,4.200309,28.86,-0.91,1.56,10.27
49.349812,4.200671,28.77,-1.56,1.6,7.97
49.349812,4.200671,28.77,-1.86,1.38,7.26
49.349932,4.201028,28.77,-1.22,1.26,9.43
49.349932,4.201028,28.77,-0.26,2.02,9.39
49.350063,4.201371,28.53,-0.74,0.79,10.01
49.350063,4.201371,28.53,-1.65,0.48,10.99
49.350206,4.201693,28.53,-0.54,0.5,11.72
49.350206,4.201693,28.53,-1.18,0.83,10.05
49.35036,4.202008,28.61,-0.82,0.29,11.36
49.35036,4.202008,28.61,-0.42,0.91,9.36
49.350522,4.20232,28.6,-1.64,2.49,8.21
49.350522,4.20232,28.6,-0.66,0.86,9.09
49.350692,4.202622,28.56,-1.69,1.04,12.37
49.350692,4.202622,28.56,-1.88,-0.29,8.5
49.350866,4.202911,28.56,-0.72,2.02,10.53
49.350866,4.202911,28.56,-0.76,1.09,9.77
49.35105,4.203186,28.45,-1.1,1.51,10.5
49.35105,4.203186,28.45,-1.56,0.19,10.26
49.351242,4.203447,28.47,-2.3,-0.29,11.47
49.351242,4.203447,28.47,-0.98,0.82,9.81
49.351442,4.203696,28.46,-1.2,0.22,11.0
49.351442,4.203696,28.46,0.65,1.22,10.34
49.351642,4.203944,28.44,-1.0,1.54,8.55
49.351642,4.203944,28.44,-1.52,1.79,9.39
49.351843,4.204183,28.45,-1.74,0.9,10.13
49.351843,4.204183,28.45,-1.4,1.39,11.29
49.352055,4.204406,28.3,0.11,1.58,10.77
49.352055,4.204406,28.3,-1.13,0.61,10.84
49.352277,4.204609,28.36,-0.45,2.09,11.21
49.352277,4.204609,28.36,-1.53,1.22,9.59
49.352504,4.20478,28.22,-0.96,2.41,9.14
49.352731,4.204942,28.32,-1.51,2.34,8.16
49.352731,4.204942,28.32,-0.94,1.45,9.79
49.352968,4.205092,28.38,-0.9,2.6,9.36
49.352968,4.205092,28.38,-0.45,1.71,8.95
49.353206,4.205236,28.35,-0.4,1.63,9.76
49.353206,4.205236,28.35,-0.55,1.03,11.6
49.353445,4.205374,28.3,0.03,0.91,10.98
49.353445,4.205374,28.3,-1.39,1.22,9.36
49.353688,4.205517,28.35,-1.4,1.54,9.71
49.353688,4.205517,28.35,-1.13,0.79,8.93
49.353929,4.20565,28.35,-0.17,1.08,11.28
49.353929,4.20565,28.35,-0.76,0.91,10.19
49.354173,4.20578,28.49,-0.37,1.62,8.63
49.354173,4.20578,28.49,-0.3,1.25,10.73
49.354417,4.205906,28.53,0.37,1.11,11.69
49.354417,4.205906,28.53,0.22,1.19,10.07
49.35466,4.206038,28.72,-0.45,1.27,9.27
49.35466,4.206038,28.72,-0.56,1.45,11.02
49.354904,4.206174,28.68,-0.49,1.35,10.39
49.354904,4.206174,28.68,-2.07,1.78,8.94
49.355148,4.206309,28.79,-1.68,1.99,9.47
49.355148,4.206309,28.79,-0.76,1.28,9.01
49.355395,4.206438,28.79,-0.31,0.8,11.13
49.355395,4.206438,28.79,-1.07,1.5,9.86
49.355645,4.206558,28.63,-2.02,0.42,10.99
49.355645,4.206558,28.63,-1.0,0.81,10.22
49.355886,4.20667,28.39,0.11,0.36,10.98
49.355886,4.20667,28.39,0.38,0.36,11.08
49.356126,4.206776,28.46,0.24,1.86,11.25
49.356126,4.206776,28.46,-0.89,1.07,10.18
49.356374,4.206884,28.61,-1.66,0.98,8.5
49.356374,4.206884,28.61,-1.23,0.36,10.95
49.356621,4.206994,28.77,-0.44,1.48,9.28
49.356621,4.206994,28.77,-1.74,1.6,8.76
49.35687,4.207096,28.86,-1.84,1.78,8.2
49.35687,4.207096,28.86,-1.4,1.13,11.93
49.357124,4.207191,28.68,-0.72,1.09,10.41
49.357124,4.207191,28.68,-1.64,0.98,10.09
49.357377,4.20728,28.57,-1.47,0.77,9.71
49.357377,4.20728,28.57,-0.5,1.45,9.62
49.357625,4.207367,28.55,-1.39,0.78,6.14
