Location-lat,Location-long,Speed,Accelerometer-X,Accelerometer-Y,Accelerometer-Z
49.238298, 4.076721, 23.46, -1.77, 0.66, 9.70
49.238298, 4.076721, 23.46, -1.79, 0.68, 9.73
49.238298, 4.076721, 23.46, -1.82, 0.65, 9.67
49.238298, 4.076721, 23.46, -1.78, 0.67, 9.66
49.238298, 4.076721, 23.46, -1.76, 0.69, 9.69
49.238298, 4.076721, 23.46, -1.80, 0.63, 9.59
49.238298, 4.076721, 23.46, -1.79, 0.67, 9.64
49.238298, 4.076721, 23.46, -1.77, 0.79, 9.90
49.238298, 4.076721, 23.46, -1.79, 0.60, 9.64
49.238298, 4.076721, 23.46, -1.83, 0.77, 9.78
49.238298, 4.076721, 23.46, -1.81, 0.66, 9.74
49.238298, 4.076721, 23.46, -1.81, 0.66, 9.74
49.238298, 4.076721, 23.46, -1.78, 0.66, 9.69
49.238298, 4.076721, 23.46, -1.78, 0.66, 9.73
49.233095, 4.033849, 0.07, -1.56, 0.52, 9.65
49.233095, 4.033849, 0.07, -1.61, 0.50, 9.66
49.233110, 4.033896, 0.00, -1.44, 0.51, 9.74
49.233110, 4.033896, 0.00, -1.98, 0.76, 9.79
49.233092, 4.033885, 0.00, -2.40, 0.96, 9.62
49.233092, 4.033885, 0.00, -2.05, 0.79, 9.77
49.233092, 4.033885, 0.00, -1.75, 0.61, 9.78
49.233090, 4.033859, 0.00, -1.82, 0.67, 9.67
49.233090, 4.033859, 0.00, -2.51, 0.88, 9.53
49.233087, 4.033847, 0.00, -2.60, 0.40, 9.46
49.233087, 4.033847, 0.00, -2.36, 0.46, 9.68
49.233090, 4.033838, 0.00, -1.95, 0.42, 9.53
49.233090, 4.033838, 0.00, -2.11, 0.22, 9.80
49.233081, 4.033830, 0.00, -1.96, 0.22, 9.51
49.233081, 4.033830, 0.00, -2.19, 0.66, 9.88
49.233069, 4.033835, 0.00, -2.72, 0.86, 9.56
49.233069, 4.033835, 0.00, -2.44, 1.02, 9.42
49.233054, 4.033842, 0.00, -2.47, 0.41, 8.74
49.233054, 4.033842, 0.00, -2.47, 0.41, 10.00
49.233038, 4.033845, 0.00, -2.63, -0.05, 9.32
49.233038, 4.033845, 0.00, -1.94, -0.04, 8.46
49.233014, 4.033856, 0.00, -1.68, 0.55, 9.76
49.233014, 4.033856, 0.00, -2.01, -0.12, 9.53
49.232991, 4.033881, 0.00, -0.97, 0.27, 9.53
49.232991, 4.033881, 0.00, -1.05, -0.14, 9.39
49.232973, 4.033915, 0.00, -0.77, -0.03, 9.87
49.232973, 4.033915, 0.00, -1.14, 0.53, 10.19
49.232964, 4.033937, 0.00, -1.13, 0.25, 9.86
49.232964, 4.033937, 0.00, -1.15, 0.42, 9.93
49.232964, 4.033937, 0.00, -1.71, 0.55, 9.76
49.232964, 4.033937, 0.00, -2.37, 0.80, 9.68
49.232964, 4.033937, 0.00, -2.48, 0.61, 9.53
49.232964, 4.033937, 0.00, -2.50, 0.91, 9.65
49.232952, 4.033993, 0.00, -2.40, 0.77, 9.32
49.232952, 4.033993, 0.00, -2.48, 0.79, 9.55
49.232946, 4.034010, 0.00, -1.95, 0.37, 9.31
49.232946, 4.034010, 0.00, -1.99, 0.70, 9.21
49.232936, 4.034032, 0.00, -1.68, 0.95, 9.94
49.232936, 4.034032, 0.00, -1.65, 0.78, 8.81
49.232925, 4.034055, 0.00, -1.05, 0.00, 9.61
49.232925, 4.034055, 0.00, -1.22, 0.34, 9.38
49.232912, 4.034078, 0.00, -1.58, 0.42, 9.69
49.232912, 4.034078, 0.00, -1.81, 0.68, 9.92
49.232904, 4.034094, 0.00, -1.81, 0.73, 10.02
49.232904, 4.034094, 0.00, -1.84, 0.68, 9.40
49.232897, 4.034109, 0.00, -1.63, 0.68, 10.37
49.232897, 4.034109, 0.00, -2.05, 0.44, 9.82
49.232889, 4.034123, 1.05, -1.82, 0.61, 9.39
49.232889, 4.034123, 1.05, -2.21, 0.56, 9.10
49.232881, 4.034135, 1.01, -2.22, 0.62, 9.35
49.232881, 4.034135, 1.01, -2.25, 0.75, 8.59
49.232876, 4.034145, 0.81, -2.28, 0.60, 9.69
49.232876, 4.034145, 0.81, -2.08, 0.74, 9.69
49.232876, 4.034145, 0.00, -1.24, 0.41, 9.57
49.232876, 4.034145, 0.00, -2.51, 1.19, 8.93
49.232876, 4.034145, 0.00, -1.65, -0.62, 10.08
49.232876, 4.034145, 0.00, -2.65, 0.24, 9.63
49.232876, 4.034145, 0.00, -2.04, 1.46, 9.26
49.232856, 4.034179, 1.08, -1.83, 1.85, 8.95
49.232856, 4.034179, 1.08, -2.19, 0.94, 8.93
49.232843, 4.034180, 1.78, -3.33, 0.83, 10.41
49.232843, 4.034180, 1.78, -2.59, 1.34, 9.55
49.232827, 4.034164, 1.84, -2.56, 0.76, 9.35
49.232827, 4.034164, 1.84, -1.83, 0.44, 10.66
49.232805, 4.034133, 1.99, -3.07, 1.03, 9.40
49.232805, 4.034133, 1.99, -2.36, 0.13, 10.00
49.232778, 4.034082, 2.22, -2.97, 0.14, 8.97
49.232778, 4.034082, 2.22, -3.46, 2.41, 9.15
49.232746, 4.034021, 2.50, -2.12, -0.71, 8.96
49.232746, 4.034021, 2.50, -1.03, -0.08, 10.05
49.232713, 4.033952, 2.81, -3.03, 1.02, 13.66
49.232713, 4.033952, 2.81, -1.57, 0.65, 10.68
49.232677, 4.033879, 6.25, -1.95, 0.20, 9.75
49.232677, 4.033879, 6.25, -1.19, -0.38, 9.56
49.232640, 4.033806, 6.22, -0.34, 0.47, 12.44
49.232640, 4.033806, 6.22, -0.15, -0.66, 7.27
49.232603, 4.033737, 5.87, -0.98, 0.64, 10.53
49.232603, 4.033737, 5.87, -0.34, 1.02, 9.82
49.232571, 4.033676, 5.47, -1.09, 0.57, 10.05
49.232571, 4.033676, 5.47, -1.60, 1.80, 9.91
49.232541, 4.033618, 5.10, -2.06, 2.35, 10.66
49.232541, 4.033618, 5.10, -2.16, 1.13, 9.60
49.232518, 4.033552, 5.92, -2.94, 1.36, 10.20
49.232518, 4.033552, 5.92, -1.88, 0.01, 8.73
49.232498, 4.033470, 6.51, -1.25, -0.34, 10.79
49.232498, 4.033470, 6.51, -1.97, -1.61, 9.50
49.232476, 4.033387, 6.47, -1.64, -2.05, 9.66
49.232476, 4.033387, 6.47, -2.08, -1.93, 10.22
49.232451, 4.033308, 5.92, -1.91, -2.74, 10.93
49.232451, 4.033308, 5.92, -1.14, -2.87, 9.05
49.232408, 4.033251, 5.94, -1.39, -2.86, 9.05
49.232408, 4.033251, 5.94, -2.16, -2.44, 9.96
49.232351, 4.033233, 6.06, -2.31, -2.33, 9.76
49.232351, 4.033233, 6.06, -2.86, -2.11, 10.73
49.232292, 4.033248, 6.49, -1.72, 0.69, 8.35
49.232292, 4.033248, 6.49, -2.26, 0.36, 8.94
49.232238, 4.033307, 7.55, -2.36, 1.94, 11.11
49.232182, 4.033395, 8.86, -3.03, 0.88, 9.73
49.232182, 4.033395, 8.86, -2.11, 1.74, 11.31
49.232116, 4.033487, 9.78, -2.57, 1.24, 9.49
49.232116, 4.033487, 9.78, -2.72, 0.98, 11.78
49.232037, 4.033587, 11.33, -1.51, 1.35, 10.84
49.232037, 4.033587, 11.33, -2.92, 0.84, 10.16
49.231945, 4.033678, 12.17, -1.59, 2.36, 8.45
49.231945, 4.033678, 12.17, -1.93, 0.49, 9.12
49.231842, 4.033765, 12.77, -2.58, -0.34, 9.32
49.231842, 4.033765, 12.77, -1.59, 0.68, 9.91
49.231732, 4.033851, 13.32, -1.50, 0.81, 10.49
49.231732, 4.033851, 13.32, -2.31, 0.23, 7.92
49.231617, 4.033930, 13.55, -2.35, -0.15, 10.46
49.231617, 4.033930, 13.55, -1.99, 0.60, 10.46
49.231501, 4.034011, 13.67, -1.42, -1.07, 9.36
49.231501, 4.034011, 13.67, -1.33, -0.85, 8.81
49.231386, 4.034095, 13.67, -1.97, 0.11, 10.44
49.231386, 4.034095, 13.67, -1.64, -0.72, 9.56
49.231274, 4.034179, 13.35, -1.02, 0.22, 9.27
49.231274, 4.034179, 13.35, -1.96, 0.36, 11.60
49.231165, 4.034266, 13.17, -1.67, -0.31, 10.04
49.231165, 4.034266, 13.17, -1.92, 0.12, 10.46
49.231061, 4.034349, 12.80, -2.33, -0.13, 9.61
49.231061, 4.034349, 12.80, -1.91, -0.42, 8.96
49.230958, 4.034435, 12.73, -1.26, -0.54, 8.95
49.230958, 4.034435, 12.73, -1.76, 0.23, 10.33
49.230858, 4.034521, 12.32, -1.14, -0.51, 9.76
49.230858, 4.034521, 12.32, -0.72, -0.32, 9.56
49.230761, 4.034602, 12.16, -1.36, -0.68, 9.93
49.230761, 4.034602, 12.16, -1.51, -0.12, 9.71
49.230665, 4.034684, 11.78, -0.86, -0.69, 8.56
49.230665, 4.034684, 11.78, -0.52, -0.57, 8.91
49.230577, 4.034759, 10.94, -0.09, -1.48, 8.80
49.230577, 4.034759, 10.94, 1.00, -0.59, 9.88
49.230495, 4.034824, 9.78, 0.09, -0.41, 10.02
49.230495, 4.034824, 9.78, 0.55, 0.01, 10.40
49.230427, 4.034882, 8.14, -0.03, -0.29, 10.02
49.230427, 4.034882, 8.14, -0.09, -0.68, 9.46
49.230374, 4.034926, 6.35, -1.15, -0.62, 9.72
49.230374, 4.034926, 6.35, -1.03, -0.11, 9.90
49.230334, 4.034958, 4.76, -2.08, 0.24, 9.57
49.230334, 4.034958, 4.76, -2.34, -0.22, 9.27
49.230296, 4.034987, 4.91, -2.00, 0.09, 9.35
49.230258, 4.035022, 5.39, -1.90, -0.51, 9.99
49.230258, 4.035022, 5.39, -2.04, -0.17, 9.83
49.230217, 4.035060, 5.51, -1.56, -0.41, 9.60
49.230217, 4.035060, 5.51, -1.67, -0.49, 9.19
49.230176, 4.035102, 5.59, -1.85, -1.48, 10.06
49.230176, 4.035102, 5.59, -1.71, -1.08, 9.81
49.230138, 4.035152, 5.78, -1.26, -0.36, 9.63
49.230138, 4.035152, 5.78, -0.84, 0.01, 9.46
49.230103, 4.035204, 5.09, -0.27, 0.24, 9.42
49.230103, 4.035204, 5.09, -0.41, -0.32, 9.53
49.230073, 4.035248, 4.02, -0.52, 0.08, 9.71
49.230073, 4.035248, 4.02, -0.75, 0.20, 9.65
49.230048, 4.035281, 3.42, -1.17, -0.17, 9.90
49.230048, 4.035281, 3.42, -1.09, -0.14, 9.67
49.230026, 4.035308, 3.15, -1.26, -0.02, 9.86
49.230026, 4.035308, 3.15, -1.31, -0.49, 9.80
49.230005, 4.035335, 2.88, -0.68, -0.25, 9.73
49.230005, 4.035335, 2.88, -0.56, 0.24, 9.80
49.229988, 4.035357, 1.96, -0.46, -0.44, 9.96
49.229988, 4.035357, 1.96, -0.60, -0.35, 9.51
49.229977, 4.035370, 1.13, -0.81, -0.34, 9.85
49.229977, 4.035370, 1.13, -1.46, 0.23, 9.66
49.229977, 4.035370, 0.00, -1.89, 0.04, 9.65
49.229977, 4.035370, 0.00, -0.73, -0.07, 9.84
49.229977, 4.035370, 0.00, -0.82, -0.33, 9.66
49.229977, 4.035370, 0.00, -1.08, -0.21, 9.86
49.229977, 4.035370, 0.00, -1.50, 0.18, 9.85
49.229977, 4.035370, 0.00, -1.73, 0.14, 9.75
49.229977, 4.035370, 0.00, -1.27, -0.09, 9.76
49.229977, 4.035370, 0.00, -1.41, -0.29, 9.74
49.229977, 4.035370, 0.00, -1.33, -0.31, 9.82
49.229977, 4.035370, 0.00, -1.55, -0.13, 9.78
49.229977, 4.035370, 0.00, -1.66, -0.04, 9.78
49.229977, 4.035370, 0.00, -1.52, 0.14, 9.74
49.229977, 4.035370, 0.00, -1.39, 0.05, 9.73
49.229977, 4.035370, 0.00, -1.68, -0.14, 9.63
49.229977, 4.035370, 0.00, -2.48, -0.18, 9.55
49.229977, 4.035370, 0.00, -2.74, -0.13, 9.60
49.229977, 4.035370, 0.00, -3.15, 0.04, 9.36
49.229977, 4.035370, 0.00, -3.42, -0.36, 9.77
49.229951, 4.035396, 2.05, -3.85, -1.17, 9.79
49.229951, 4.035396, 2.05, -3.72, -1.70, 9.43
49.229927, 4.035431, 4.36, -2.32, -2.31, 9.27
49.229927, 4.035431, 4.36, -1.47, -2.03, 10.03
49.229896, 4.035495, 6.00, -0.26, -2.06, 9.74
49.229875, 4.035577, 5.69, 0.11, -1.92, 9.88
49.229875, 4.035577, 5.69, 1.13, -0.99, 9.50
49.229876, 4.035655, 4.44, 1.70, -0.68, 9.86
49.229876, 4.035655, 4.44, 1.50, 0.10, 10.35
49.229889, 4.035709, 2.46, 1.11, -0.14, 9.62
49.229889, 4.035709, 2.46, 0.52, -0.06, 9.94
49.229889, 4.035709, 0.00, -1.22, 0.07, 9.69
49.229889, 4.035709, 0.00, -1.61, -0.05, 9.73
49.229910, 4.035746, 1.01, -3.11, 0.01, 9.36
49.229910, 4.035746, 1.01, -3.30, -0.27, 9.52
49.229927, 4.035761, 2.66, -3.71, -1.46, 9.49
49.229927, 4.035761, 2.66, -3.60, -2.10, 10.21
49.229957, 4.035790, 4.29, -3.11, -3.26, 9.93
49.229957, 4.035790, 4.29, -2.35, -2.76, 9.36
49.230003, 4.035823, 5.38, -2.75, -3.00, 9.42
49.230003, 4.035823, 5.38, -2.59, -3.01, 9.79
49.230067, 4.035855, 7.73, -2.07, -2.92, 9.76
49.230067, 4.035855, 7.73, -2.69, -0.86, 10.03
49.230153, 4.035827, 8.85, -2.10, -0.18, 9.75
49.230153, 4.035827, 8.85, -1.73, 0.52, 9.10
49.230254, 4.035774, 10.44, -2.07, 0.21, 9.93
49.230254, 4.035774, 10.44, -1.81, -0.41, 10.46
49.230362, 4.035714, 10.98, -0.71, 0.02, 9.13
49.230362, 4.035714, 10.98, -1.48, 0.13, 10.49
49.230481, 4.035650, 12.22, -1.02, 0.72, 10.27
49.230481, 4.035650, 12.22, -1.21, 1.05, 9.82
49.230614, 4.035585, 13.71, -0.92, 1.26, 10.32
49.230614, 4.035585, 13.71, -1.24, 0.98, 8.83
49.230745, 4.035530, 13.72, -0.87, 1.75, 10.03
49.230745, 4.035530, 13.72, -1.09, 2.22, 9.73
49.230883, 4.035489, 14.96, -1.13, 1.86, 10.01
49.230883, 4.035489, 14.96, -0.79, 0.63, 9.78
49.231022, 4.035486, 15.04, -1.36, 1.70, 10.47
49.231022, 4.035486, 15.04, -0.73, 0.81, 9.76
49.231161, 4.035506, 14.85, -0.81, 1.48, 10.32
49.231161, 4.035506, 14.85, -0.47, 2.50, 10.09
49.231296, 4.035551, 14.78, -1.21, 1.75, 8.85
49.231296, 4.035551, 14.78, -0.73, 2.44, 10.52
49.231423, 4.035632, 14.74, -1.48, 1.18, 10.59
49.231423, 4.035632, 14.74, -0.99, 2.26, 11.14
49.231544, 4.035741, 14.71, -1.25, 0.62, 9.91
49.231544, 4.035741, 14.71, -1.60, 0.87, 9.06
49.231649, 4.035869, 14.57, -1.26, 0.40, 9.14
49.231740, 4.036016, 14.84, -0.58, -0.60, 8.40
49.231740, 4.036016, 14.84, -1.13, 0.09, 11.70
49.231830, 4.036164, 14.49, -1.19, -0.36, 10.45
49.231830, 4.036164, 14.49, -0.80, -0.65, 10.07
49.231917, 4.036319, 14.06, -1.09, 0.77, 10.12
49.231917, 4.036319, 14.06, -1.91, -0.37, 10.13
49.232000, 4.036476, 13.73, -0.66, -1.15, 10.31
49.232000, 4.036476, 13.73, -1.12, 2.40, 11.97
49.232081, 4.036624, 13.28, -1.48, 0.03, 9.73
49.232081, 4.036624, 13.28, -1.17, -0.59, 8.73
49.232153, 4.036766, 12.78, -0.40, 0.23, 9.71
49.232153, 4.036766, 12.78, -0.65, -0.06, 9.62
49.232224, 4.036904, 12.35, -0.77, -0.61, 10.05
49.232224, 4.036904, 12.35, -0.31, 0.10, 11.26
49.232293, 4.037037, 11.87, -0.35, -0.47, 9.78
49.232293, 4.037037, 11.87, -0.24, -0.91, 10.37
49.232358, 4.037160, 11.08, -1.02, 0.07, 9.84
49.232358, 4.037160, 11.08, -0.62, -0.37, 9.72
49.232419, 4.037273, 10.23, -0.03, -1.24, 9.44
49.232419, 4.037273, 10.23, -0.24, -0.80, 10.08
49.232475, 4.037374, 8.72, 0.04, 0.11, 9.85
49.232475, 4.037374, 8.72, 0.96, -0.65, 9.42
49.232518, 4.037457, 6.95, 0.24, -0.30, 9.80
49.232518, 4.037457, 6.95, 0.04, -0.69, 10.35
49.232555, 4.037524, 5.36, 0.84, -0.63, 10.18
49.232555, 4.037524, 5.36, 0.83, -0.36, 10.26
49.232584, 4.037572, 3.83, 0.74, -0.34, 9.77
49.232584, 4.037572, 3.83, 0.98, -0.59, 9.93
49.232598, 4.037595, 1.74, -0.06, -0.74, 9.91
49.232598, 4.037595, 1.74, -1.77, -0.60, 9.78
49.232598, 4.037595, 0.00, -1.45, -0.37, 9.92
49.232598, 4.037595, 0.00, -1.51, -0.45, 9.74
49.232598, 4.037595, 0.00, -1.29, -0.32, 9.97
49.232598, 4.037595, 0.00, -1.66, -0.64, 9.63
49.232598, 4.037595, 0.00, -1.43, -0.52, 9.68
49.232598, 4.037595, 0.00, -1.37, -0.60, 9.66
49.232598, 4.037595, 0.00, -1.41, -0.62, 9.80
49.232598, 4.037595, 0.00, -1.62, -0.46, 9.80
49.232598, 4.037595, 0.00, -1.46, -0.36, 9.80
49.232598, 4.037595, 0.00, -1.94, -0.62, 9.61
49.232598, 4.037595, 0.00, -2.22, -0.57, 9.51
49.232598, 4.037595, 0.00, -2.66, -0.02, 9.86
49.232598, 4.037595, 0.00, -1.61, -0.46, 9.89
49.232598, 4.037595, 0.00, -1.31, -0.34, 9.98
49.232598, 4.037595, 0.00, -1.29, -0.15, 9.88
49.232604, 4.037620, 1.29, -1.28, -0.36, 9.32
49.232604, 4.037620, 1.29, -1.48, -0.46, 9.89
49.232615, 4.037638, 1.44, -0.80, -0.57, 9.89
49.232615, 4.037638, 1.44, -0.73, -0.73, 9.59
49.232623, 4.037654, 1.01, -1.42, -0.25, 9.80
49.232623, 4.037654, 1.01, -1.67, -0.06, 9.77
49.232632, 4.037668, 1.10, -2.04, -0.36, 9.41
49.232632, 4.037668, 1.10, -2.42, -0.35, 9.44
49.232647, 4.037686, 1.62, -2.76, -0.26, 9.93
49.232647, 4.037686, 1.62, -2.79, -0.07, 9.53
49.232667, 4.037713, 2.97, -2.96, -0.14, 9.78
49.232667, 4.037713, 2.97, -3.02, -0.93, 10.02
49.232690, 4.037752, 4.02, -1.80, -0.03, 9.97
49.232690, 4.037752, 4.02, -0.91, -0.29, 9.77
49.232716, 4.037800, 4.36, -1.55, -0.38, 9.70
49.232716, 4.037800, 4.36, -1.87, -0.30, 10.16
49.232745, 4.037846, 4.65, -2.36, -0.50, 9.88
49.232745, 4.037846, 4.65, -2.09, -0.33, 9.62
49.232776, 4.037898, 5.36, -2.23, -0.38, 10.28
49.232776, 4.037898, 5.36, -1.93, -0.34, 9.77
49.232810, 4.037959, 6.15, -1.42, -0.74, 9.42
49.232810, 4.037959, 6.15, -1.36, -0.37, 9.55
49.232844, 4.038024, 6.59, -1.37, -0.74, 9.53
49.232844, 4.038024, 6.59, -2.26, -0.45, 9.39
49.232885, 4.038094, 6.69, -2.35, -0.73, 8.95
49.232885, 4.038094, 6.69, -2.08, -0.54, 9.77
49.232927, 4.038163, 7.52, -1.97, -0.23, 10.01
49.232927, 4.038163, 7.52, -2.94, -0.56, 9.50
49.232973, 4.038242, 8.23, -1.54, -0.43, 9.51
49.232973, 4.038242, 8.23, -2.61, 0.18, 9.36
49.233027, 4.038331, 8.95, -2.60, -0.93, 9.39
49.233027, 4.038331, 8.95, -1.69, 0.30, 9.70
49.233084, 4.038428, 9.85, -2.43, -0.45, 9.61
49.233084, 4.038428, 9.85, -1.93, -0.06, 9.88
49.233144, 4.038535, 10.31, -1.71, -0.08, 10.15
49.233144, 4.038535, 10.31, -1.52, -0.02, 10.11
49.233206, 4.038646, 10.60, -2.09, -0.42, 10.95
49.233268, 4.038757, 10.59, -1.13, -0.90, 9.62
49.233268, 4.038757, 10.59, -1.39, 0.25, 9.78
49.233328, 4.038869, 10.63, -1.63, -0.73, 10.29
49.233328, 4.038869, 10.63, -1.50, -0.54, 9.99
49.233390, 4.038979, 10.81, -1.64, 0.27, 10.02
49.233390, 4.038979, 10.81, -1.42, 0.27, 10.46
49.233453, 4.039090, 10.86, -2.92, 0.36, 10.06
49.233453, 4.039090, 10.86, -1.77, 0.13, 9.66
49.233517, 4.039205, 10.99, -1.47, -0.09, 8.25
49.233517, 4.039205, 10.99, -1.76, -0.65, 9.83
49.233581, 4.039317, 11.19, -1.53, -0.39, 9.98
49.233581, 4.039317, 11.19, -1.96, 0.04, 9.45
49.233645, 4.039434, 11.44, -2.11, -1.22, 10.26
49.233645, 4.039434, 11.44, -1.71, -0.10, 9.18
49.233712, 4.039555, 11.96, -2.01, -0.07, 10.25
49.233712, 4.039555, 11.96, -1.86, 0.33, 9.68
49.233786, 4.039681, 12.31, -2.04, -0.35, 9.03
49.233786, 4.039681, 12.31, -1.72, -0.46, 9.40
49.233859, 4.039813, 13.05, -1.63, 0.40, 9.85
49.233859, 4.039813, 13.05, -1.33, -0.58, 9.81
49.233937, 4.039949, 13.32, -1.61, 0.15, 8.45
49.233937, 4.039949, 13.32, 0.75, 0.06, 8.35
49.234017, 4.040091, 13.32, -1.84, -1.02, 10.45
49.234017, 4.040091, 13.32, -1.48, -0.88, 10.61
49.234092, 4.040228, 13.00, -1.33, 0.22, 8.66
49.234092, 4.040228, 13.00, -0.66, -0.04, 10.38
49.234169, 4.040358, 12.69, -0.81, -0.76, 9.20
49.234169, 4.040358, 12.69, 0.08, -0.32, 9.95
49.234241, 4.040481, 12.04, 0.11, -0.90, 9.97
49.234241, 4.040481, 12.04, -2.83, 1.57, 7.02
49.234307, 4.040597, 10.89, -1.42, -0.30, 10.14
49.234307, 4.040597, 10.89, -0.71, -1.08, 8.32
49.234369, 4.040707, 10.56, -1.79, -0.87, 9.55
49.234369, 4.040707, 10.56, -1.11, -0.05, 9.85
49.234428, 4.040812, 10.00, -0.97, 1.02, 9.56
49.234428, 4.040812, 10.00, -1.13, 0.93, 9.96
49.234483, 4.040920, 9.70, -1.30, 1.05, 9.25
49.234483, 4.040920, 9.70, -1.24, 0.96, 10.13
49.234528, 4.041036, 9.58, -1.06, 1.47, 9.63
49.234528, 4.041036, 9.58, -0.79, 1.23, 9.51
49.234560, 4.041154, 9.52, -0.69, 1.62, 9.70
49.234583, 4.041280, 9.40, -1.36, 1.44, 9.19
49.234583, 4.041280, 9.40, -1.52, 1.51, 10.12
49.234582, 4.041416, 9.69, -1.09, 1.20, 9.43
49.234582, 4.041416, 9.69, -1.60, 1.64, 10.12
49.234556, 4.041554, 10.18, -1.44, 1.82, 10.14
49.234556, 4.041554, 10.18, -0.60, 1.70, 9.84
49.234512, 4.041687, 10.59, -0.64, 2.19, 9.01
49.234512, 4.041687, 10.59, -0.60, 2.03, 10.17
49.234447, 4.041801, 10.78, -0.70, 2.06, 9.26
49.234447, 4.041801, 10.78, -1.36, 1.60, 10.45
49.234358, 4.041890, 10.97, -1.18, 2.89, 10.11
49.234358, 4.041890, 10.97, -0.57, 2.40, 10.43
49.234264, 4.041962, 11.06, -0.96, 1.80, 9.44
49.234264, 4.041962, 11.06, -1.11, 1.96, 9.60
49.234160, 4.041993, 11.45, -0.41, 2.57, 9.83
49.234160, 4.041993, 11.45, -0.58, 2.77, 10.72
49.234055, 4.041977, 11.46, -0.51, 2.58, 9.68
49.234055, 4.041977, 11.46, -0.60, 2.46, 9.19
49.233958, 4.041913, 11.32, -0.49, 2.78, 10.29
49.233958, 4.041913, 11.32, -0.86, 2.63, 9.90
49.233865, 4.041786, 11.65, -0.83, 2.86, 10.31
49.233865, 4.041786, 11.65, -0.88, 2.80, 10.31
49.233799, 4.041637, 11.85, -1.59, 3.07, 10.44
49.233799, 4.041637, 11.85, -1.03, 3.09, 10.92
49.233755, 4.041464, 12.15, -0.77, 3.00, 9.81
49.233755, 4.041464, 12.15, -0.81, 3.33, 9.43
49.233740, 4.041280, 12.46, -1.32, 2.50, 9.06
49.233740, 4.041280, 12.46, -1.32, 3.44, 9.85
49.233762, 4.041096, 12.58, -1.29, 3.52, 9.48
49.233762, 4.041096, 12.58, -2.14, 2.39, 10.98
49.233819, 4.040926, 12.75, -2.40, 0.86, 10.04
49.233819, 4.040926, 12.75, -1.72, 1.68, 10.66
49.233902, 4.040778, 13.43, -1.81, -0.37, 10.04
49.233902, 4.040778, 13.43, -1.72, -0.05, 8.82
49.234005, 4.040644, 14.27, -1.54, -0.68, 9.73
49.234005, 4.040644, 14.27, -2.34, -0.11, 9.89
49.234119, 4.040511, 15.14, -2.15, -0.28, 10.12
49.234119, 4.040511, 15.14, -1.34, -0.35, 9.34
49.234233, 4.040371, 15.57, -2.10, -0.43, 10.11
49.234233, 4.040371, 15.57, -2.34, -0.98, 10.68
49.234343, 4.040233, 15.16, -2.75, -0.93, 10.43
49.234462, 4.040082, 16.24, -2.41, -1.28, 9.36
49.234462, 4.040082, 16.24, -1.96, -0.73, 9.56
49.234595, 4.039923, 17.84, -2.37, -0.52, 10.32
49.234595, 4.039923, 17.84, -2.23, -0.23, 10.15
49.234735, 4.039760, 18.79, -1.71, -0.54, 9.71
49.234735, 4.039760, 18.79, -2.04, 0.00, 9.34
49.234879, 4.039585, 20.21, -2.35, -0.75, 9.62
49.234879, 4.039585, 20.21, -1.60, -0.78, 10.13
49.235031, 4.039411, 21.09, -1.96, -0.69, 10.07
49.235031, 4.039411, 21.09, -1.57, -1.35, 9.75
49.235189, 4.039231, 22.01, -2.17, -0.12, 9.13
49.235189, 4.039231, 22.01, -2.36, -0.04, 9.74
49.235352, 4.039045, 22.64, -2.25, -0.14, 10.46
49.235352, 4.039045, 22.64, -1.62, -0.44, 9.63
49.235516, 4.038855, 23.20, -1.26, -0.48, 9.02
49.235516, 4.038855, 23.20, -1.18, -0.91, 9.67
49.235685, 4.038661, 23.61, -1.25, 0.36, 9.40
49.235685, 4.038661, 23.61, -2.22, -0.65, 10.30
49.235853, 4.038464, 23.99, -1.60, -1.23, 9.45
49.235853, 4.038464, 23.99, -1.70, -0.53, 10.71
49.236024, 4.038262, 24.38, -1.86, -1.38, 8.99
49.236024, 4.038262, 24.38, -1.88, -0.89, 8.62
49.236195, 4.038051, 24.74, -1.05, -0.89, 6.78
49.236195, 4.038051, 24.74, -1.44, 0.27, 10.33
49.236365, 4.037835, 24.88, -1.48, -0.82, 8.63
49.236365, 4.037835, 24.88, -1.21, -0.43, 10.42
49.236539, 4.037616, 25.19, -1.87, 0.19, 9.43
49.236539, 4.037616, 25.19, -1.29, 0.16, 10.20
49.236717, 4.037395, 25.41, -1.47, 0.31, 9.40
49.236717, 4.037395, 25.41, -1.76, -0.34, 11.01
49.236902, 4.037176, 25.50, -2.00, -0.34, 10.04
49.236902, 4.037176, 25.50, -0.97, -0.41, 9.01
49.237081, 4.036960, 25.52, -1.82, -0.56, 10.07
49.237081, 4.036960, 25.52, -1.72, -0.83, 10.20
49.237265, 4.036747, 25.45, -0.23, -1.45, 9.32
49.237265, 4.036747, 25.45, -0.53, -1.17, 10.18
49.237448, 4.036532, 25.30, -1.78, -0.21, 10.00
49.237448, 4.036532, 25.30, -1.45, -0.12, 10.64
49.237632, 4.036327, 25.08, -1.08, 0.03, 10.08
49.237632, 4.036327, 25.08, -0.80, 0.12, 8.21
49.237814, 4.036124, 24.85, -0.59, -0.61, 10.69
49.237995, 4.035926, 24.65, -0.75, 0.13, 10.77
49.237995, 4.035926, 24.65, -1.05, -0.38, 9.42
49.238173, 4.035723, 24.54, -1.12, -0.39, 10.04
49.238173, 4.035723, 24.54, -0.74, -0.63, 9.45
49.238347, 4.035523, 24.38, -2.01, -1.43, 11.21
49.238347, 4.035523, 24.38, -0.87, -0.56, 9.96
49.238523, 4.035327, 24.42, -1.11, 0.09, 10.10
49.238523, 4.035327, 24.42, -1.66, 0.93, 8.92
49.238698, 4.035134, 24.47, -1.28, 1.61, 9.02
49.238698, 4.035134, 24.47, -1.48, 0.36, 8.97
49.238883, 4.034945, 24.66, -1.79, -0.89, 9.67
49.238883, 4.034945, 24.66, -1.01, -0.40, 10.55
49.239076, 4.034763, 24.77, -1.41, -0.90, 11.27
49.239076, 4.034763, 24.77, -1.43, 0.20, 8.63
49.239270, 4.034575, 24.95, -0.85, 0.33, 9.65
49.239270, 4.034575, 24.95, -1.43, -0.76, 9.76
49.239462, 4.034392, 24.96, -1.44, 0.34, 9.78
49.239462, 4.034392, 24.96, -1.55, -0.80, 8.54
49.239657, 4.034209, 25.05, -1.27, 0.14, 10.07
49.239657, 4.034209, 25.05, -1.74, -0.05, 10.25
49.239852, 4.034028, 25.16, -1.39, 0.53, 9.49
49.239852, 4.034028, 25.16, -1.45, -0.79, 10.97
49.240047, 4.033848, 25.20, -1.30, -0.55, 9.05
49.240047, 4.033848, 25.20, -1.55, -1.35, 10.59
49.240243, 4.033664, 25.40, -2.06, -0.29, 8.81
49.240243, 4.033664, 25.40, -1.39, -0.82, 8.86
49.240439, 4.033486, 25.41, -2.08, -0.43, 10.12
49.240439, 4.033486, 25.41, -1.16, 0.45, 8.26
49.240633, 4.033309, 25.47, -0.62, -0.45, 9.85
49.240633, 4.033309, 25.47, -1.37, -0.67, 9.44
49.240826, 4.033126, 25.44, -1.04, -0.39, 10.66
49.240826, 4.033126, 25.44, -0.89, -0.29, 10.67
49.241020, 4.032946, 25.42, -0.90, -0.45, 10.04
49.241020, 4.032946, 25.42, -0.81, -0.60, 9.73
49.241216, 4.032766, 25.47, -1.36, -0.15, 9.70
49.241216, 4.032766, 25.47, -0.64, -0.68, 9.23
49.241414, 4.032585, 25.47, -1.94, -0.32, 10.87
49.241414, 4.032585, 25.47, -1.11, -0.62, 11.25
49.241609, 4.032403, 25.53, -0.99, -1.15, 8.56
49.241808, 4.032216, 25.52, -2.00, -0.53, 9.27
49.241808, 4.032216, 25.52, -0.78, -0.80, 10.71
49.242008, 4.032040, 25.47, -0.53, -0.18, 8.05
49.242008, 4.032040, 25.47, -0.85, -0.19, 9.81
49.242206, 4.031866, 25.39, -0.89, -0.09, 10.70
49.242206, 4.031866, 25.39, -1.25, -0.12, 9.36
49.242398, 4.031685, 25.12, -1.06, 0.03, 7.98
49.242398, 4.031685, 25.12, -1.02, -0.43, 10.90
49.242589, 4.031508, 24.76, -1.10, -0.20, 9.48
49.242589, 4.031508, 24.76, -1.39, -0.96, 8.74
49.242780, 4.031338, 24.75, -0.87, -1.19, 10.59
49.242780, 4.031338, 24.75, -0.89, -0.78, 10.28
49.242974, 4.031174, 24.62, -1.09, -1.08, 11.15
49.242974, 4.031174, 24.62, -0.86, -0.19, 9.89
49.243166, 4.031014, 24.18, -0.04, -1.23, 9.37
49.243166, 4.031014, 24.18, -0.91, -0.34, 10.73
49.243357, 4.030854, 24.07, -1.00, -0.62, 8.75
49.243357, 4.030854, 24.07, -1.05, -0.10, 9.33
49.243543, 4.030690, 24.02, -1.71, -0.37, 11.35
49.243543, 4.030690, 24.02, -0.53, -0.91, 10.42
49.243726, 4.030525, 23.88, -0.56, -0.23, 9.77
49.243726, 4.030525, 23.88, -0.39, -0.71, 9.29
49.243926, 4.030371, 23.47, -0.59, -1.14, 10.02
49.243926, 4.030371, 23.47, -1.36, -0.82, 12.15
49.244110, 4.030206, 23.20, -1.30, -0.34, 9.77
49.244110, 4.030206, 23.20, -0.97, 0.11, 10.17
49.244281, 4.030042, 22.91, -0.49, -0.04, 10.30
49.244281, 4.030042, 22.91, -1.63, -0.15, 10.03
49.244457, 4.029877, 22.82, -0.74, -0.68, 10.05
49.244457, 4.029877, 22.82, -1.73, -0.41, 10.04
49.244633, 4.029712, 22.66, -1.27, -0.15, 10.48
49.244633, 4.029712, 22.66, -1.23, -0.57, 10.73
49.244807, 4.029549, 22.56, -1.59, 0.47, 9.30
49.244807, 4.029549, 22.56, -1.20, 0.43, 10.71
49.244977, 4.029385, 22.53, -1.06, 0.08, 10.99
49.244977, 4.029385, 22.53, -1.30, -0.73, 9.11
49.245144, 4.029218, 22.23, -1.58, 0.63, 11.22
49.245144, 4.029218, 22.23, -0.49, -0.08, 10.29
49.245309, 4.029048, 22.43, -0.89, 0.23, 9.84
49.245309, 4.029048, 22.43, -0.61, -0.28, 9.53
49.245474, 4.028879, 22.17, -0.23, -0.89, 8.73
49.245474, 4.028879, 22.17, -0.58, 0.06, 10.05
49.245639, 4.028713, 21.86, -0.38, -1.16, 9.74
49.245799, 4.028546, 21.45, -0.90, 0.15, 9.31
49.245799, 4.028546, 21.45, -0.15, -0.98, 9.03
49.245956, 4.028380, 21.14, -0.91, 0.43, 8.76
49.245956, 4.028380, 21.14, -1.00, -0.81, 10.93
49.246108, 4.028215, 20.76, -0.68, 0.05, 9.65
49.246108, 4.028215, 20.76, -1.74, -0.37, 10.08
49.246259, 4.028053, 20.66, -1.29, 0.10, 9.59
49.246259, 4.028053, 20.66, -1.59, 0.32, 9.66
49.246408, 4.027882, 20.78, -1.70, -0.86, 9.97
49.246408, 4.027882, 20.78, -0.67, -0.84, 10.01
49.246549, 4.027702, 21.04, -1.11, 0.49, 10.61
49.246549, 4.027702, 21.04, -1.02, -0.12, 10.75
49.246695, 4.027522, 21.27, -1.26, -0.24, 10.89
49.246695, 4.027522, 21.27, -2.11, -0.63, 9.53
49.246837, 4.027344, 21.60, -1.27, 0.48, 8.64
49.246837, 4.027344, 21.60, -0.61, -1.30, 8.94
49.246978, 4.027154, 21.64, -0.93, 0.21, 8.26
49.246978, 4.027154, 21.64, -1.03, 0.10, 10.23
49.247138, 4.026973, 21.54, -1.10, -0.64, 10.69
49.247138, 4.026973, 21.54, -1.46, 0.11, 10.89
49.247286, 4.026783, 21.40, -1.17, -0.40, 10.70
49.247286, 4.026783, 21.40, -2.15, -0.16, 8.78
49.247431, 4.026592, 21.33, -0.99, 0.03, 10.81
49.247431, 4.026592, 21.33, -1.22, 0.65, 9.59
49.247575, 4.026399, 21.42, -1.45, 0.62, 9.39
49.247575, 4.026399, 21.42, -1.52, 0.24, 9.91
49.247719, 4.026203, 21.35, -1.46, -0.16, 9.60
49.247719, 4.026203, 21.35, -0.99, -0.42, 9.47
49.247865, 4.026008, 21.33, -0.89, -0.35, 9.59
49.247865, 4.026008, 21.33, -1.49, -0.62, 9.88
49.248009, 4.025811, 21.36, -0.80, -0.60, 9.46
49.248009, 4.025811, 21.36, -1.09, 0.23, 10.07
49.248153, 4.025611, 21.39, -1.57, 0.90, 10.17
49.248153, 4.025611, 21.39, -1.28, -0.88, 9.29
49.248301, 4.025415, 21.38, -1.06, 0.20, 8.94
49.248301, 4.025415, 21.38, -0.93, -0.66, 8.98
49.248444, 4.025220, 21.26, -1.17, -0.03, 10.42
49.248444, 4.025220, 21.26, -0.39, -0.59, 8.82
49.248587, 4.025032, 20.99, -1.58, 0.34, 10.15
49.248587, 4.025032, 20.99, -0.87, -0.22, 9.62
49.248727, 4.024844, 20.75, -0.59, -0.57, 9.28
49.248727, 4.024844, 20.75, 0.19, 0.48, 9.92
49.248869, 4.024651, 20.35, -1.02, 0.05, 10.24
49.249003, 4.024464, 20.11, -0.53, 0.51, 9.82
49.249003, 4.024464, 20.11, -1.05, 0.34, 10.47
49.249139, 4.024278, 19.99, -0.69, 0.02, 8.57
49.249139, 4.024278, 19.99, 0.27, 1.36, 7.90
49.249273, 4.024096, 19.66, -0.67, 0.35, 10.20
49.249273, 4.024096, 19.66, -1.21, -0.36, 10.45
49.249402, 4.023915, 19.42, -1.38, 0.83, 9.17
49.249402, 4.023915, 19.42, -1.13, 1.13, 9.24
49.249529, 4.023734, 19.44, -2.14, 0.74, 10.52
49.249529, 4.023734, 19.44, -1.92, 0.44, 11.05
49.249657, 4.023556, 19.80, -1.99, -0.14, 9.03
49.249657, 4.023556, 19.80, -1.68, -0.34, 10.15
49.249789, 4.023373, 20.27, -2.37, 0.18, 9.84
49.249789, 4.023373, 20.27, -1.75, 0.19, 10.73
49.249926, 4.023183, 20.73, -1.68, -0.29, 9.38
49.249926, 4.023183, 20.73, -1.55, -0.21, 9.41
49.250065, 4.022987, 21.15, -1.50, -0.27, 8.96
49.250065, 4.022987, 21.15, -1.32, -0.65, 9.71
49.250206, 4.022786, 21.64, -2.08, 0.65, 10.21
49.250206, 4.022786, 21.64, -2.14, -0.58, 9.80
49.250350, 4.022577, 21.86, -0.54, 0.22, 11.11
49.250350, 4.022577, 21.86, -1.25, 0.40, 8.82
49.250494, 4.022365, 21.92, -1.91, 0.20, 10.86
49.250494, 4.022365, 21.92, -1.23, 0.47, 10.33
49.250638, 4.022152, 21.96, -1.13, -0.67, 9.95
49.250638, 4.022152, 21.96, -1.63, -0.68, 9.95
49.250783, 4.021942, 21.96, -1.21, 0.48, 9.20
49.250783, 4.021942, 21.96, -1.74, 0.39, 10.01
49.250925, 4.021732, 21.77, -1.28, -0.04, 10.50
49.250925, 4.021732, 21.77, -0.75, 0.98, 10.09
49.251077, 4.021523, 22.03, -1.17, -0.10, 10.93
49.251077, 4.021523, 22.03, -1.13, -0.46, 8.71
49.251219, 4.021315, 21.91, -1.45, -0.30, 11.04
49.251219, 4.021315, 21.91, -2.08, 2.02, 11.14
49.251357, 4.021102, 21.91, -1.57, -0.54, 9.97
49.251357, 4.021102, 21.91, -0.97, -0.91, 10.62
49.251493, 4.020888, 21.82, -2.60, 0.58, 10.55
49.251493, 4.020888, 21.82, -0.84, -1.04, 8.99
49.251623, 4.020667, 21.64, -1.71, -0.22, 10.70
49.251744, 4.020440, 21.45, -1.69, -2.11, 10.15
49.251744, 4.020440, 21.45, -0.47, -2.73, 9.07
49.251865, 4.020211, 21.25, -0.53, -1.69, 10.74
49.251865, 4.020211, 21.25, -0.91, -0.86, 10.18
49.251980, 4.019976, 20.47, -1.07, -0.73, 10.33
49.251980, 4.019976, 20.47, -0.58, -1.03, 9.84
49.252088, 4.019747, 19.60, -1.13, -0.65, 9.72
49.252088, 4.019747, 19.60, -1.39, 0.04, 8.63
49.252178, 4.019533, 18.57, -1.13, -0.33, 10.47
49.252178, 4.019533, 18.57, -1.06, 0.08, 10.96
49.252265, 4.019328, 17.67, -1.31, 1.94, 14.04
49.252265, 4.019328, 17.67, -0.14, 0.03, 8.11
49.252343, 4.019128, 16.47, -0.58, -0.60, 7.15
49.252343, 4.019128, 16.47, -0.18, 0.91, 10.48
49.252421, 4.018950, 15.12, -0.33, 1.29, 9.66
49.252421, 4.018950, 15.12, -0.92, 2.74, 10.36
49.252503, 4.018801, 14.26, -0.65, 1.96, 10.29
49.252503, 4.018801, 14.26, -0.45, 2.43, 9.09
49.252604, 4.018685, 13.45, -1.28, 2.52, 8.60
49.252604, 4.018685, 13.45, -1.14, 2.99, 10.02
49.252712, 4.018615, 13.27, -1.64, 3.42, 10.49
49.252712, 4.018615, 13.27, -1.61, 3.09, 11.52
49.252828, 4.018593, 13.08, -1.42, 3.25, 8.64
49.252828, 4.018593, 13.08, -1.65, 3.11, 10.13
49.252938, 4.018604, 12.93, -0.69, 2.29, 9.11
49.252938, 4.018604, 12.93, -1.13, 2.72, 11.32
49.253050, 4.018658, 13.41, -0.49, 1.37, 9.05
49.253050, 4.018658, 13.41, -0.13, -0.19, 10.33
49.253162, 4.018746, 13.21, 0.10, -0.79, 9.35
49.253162, 4.018746, 13.21, 0.63, -0.97, 10.10
49.253265, 4.018840, 12.38, 0.55, -0.65, 10.12
49.253265, 4.018840, 12.38, 0.11, 0.74, 10.77
49.253363, 4.018923, 11.58, 0.51, -0.24, 9.61
49.253363, 4.018923, 11.58, 2.05, -0.61, 10.34
49.253452, 4.018994, 9.15, 1.79, 0.19, 10.17
49.253452, 4.018994, 9.15, 1.49, -0.41, 9.54
49.253523, 4.019053, 7.67, 1.08, -0.13, 10.12
49.253523, 4.019053, 7.67, 1.02, -1.05, 10.65
49.253577, 4.019087, 4.52, 0.60, -0.33, 10.00
49.253577, 4.019087, 4.52, 0.23, -0.28, 10.05
49.253612, 4.019117, 2.67, 0.18, -0.49, 9.77
49.253612, 4.019117, 0.00, -0.22, -0.33, 10.15
49.253612, 4.019117, 0.00, -0.34, -0.44, 10.09
49.253612, 4.019117, 0.00, -1.32, -0.37, 9.62
49.253612, 4.019117, 0.00, -1.46, -0.36, 9.75
49.253612, 4.019117, 0.00, -1.36, -0.34, 9.91
49.253612, 4.019117, 0.00, -1.91, -0.53, 9.82
49.253612, 4.019117, 0.00, -1.45, -0.36, 9.71
49.253612, 4.019117, 0.00, -1.21, -0.46, 10.22
49.253675, 4.019176, 2.51, -0.97, -0.38, 10.04
49.253675, 4.019176, 2.51, -0.65, -0.46, 9.51
49.253675, 4.019176, 0.00, -0.09, -0.34, 10.23
49.253675, 4.019176, 0.00, -0.20, -0.28, 10.06
49.253675, 4.019176, 0.00, -0.17, -0.50, 9.98
49.253675, 4.019176, 0.00, -0.20, -0.47, 9.50
49.253675, 4.019176, 0.00, -0.19, -0.50, 9.87
49.253675, 4.019176, 0.00, -0.09, -0.43, 9.84
49.253675, 4.019176, 0.00, -0.27, -0.49, 10.04
49.253675, 4.019176, 0.00, -1.02, -0.45, 10.05
49.253675, 4.019176, 0.00, -0.84, -0.36, 9.86
49.253675, 4.019176, 0.00, -0.94, -0.42, 9.81
49.253675, 4.019176, 0.00, -0.87, -0.45, 9.84
49.253675, 4.019176, 0.00, -0.87, -0.42, 9.84
49.253675, 4.019176, 0.00, -0.86, -0.43, 9.84
49.253675, 4.019176, 0.00, -0.90, -0.40, 9.83
49.253675, 4.019176, 0.00, -0.85, -0.42, 9.87
49.253675, 4.019176, 0.00, -0.81, -0.41, 9.82
49.253675, 4.019176, 0.00, -0.84, -0.39, 9.82
49.253675, 4.019176, 0.00, -0.87, -0.44, 9.83
49.253675, 4.019176, 0.00, -0.85, -0.40, 9.84
49.253675, 4.019176, 0.00, -0.83, -0.41, 9.80
49.253675, 4.019176, 0.00, -0.86, -0.43, 9.86
49.253675, 4.019176, 0.00, -0.87, -0.36, 9.82
49.253675, 4.019176, 0.00, -0.88, -0.45, 9.84
49.253675, 4.019176, 0.00, -0.88, -0.41, 9.86
49.253675, 4.019176, 0.00, -0.82, -0.39, 9.85
49.253675, 4.019176, 0.00, -0.88, -0.41, 9.85
49.253675, 4.019176, 0.00, -0.83, -0.43, 9.86
49.253675, 4.019176, 0.00, -1.61, -0.43, 9.82
49.253675, 4.019176, 0.00, -1.71, -0.30, 9.73
49.253675, 4.019176, 0.00, -1.56, -0.46, 9.84
49.253675, 4.019176, 0.00, -1.45, -0.45, 9.60
49.253675, 4.019176, 0.00, -1.40, -0.36, 10.17
49.253675, 4.019176, 0.00, -1.18, -0.31, 9.40
49.253751, 4.019253, 0.00, -1.44, -0.45, 9.86
49.253751, 4.019253, 0.00, -1.63, -0.31, 9.80
49.253751, 4.019253, 0.00, -1.58, -0.12, 10.32
49.253751, 4.019253, 0.00, -1.61, -0.38, 9.59
49.253787, 4.019294, 3.12, -1.52, -0.43, 9.69
49.253787, 4.019294, 3.12, -1.37, -0.34, 9.70
49.253814, 4.019322, 3.64, -1.25, -0.30, 9.28
49.253814, 4.019322, 3.64, -1.19, -0.41, 9.54
49.253840, 4.019360, 4.02, -0.93, -0.44, 10.19
49.253840, 4.019360, 4.02, -0.86, -0.01, 9.95
49.253872, 4.019393, 4.35, -1.03, -0.31, 9.81
49.253872, 4.019393, 4.35, -0.60, -0.33, 9.33
49.253901, 4.019434, 4.49, -0.84, -0.48, 9.30
49.253901, 4.019434, 4.49, -0.95, 0.10, 10.17
49.253929, 4.019473, 4.59, -0.73, -0.66, 10.40
49.253929, 4.019473, 4.59, -0.97, -0.17, 9.99
49.253960, 4.019513, 4.63, -0.57, -0.22, 10.10
49.253960, 4.019513, 4.63, -0.64, -0.39, 10.13
49.253993, 4.019555, 4.73, -0.27, -0.42, 9.64
49.253993, 4.019555, 4.73, -0.64, -0.38, 10.01
49.254027, 4.019591, 4.44, -0.57, -0.56, 9.85
49.254027, 4.019591, 4.44, -0.77, -0.32, 9.67
49.254060, 4.019625, 4.27, -0.73, -0.48, 9.64
49.254060, 4.019625, 4.27, -0.54, -0.20, 10.18
49.254094, 4.019659, 4.21, -0.70, 0.02, 10.35
49.254094, 4.019659, 4.21, -0.32, -0.51, 10.31
49.254119, 4.019696, 3.95, -0.32, -0.27, 10.28
49.254119, 4.019696, 3.95, -0.53, -0.30, 9.87
49.254144, 4.019733, 3.74, -0.50, -0.64, 9.82
49.254144, 4.019733, 3.74, -0.34, -0.60, 9.23
49.254171, 4.019764, 3.54, -0.25, -0.62, 9.95
49.254171, 4.019764, 3.54, -1.24, -0.82, 9.76
49.254196, 4.019794, 3.20, -0.73, -0.45, 9.88
49.254196, 4.019794, 3.20, -0.56, -0.23, 9.79
49.254220, 4.019817, 3.04, -0.79, -0.46, 10.04
49.254220, 4.019817, 3.04, -0.53, -0.31, 9.53
49.254239, 4.019837, 2.88, -0.20, -0.32, 10.04
49.254239, 4.019837, 2.88, -0.29, -0.28, 9.91
49.254239, 4.019837, 0.00, -0.09, -0.25, 9.43
49.254239, 4.019837, 0.00, -0.09, -0.09, 9.95
49.254239, 4.019837, 0.00, 0.07, -0.34, 10.09
49.254239, 4.019837, 0.00, 0.07, -0.11, 9.80
49.254239, 4.019837, 0.00, -0.10, -0.26, 9.89
49.254239, 4.019837, 0.00, 0.03, -0.22, 9.76
49.254239, 4.019837, 0.00, -0.92, -0.30, 9.93
49.254239, 4.019837, 0.00, -0.75, -0.24, 9.91
49.254239, 4.019837, 0.00, -0.81, -0.28, 9.86
49.254239, 4.019837, 0.00, -0.67, -0.26, 9.81
49.254239, 4.019837, 0.00, -0.72, -0.23, 9.85
49.254239, 4.019837, 0.00, -0.79, -0.27, 9.86
49.254239, 4.019837, 0.00, -0.79, -0.27, 9.84
49.254239, 4.019837, 0.00, -0.87, -0.23, 9.88
49.254239, 4.019837, 0.00, -0.74, -0.26, 9.83
49.254239, 4.019837, 0.00, -0.81, -0.25, 9.84
49.254239, 4.019837, 0.00, -0.81, -0.23, 9.84
49.254239, 4.019837, 0.00, -0.75, -0.23, 9.88
49.254239, 4.019837, 0.00, -0.80, -0.29, 9.84
49.254239, 4.019837, 0.00, -0.81, -0.24, 9.86
49.254239, 4.019837, 0.00, -0.86, -0.27, 9.83
49.254239, 4.019837, 0.00, -0.78, -0.24, 9.92
49.254239, 4.019837, 0.00, -0.74, -0.29, 9.88
49.254239, 4.019837, 0.00, -0.79, -0.23, 9.87
49.254239, 4.019837, 0.00, -0.79, -0.25, 9.83
49.254239, 4.019837, 0.00, -0.80, -0.28, 9.84
49.254239, 4.019837, 0.00, -0.67, -0.33, 9.80
49.254239, 4.019837, 0.00, -0.79, -0.22, 9.85
49.254239, 4.019837, 0.00, -0.77, -0.28, 9.83
49.254239, 4.019837, 0.00, -0.87, -0.22, 9.86
49.254239, 4.019837, 0.00, -0.88, -0.24, 9.85
49.254239, 4.019837, 0.00, -0.81, -0.25, 9.84
49.254239, 4.019837, 0.00, -0.77, -0.28, 9.86
49.254239, 4.019837, 0.00, -0.81, -0.29, 9.84
49.254239, 4.019837, 0.00, -0.79, -0.26, 9.85
49.254239, 4.019837, 0.00, -0.79, -0.26, 9.85
49.254239, 4.019837, 0.00, -0.81, -0.30, 9.86
49.254239, 4.019837, 0.00, -0.79, -0.28, 9.86
49.254239, 4.019837, 0.00, -0.82, -0.23, 9.85
49.254239, 4.019837, 0.00, -0.79, -0.28, 9.84
49.254239, 4.019837, 0.00, -0.79, -0.25, 9.87
49.254239, 4.019837, 0.00, -0.79, -0.26, 9.83
49.254239, 4.019837, 0.00, -0.75, -0.24, 9.86
49.254239, 4.019837, 0.00, -0.82, -0.26, 9.84
49.254239, 4.019837, 0.00, -0.82, -0.24, 9.86
49.254239, 4.019837, 0.00, -0.80, -0.25, 9.84
49.254239, 4.019837, 0.00, -0.80, -0.29, 9.85
49.254239, 4.019837, 0.00, -0.81, -0.26, 9.84
49.254239, 4.019837, 0.00, -0.80, -0.26, 9.87
49.254239, 4.019837, 0.00, -0.79, -0.23, 9.82
49.254239, 4.019837, 0.00, -0.79, -0.29, 9.86
49.254239, 4.019837, 0.00, -0.79, -0.28, 9.88
49.254239, 4.019837, 0.00, -0.80, -0.23, 9.86
49.254239, 4.019837, 0.00, -0.84, -0.24, 9.88
49.254239, 4.019837, 0.00, -0.83, -0.18, 9.79
49.254239, 4.019837, 0.00, -0.83, -0.23, 9.84
49.254239, 4.019837, 0.00, -0.73, -0.35, 9.93
49.254239, 4.019837, 0.00, -0.77, -0.28, 9.82
49.254239, 4.019837, 0.00, -0.82, -0.25, 9.87
49.254239, 4.019837, 0.00, -0.80, -0.23, 9.84
49.254239, 4.019837, 0.00, -0.79, -0.24, 9.87
49.254239, 4.019837, 0.00, -0.80, -0.27, 9.84
49.254239, 4.019837, 0.00, -0.80, -0.28, 9.89
49.254239, 4.019837, 0.00, -0.79, -0.25, 9.86
49.254239, 4.019837, 0.00, -0.84, -0.25, 9.81
49.254239, 4.019837, 0.00, -0.79, -0.24, 9.85
49.254239, 4.019837, 0.00, -0.77, -0.24, 9.86
49.254239, 4.019837, 0.00, -0.80, -0.24, 9.86
49.254239, 4.019837, 0.00, -0.77, -0.26, 9.82
49.254239, 4.019837, 0.00, -0.80, -0.26, 9.83
49.254239, 4.019837, 0.00, -0.78, -0.25, 9.86
49.254239, 4.019837, 0.00, -0.82, -0.26, 9.88
49.254239, 4.019837, 0.00, -0.81, -0.24, 9.84
49.254239, 4.019837, 0.00, -0.85, -0.27, 9.86
49.254239, 4.019837, 0.00, -0.83, -0.24, 9.84
49.254239, 4.019837, 0.00, -0.78, -0.27, 9.84
49.254239, 4.019837, 0.00, -0.85, -0.28, 9.83
49.254239, 4.019837, 0.00, -0.81, -0.26, 9.84
49.254239, 4.019837, 0.00, -0.81, -0.26, 9.86
49.254239, 4.019837, 0.00, -0.82, -0.26, 9.85
49.254239, 4.019837, 0.00, -0.81, -0.27, 9.85
49.254239, 4.019837, 0.00, -0.80, -0.29, 9.86
49.254239, 4.019837, 0.00, -0.83, -0.23, 9.86
49.254239, 4.019837, 0.00, -0.81, -0.26, 9.89
49.254239, 4.019837, 0.00, -0.82, -0.22, 9.89
49.254239, 4.019837, 0.00, -0.81, -0.24, 9.86
49.254239, 4.019837, 0.00, -0.81, -0.28, 9.85
49.254239, 4.019837, 0.00, -0.80, -0.21, 9.87
49.254239, 4.019837, 0.00, -0.81, -0.26, 9.84
49.254239, 4.019837, 0.00, -0.77, -0.27, 9.84
49.254239, 4.019837, 0.00, -0.84, -0.26, 9.86
49.254239, 4.019837, 0.00, -0.79, -0.24, 9.85
49.254239, 4.019837, 0.00, -0.79, -0.28, 9.85
49.254239, 4.019837, 0.00, -0.85, -0.27, 9.82
49.254239, 4.019837, 0.00, -0.77, -0.23, 9.81
49.254239, 4.019837, 0.00, -0.81, -0.24, 9.84
49.254239, 4.019837, 0.00, -0.80, -0.26, 9.86
49.254239, 4.019837, 0.00, -0.82, -0.28, 9.84
49.254239, 4.019837, 0.00, -0.94, -0.45, 10.09
49.254239, 4.019837, 0.00, -1.68, -0.30, 9.82
49.254239, 4.019837, 0.00, -1.24, -0.31, 9.95
49.254239, 4.019837, 0.00, -0.38, -0.22, 9.88
49.254239, 4.019837, 0.00, -0.46, -0.21, 9.96
49.254239, 4.019837, 0.00, -0.52, -0.30, 9.88
49.254239, 4.019837, 0.00, -0.62, -0.26, 9.78
49.254239, 4.019837, 0.00, -0.60, 0.13, 10.21
49.254239, 4.019837, 0.00, -0.81, -0.22, 9.83
49.254239, 4.019837, 0.00, -0.86, -0.24, 9.83
49.254239, 4.019837, 0.00, -0.81, -0.23, 9.85
49.254239, 4.019837, 0.00, -0.80, -0.26, 9.81
49.254239, 4.019837, 0.00, -0.82, -0.23, 9.83
49.254239, 4.019837, 0.00, -0.81, -0.27, 9.89
49.254239, 4.019837, 0.00, -0.82, -0.28, 9.85
49.254239, 4.019837, 0.00, -0.82, -0.25, 9.85
49.254239, 4.019837, 0.00, -0.83, -0.25, 9.87
49.254239, 4.019837, 0.00, -1.77, -0.31, 9.67
49.254239, 4.019837, 0.00, -1.74, -0.21, 9.73
49.254239, 4.019837, 0.00, -2.03, -0.15, 9.79
49.254239, 4.019837, 0.00, -1.99, -0.34, 9.47
49.254239, 4.019837, 0.00, -1.78, -0.10, 10.14
49.254239, 4.019837, 0.00, -1.58, -0.18, 9.73
49.254312, 4.019928, 2.73, -1.37, -0.45, 10.18
49.254312, 4.019928, 2.73, -1.49, 0.03, 9.94
49.254339, 4.019956, 3.66, -1.69, -0.15, 9.65
49.254339, 4.019956, 3.66, -1.65, -0.21, 9.24
49.254370, 4.019991, 4.40, -1.85, 0.24, 9.28
49.254370, 4.019991, 4.40, -1.64, -0.58, 10.11
49.254407, 4.020034, 5.08, -1.76, -0.14, 9.78
49.254407, 4.020034, 5.08, -1.75, 0.25, 10.44
49.254449, 4.020080, 5.91, -1.40, -0.27, 9.69
49.254495, 4.020128, 6.34, -1.61, 0.02, 9.06
49.254495, 4.020128, 6.34, -1.46, -0.09, 9.61
49.254542, 4.020178, 6.85, -1.58, 0.18, 9.12
49.254542, 4.020178, 6.85, -1.31, -0.25, 9.81
49.254592, 4.020242, 7.23, -0.70, -0.54, 9.72
49.254592, 4.020242, 7.23, -0.63, -0.43, 9.95
49.254642, 4.020301, 6.64, -0.27, -0.35, 9.24
49.254642, 4.020301, 6.64, -0.41, -0.93, 9.55
49.254686, 4.020351, 6.05, -0.42, -0.27, 9.98
49.254686, 4.020351, 6.05, -0.61, -0.32, 9.91
49.254724, 4.020394, 5.49, -0.61, -0.22, 9.54
49.254724, 4.020394, 5.49, 0.15, -0.53, 9.50
49.254763, 4.020433, 4.65, -0.06, -0.40, 10.18
49.254763, 4.020433, 4.65, -0.35, -0.28, 9.83
49.254794, 4.020463, 3.66, -0.10, -0.33, 9.71
49.254794, 4.020463, 3.66, -0.08, -0.16, 9.91
49.254818, 4.020482, 2.49, 0.09, -0.06, 9.88
49.254818, 4.020482, 2.49, 0.41, -0.22, 10.34
49.254831, 4.020495, 1.05, -0.11, -0.11, 9.80
49.254831, 4.020495, 1.05, -1.49, -0.20, 9.83
49.254831, 4.020495, 0.00, -1.11, -0.14, 9.82
49.254831, 4.020495, 0.00, -1.29, -0.11, 9.76
49.254831, 4.020495, 0.00, -1.26, -0.17, 9.85
49.254831, 4.020495, 0.00, -1.21, -0.12, 9.84
49.254831, 4.020495, 0.00, -1.27, -0.16, 9.79
49.254831, 4.020495, 0.00, -1.30, -0.15, 9.83
49.254831, 4.020495, 0.00, -1.27, -0.13, 9.84
49.254831, 4.020495, 0.00, -1.31, -0.11, 9.90
49.254831, 4.020495, 0.00, -1.26, -0.12, 9.81
49.254831, 4.020495, 0.00, -1.27, -0.14, 9.82
49.254831, 4.020495, 0.00, -1.27, -0.15, 9.79
49.254831, 4.020495, 0.00, -1.23, -0.16, 9.83
49.254831, 4.020495, 0.00, -1.21, -0.15, 9.84
49.254831, 4.020495, 0.00, -1.29, -0.15, 9.85
49.254831, 4.020495, 0.00, -1.24, -0.12, 9.83
49.254831, 4.020495, 0.00, -1.27, -0.15, 9.79
49.254831, 4.020495, 0.00, -1.37, -0.12, 9.79
49.254831, 4.020495, 0.00, -1.36, -0.14, 9.86
49.254831, 4.020495, 0.00, -1.18, -0.12, 9.84
49.254831, 4.020495, 0.00, -1.25, -0.13, 9.85
49.254831, 4.020495, 0.00, -1.26, -0.16, 9.83
49.254831, 4.020495, 0.00, -1.37, -0.14, 9.80
49.254831, 4.020495, 0.00, -1.29, -0.11, 9.83
49.254831, 4.020495, 0.00, -1.31, -0.17, 9.79
49.254831, 4.020495, 0.00, -1.24, -0.17, 9.83
49.254831, 4.020495, 0.00, -1.24, -0.14, 9.83
49.254831, 4.020495, 0.00, -1.28, -0.14, 9.80
49.254831, 4.020495, 0.00, -1.19, -0.16, 9.84
49.254831, 4.020495, 0.00, -1.19, -0.15, 9.80
49.254831, 4.020495, 0.00, -1.25, -0.11, 9.84
49.254831, 4.020495, 0.00, -1.24, -0.12, 9.77
49.254831, 4.020495, 0.00, -1.31, -0.16, 9.80
49.254831, 4.020495, 0.00, -1.21, -0.13, 9.85
49.254831, 4.020495, 0.00, -1.26, -0.13, 9.78
49.254831, 4.020495, 0.00, -1.26, -0.13, 9.81
49.254831, 4.020495, 0.00, -1.29, -0.09, 9.86
49.254831, 4.020495, 0.00, -1.25, -0.12, 9.86
49.254831, 4.020495, 0.00, -1.19, -0.13, 9.82
49.254831, 4.020495, 0.00, -1.23, -0.17, 9.77
49.254831, 4.020495, 0.00, -1.24, -0.15, 9.82
49.254831, 4.020495, 0.00, -1.29, -0.08, 9.80
49.254831, 4.020495, 0.00, -1.25, -0.18, 9.82
49.254831, 4.020495, 0.00, -1.24, -0.15, 9.76
49.254831, 4.020495, 0.00, -1.23, -0.16, 9.84
49.254831, 4.020495, 0.00, -1.27, -0.14, 9.81
49.254831, 4.020495, 0.00, -1.29, -0.13, 9.82
49.254831, 4.020495, 0.00, -1.27, -0.13, 9.81
49.254831, 4.020495, 0.00, -1.29, -0.19, 9.77
49.254831, 4.020495, 0.00, -1.24, -0.12, 9.83
49.254831, 4.020495, 0.00, -1.25, -0.14, 9.82
49.254831, 4.020495, 0.00, -1.26, -0.13, 9.85
49.254831, 4.020495, 0.00, -1.28, -0.15, 9.81
49.254831, 4.020495, 0.00, -1.24, -0.16, 9.83
49.254831, 4.020495, 0.00, -1.24, -0.12, 9.81
49.254831, 4.020495, 0.00, -1.18, -0.14, 9.83
49.254831, 4.020495, 0.00, -1.23, -0.14, 9.89
49.254831, 4.020495, 0.00, -1.23, -0.13, 9.81
49.254831, 4.020495, 0.00, -1.24, -0.11, 9.79
49.254831, 4.020495, 0.00, -1.23, -0.10, 9.82
49.254831, 4.020495, 0.00, -1.27, -0.15, 9.80
49.254831, 4.020495, 0.00, -1.26, -0.13, 9.78
49.254831, 4.020495, 0.00, -1.25, -0.13, 9.82
49.254831, 4.020495, 0.00, -1.29, -0.12, 9.84
49.254831, 4.020495, 0.00, -1.24, -0.14, 9.84
49.254831, 4.020495, 0.00, -1.27, -0.14, 9.81
49.254831, 4.020495, 0.00, -1.28, -0.15, 9.77
49.254831, 4.020495, 0.00, -1.33, -0.12, 9.83
49.254831, 4.020495, 0.00, -1.28, -0.13, 9.82
49.254831, 4.020495, 0.00, -1.26, -0.13, 9.85
49.254831, 4.020495, 0.00, -1.32, -0.11, 9.87
49.254831, 4.020495, 0.00, -1.24, -0.13, 9.81
49.254831, 4.020495, 0.00, -1.26, -0.16, 9.81
49.254831, 4.020495, 0.00, -1.29, -0.09, 9.80
49.254831, 4.020495, 0.00, -1.23, -0.15, 9.81
49.254831, 4.020495, 0.00, -1.24, -0.13, 9.81
49.254831, 4.020495, 0.00, -1.21, -0.14, 9.78
49.254831, 4.020495, 0.00, -1.24, -0.13, 9.80
49.254831, 4.020495, 0.00, -1.28, -0.16, 9.82
49.254831, 4.020495, 0.00, -1.25, -0.15, 9.74
49.254831, 4.020495, 0.00, -1.24, -0.13, 9.84
49.254831, 4.020495, 0.00, -1.20, -0.12, 9.80
49.254831, 4.020495, 0.00, -1.24, -0.14, 9.83
49.254831, 4.020495, 0.00, -1.27, -0.11, 9.77
49.254831, 4.020495, 0.00, -1.31, -0.15, 9.88
49.254831, 4.020495, 0.00, -1.25, -0.11, 9.86
49.254831, 4.020495, 0.00, -1.17, -0.08, 9.88
49.254831, 4.020495, 0.00, -1.34, -0.09, 9.86
49.254831, 4.020495, 0.00, -1.30, -0.13, 9.79
49.254831, 4.020495, 0.00, -1.28, -0.17, 9.80
49.254831, 4.020495, 0.00, -1.26, -0.18, 9.78
49.254831, 4.020495, 0.00, -1.24, -0.12, 9.82
49.254831, 4.020495, 0.00, -1.31, -0.11, 9.82
49.254831, 4.020495, 0.00, -1.28, -0.11, 9.82
49.254831, 4.020495, 0.00, -1.27, -0.06, 9.88
49.254831, 4.020495, 0.00, -1.33, -0.15, 9.79
49.254831, 4.020495, 0.00, -1.24, -0.16, 9.79
49.254831, 4.020495, 0.00, -1.37, -0.11, 9.81
49.254831, 4.020495, 0.00, -1.21, -0.14, 9.85
49.254831, 4.020495, 0.00, -1.26, -0.15, 9.81
49.254831, 4.020495, 0.00, -1.29, -0.14, 9.81
49.254831, 4.020495, 0.00, -1.26, -0.11, 9.84
49.254831, 4.020495, 0.00, -1.25, -0.13, 9.84
49.254831, 4.020495, 0.00, -1.24, -0.12, 9.79
49.254831, 4.020495, 0.00, -1.19, -0.15, 9.78
49.254831, 4.020495, 0.00, -1.29, -0.12, 9.78
49.254831, 4.020495, 0.00, -1.26, -0.17, 9.84
49.254831, 4.020495, 0.00, -1.21, -0.12, 9.83
49.254831, 4.020495, 0.00, -1.31, -0.12, 9.81
49.254831, 4.020495, 0.00, -1.27, -0.11, 9.80
49.254831, 4.020495, 0.00, -1.25, -0.13, 9.80
49.254831, 4.020495, 0.00, -1.18, -0.16, 9.82
49.254831, 4.020495, 0.00, -1.27, -0.13, 9.81
49.254831, 4.020495, 0.00, -1.24, -0.16, 9.79
49.254831, 4.020495, 0.00, -1.32, -0.12, 9.84
49.254831, 4.020495, 0.00, -1.24, -0.18, 9.80
49.254831, 4.020495, 0.00, -1.32, -0.13, 9.78
49.254831, 4.020495, 0.00, -1.24, -0.14, 9.85
49.254831, 4.020495, 0.00, -1.31, -0.04, 9.88
49.254831, 4.020495, 0.00, -1.28, -0.11, 9.82
49.254831, 4.020495, 0.00, -1.34, -0.16, 9.83
49.254831, 4.020495, 0.00, -1.27, -0.09, 9.88
49.254831, 4.020495, 0.00, -1.20, 0.25, 9.40
49.254831, 4.020495, 0.00, -1.24, -0.07, 9.78
49.254831, 4.020495, 0.00, -1.23, -0.25, 9.87
49.254831, 4.020495, 0.00, -1.35, -0.15, 9.86
49.254831, 4.020495, 0.00, -1.26, -0.13, 9.80
49.254831, 4.020495, 0.00, -1.24, -0.15, 9.78
49.254831, 4.020495, 0.00, -1.24, -0.12, 9.86
49.254831, 4.020495, 0.00, -2.60, -0.13, 9.80
49.254831, 4.020495, 0.00, -2.91, -0.08, 9.49
49.254831, 4.020495, 0.00, -2.91, -0.23, 9.61
49.254831, 4.020495, 0.00, -2.65, -0.18, 9.59
49.254831, 4.020495, 0.00, -2.75, -0.21, 9.66
49.254818, 4.020499, 2.24, -2.90, 0.91, 9.45
49.254818, 4.020499, 2.24, -3.25, -0.87, 10.09
49.254840, 4.020522, 3.56, -2.45, 0.12, 9.50
49.254840, 4.020522, 3.56, -2.82, -0.32, 9.15
49.254876, 4.020555, 5.03, -2.40, -0.16, 9.09
49.254876, 4.020555, 5.03, -1.27, 0.18, 10.71
49.254919, 4.020605, 6.27, -1.50, -0.08, 9.33
49.254919, 4.020605, 6.27, -2.11, -0.50, 8.56
49.254970, 4.020665, 7.42, -1.40, 0.34, 11.04
49.254970, 4.020665, 7.42, -0.35, 0.11, 11.83
49.255032, 4.020733, 8.22, -2.23, 1.30, 10.27
49.255032, 4.020733, 8.22, -0.69, 0.92, 8.61
49.255100, 4.020804, 8.37, -0.48, -0.41, 10.46
49.255100, 4.020804, 8.37, -0.25, -0.57, 10.19
49.255167, 4.020872, 7.58, -0.79, -2.43, 10.30
49.255167, 4.020872, 7.58, -1.19, -2.78, 10.01
49.255231, 4.020937, 6.82, -1.24, -3.04, 9.71
49.255231, 4.020937, 6.82, -1.28, -2.92, 9.66
49.255296, 4.020982, 6.54, -1.69, -3.01, 9.44
49.255369, 4.020983, 7.42, -1.77, -2.74, 9.66
49.255369, 4.020983, 7.42, -1.09, -2.41, 10.30
49.255444, 4.020941, 8.41, -1.42, -1.52, 9.76
49.255444, 4.020941, 8.41, 0.06, -1.17, 9.89
49.255510, 4.020865, 8.54, -0.38, -0.21, 10.43
49.255510, 4.020865, 8.54, -1.24, -0.26, 10.56
49.255575, 4.020790, 7.61, -1.59, -1.07, 9.84
49.255575, 4.020790, 7.61, -1.39, -0.28, 8.54
49.255638, 4.020724, 7.51, -0.77, -0.19, 10.71
49.255638, 4.020724, 7.51, -1.22, -0.67, 10.19
49.255703, 4.020671, 7.66, -1.73, -0.71, 10.36
49.255703, 4.020671, 7.66, -1.02, -0.85, 10.04
49.255769, 4.020612, 8.45, -1.63, -0.66, 10.26
49.255769, 4.020612, 8.45, -1.48, -0.95, 9.59
49.255836, 4.020546, 8.62, -0.86, -0.40, 9.05
49.255836, 4.020546, 8.62, -0.64, -1.09, 10.34
49.255902, 4.020480, 8.33, -0.17, -1.00, 10.39
49.255902, 4.020480, 8.33, 0.01, -0.75, 9.25
49.255964, 4.020419, 7.10, -2.07, 0.58, 10.01
49.255964, 4.020419, 7.10, -0.75, -0.14, 9.84
49.256021, 4.020360, 7.42, -1.67, -1.15, 9.53
49.256021, 4.020360, 7.42, -2.10, -0.11, 10.19
49.256077, 4.020303, 7.82, -1.58, -0.34, 9.89
49.256077, 4.020303, 7.82, -1.57, -0.44, 8.98
49.256138, 4.020240, 7.86, -1.08, -0.28, 10.23
49.256138, 4.020240, 7.86, -0.31, -0.17, 9.75
49.256200, 4.020181, 7.71, -0.36, -0.19, 9.60
49.256200, 4.020181, 7.71, -0.91, 0.14, 9.98
49.256259, 4.020134, 7.31, -0.04, -0.58, 10.08
49.256259, 4.020134, 7.31, -0.34, 0.37, 10.39
49.256309, 4.020094, 6.45, 0.27, -0.33, 10.06
49.256309, 4.020094, 6.45, -0.36, -1.04, 9.28
49.256348, 4.020063, 4.91, -0.96, -0.56, 10.07
49.256348, 4.020063, 4.91, -1.13, -0.88, 9.98
49.256381, 4.020043, 3.99, -1.05, -0.65, 10.10
49.256381, 4.020043, 3.99, -2.17, -1.03, 9.55
49.256406, 4.020035, 3.68, -2.23, -1.29, 10.19
49.256406, 4.020035, 3.68, -1.28, 0.02, 9.81
49.256438, 4.020017, 4.14, -0.91, 1.16, 10.38
49.256438, 4.020017, 4.14, -0.56, 1.65, 9.62
49.256470, 4.019995, 3.60, -1.15, 2.01, 9.69
49.256500, 4.019989, 2.68, -1.63, 2.76, 9.43
49.256500, 4.019989, 2.68, -1.71, 0.86, 9.88
49.256525, 4.019995, 2.14, -1.88, 1.30, 10.81
49.256525, 4.019995, 2.14, -1.73, 0.80, 10.52
49.256547, 4.020017, 2.17, -2.38, 0.39, 8.89
49.256547, 4.020017, 2.17, -2.19, 0.15, 9.49
49.256573, 4.020070, 3.32, -1.26, -0.05, 10.14
49.256573, 4.020070, 3.32, -0.80, 0.20, 10.64
49.256601, 4.020154, 5.66, -0.57, 0.81, 9.33
49.256601, 4.020154, 5.66, 0.22, 0.47, 10.25
49.256638, 4.020254, 6.11, -0.34, -0.25, 10.71
49.256638, 4.020254, 6.11, -1.60, 0.70, 9.04
49.256671, 4.020339, 5.64, -0.09, -0.42, 9.74
49.256671, 4.020339, 5.64, -0.23, -0.25, 9.44
49.256701, 4.020418, 5.31, -0.82, -0.62, 9.47
49.256701, 4.020418, 5.31, -0.65, 0.01, 9.87
49.256728, 4.020494, 5.19, -1.47, 1.20, 9.27
49.256728, 4.020494, 5.19, -0.98, -0.70, 10.17
49.256755, 4.020565, 4.99, -2.09, 0.23, 9.59
49.256755, 4.020565, 4.99, -1.65, 0.15, 10.21
49.256772, 4.020641, 5.07, -1.48, 0.23, 9.74
49.256772, 4.020641, 5.07, -1.27, -0.23, 10.07
49.256792, 4.020721, 5.42, -1.25, 0.36, 10.03
49.256792, 4.020721, 5.42, -1.61, -0.73, 9.51
49.256816, 4.020796, 5.35, -0.83, -0.43, 8.98
49.256816, 4.020796, 5.35, -0.83, -0.67, 9.70
49.256841, 4.020863, 5.19, -0.80, -1.34, 9.30
49.256841, 4.020863, 5.19, -0.68, 0.12, 10.12
49.256867, 4.020917, 4.62, -1.27, -0.08, 9.22
49.256867, 4.020917, 4.62, -0.91, -0.23, 9.51
49.256894, 4.020961, 4.05, -1.22, 0.30, 9.59
49.256894, 4.020961, 4.05, -0.34, -0.57, 10.60
49.256921, 4.020996, 3.87, -1.07, -0.39, 9.51
49.256921, 4.020996, 3.87, -1.24, -0.13, 9.13
49.256947, 4.021029, 3.19, -1.08, -0.72, 10.31
49.256947, 4.021029, 3.19, -1.01, 0.09, 9.57
49.256969, 4.021057, 3.10, -1.25, 0.22, 9.85
49.256969, 4.021057, 3.10, -1.51, 0.34, 9.87
49.256991, 4.021087, 3.31, -1.42, 0.62, 9.92
49.257012, 4.021110, 3.02, -1.18, 0.32, 9.55
49.257012, 4.021110, 3.02, -1.22, 0.23, 9.78
49.257031, 4.021128, 3.01, -1.04, -0.23, 9.10
49.257031, 4.021128, 3.01, -1.07, 0.90, 9.10
49.257049, 4.021149, 2.70, -1.12, 0.94, 10.80
49.257049, 4.021149, 2.70, -1.52, -0.11, 10.75
49.257067, 4.021173, 2.64, -1.42, -0.33, 8.83
49.257067, 4.021173, 2.64, -1.53, -0.27, 9.11
49.257086, 4.021202, 2.65, -1.34, -0.37, 9.55
49.257086, 4.021202, 2.65, -1.41, -0.18, 9.96
49.257106, 4.021232, 2.73, -1.14, -0.17, 9.73
49.257106, 4.021232, 2.73, -1.29, 0.05, 9.46
49.257127, 4.021264, 2.71, -1.15, -0.44, 9.83
49.257127, 4.021264, 2.71, -1.06, -0.47, 9.83
49.257145, 4.021295, 2.79, -0.68, 0.05, 10.01
49.257145, 4.021295, 2.79, -0.45, -0.34, 9.69
49.257161, 4.021324, 2.42, -0.90, 0.21, 10.18
49.257161, 4.021324, 2.42, -0.54, 0.13, 9.78
49.257176, 4.021349, 1.88, -0.64, -0.23, 10.46
49.257176, 4.021349, 1.88, -0.49, 0.08, 9.73
49.257190, 4.021366, 1.36, -0.78, -0.16, 9.64
49.257190, 4.021366, 1.36, -0.87, 0.06, 9.33
49.257201, 4.021373, 0.97, -0.87, 0.20, 9.98
49.257201, 4.021373, 0.97, -0.79, 0.08, 9.96
49.257201, 4.021373, 0.00, -0.74, 0.04, 9.94
49.257201, 4.021373, 0.00, -1.46, 0.09, 9.77
49.257201, 4.021373, 0.00, -1.35, 0.08, 9.79
49.257201, 4.021373, 0.00, -1.31, 0.09, 9.81
49.257201, 4.021373, 0.00, -1.35, 0.08, 9.81
49.257201, 4.021373, 0.00, -1.33, 0.08, 9.83
49.257201, 4.021373, 0.00, -1.29, 0.08, 9.80
49.257201, 4.021373, 0.00, -1.33, 0.07, 9.80
49.257201, 4.021373, 0.00, -1.37, 0.07, 9.79
49.257201, 4.021373, 0.00, -1.36, 0.04, 9.85
49.257201, 4.021373, 0.00, -1.32, 0.05, 9.82
49.257201, 4.021373, 0.00, -1.44, 0.12, 9.73
49.257201, 4.021373, 0.00, -1.28, 0.08, 9.83
49.257201, 4.021373, 0.00, -1.29, 0.08, 9.77
49.257201, 4.021373, 0.00, -1.91, 0.14, 9.68
49.257201, 4.021373, 0.00, -2.68, 0.02, 9.67
49.257201, 4.021373, 0.00, -2.72, 0.40, 9.33
49.257201, 4.021373, 0.00, -2.59, 0.33, 9.27
49.257201, 4.021373, 0.00, -2.74, 0.18, 9.47
49.257233, 4.021384, 1.97, -1.90, 0.29, 9.64
49.257233, 4.021384, 1.97, -1.84, -0.02, 10.65
49.257256, 4.021411, 3.12, -1.09, 0.19, 10.41
49.257256, 4.021411, 3.12, -1.15, 0.10, 9.90
49.257276, 4.021439, 3.01, -0.96, 0.20, 9.70
49.257276, 4.021439, 3.01, -1.24, -0.13, 9.39
49.257299, 4.021469, 3.10, -1.10, 0.12, 9.96
49.257299, 4.021469, 3.10, -1.01, 0.28, 9.94
49.257322, 4.021496, 2.39, -0.76, 0.01, 9.75
49.257322, 4.021496, 2.39, -0.99, -0.19, 9.71
49.257334, 4.021529, 2.67, -1.58, -0.01, 9.55
49.257334, 4.021529, 2.67, -1.72, 0.18, 9.93
49.257347, 4.021553, 2.72, -1.52, -0.11, 10.16
49.257347, 4.021553, 2.72, -1.02, -0.29, 9.44
49.257365, 4.021568, 3.13, -1.27, 0.31, 9.99
49.257365, 4.021568, 3.13, -1.00, 0.00, 9.53
49.257384, 4.021586, 2.68, -1.45, 0.23, 9.99
49.257384, 4.021586, 2.68, -0.23, 0.21, 10.18
49.257400, 4.021604, 2.27, -0.80, 0.19, 10.43
49.257400, 4.021604, 2.27, -0.02, 0.11, 9.98
49.257417, 4.021618, 1.75, -0.66, 0.16, 10.00
49.257417, 4.021618, 1.75, -0.59, 0.09, 10.16
49.257417, 4.021618, 0.00, -0.52, 0.19, 10.07
49.257417, 4.021618, 0.00, -0.64, 0.18, 10.05
49.257417, 4.021618, 0.00, -1.56, 0.07, 9.52
49.257417, 4.021618, 0.00, -1.35, 0.13, 9.75
49.257417, 4.021618, 0.00, -1.28, 0.15, 9.84
49.257417, 4.021618, 0.00, -1.32, 0.21, 9.80
49.257417, 4.021618, 0.00, -1.32, 0.17, 9.84
49.257417, 4.021618, 0.00, -1.32, 0.11, 9.78
49.257417, 4.021618, 0.00, -1.28, 0.14, 9.83
49.257417, 4.021618, 0.00, -1.34, 0.15, 9.84
49.257417, 4.021618, 0.00, -1.28, 0.16, 9.79
49.257417, 4.021618, 0.00, -1.35, 0.13, 9.80
49.257417, 4.021618, 0.00, -1.33, 0.11, 9.77
49.257417, 4.021618, 0.00, -1.28, 0.16, 9.81
49.257417, 4.021618, 0.00, -1.27, 0.10, 9.78
49.257417, 4.021618, 0.00, -1.25, 0.13, 9.77
49.257417, 4.021618, 0.00, -1.33, 0.14, 9.77
49.257417, 4.021618, 0.00, -1.26, 0.13, 9.75
49.257417, 4.021618, 0.00, -1.31, 0.14, 9.83
49.257417, 4.021618, 0.00, -1.34, 0.15, 9.83
49.257417, 4.021618, 0.00, -1.29, 0.15, 9.78
49.257417, 4.021618, 0.00, -1.32, 0.14, 9.77
49.257417, 4.021618, 0.00, -1.36, 0.16, 9.83
49.257417, 4.021618, 0.00, -1.31, 0.11, 9.79
49.257417, 4.021618, 0.00, -1.25, 0.18, 9.91
49.257417, 4.021618, 0.00, -1.28, 0.16, 9.73
49.257417, 4.021618, 0.00, -1.32, 0.15, 9.78
49.257417, 4.021618, 0.00, -1.37, 0.14, 9.76
49.257417, 4.021618, 0.00, -1.24, 0.11, 9.74
49.257417, 4.021618, 0.00, -1.30, 0.14, 9.82
49.257417, 4.021618, 0.00, -1.32, 0.18, 9.84
49.257417, 4.021618, 0.00, -1.36, 0.13, 9.82
49.257417, 4.021618, 0.00, -1.30, 0.17, 9.82
49.257417, 4.021618, 0.00, -1.29, 0.15, 9.77
49.257417, 4.021618, 0.00, -1.35, 0.14, 9.82
49.257417, 4.021618, 0.00, -1.28, 0.16, 9.81
49.257417, 4.021618, 0.00, -1.12, 0.11, 9.80
49.257417, 4.021618, 0.00, -1.15, 0.09, 9.71
49.257417, 4.021618, 0.00, -1.30, 0.19, 9.84
49.257417, 4.021618, 0.00, -1.38, 0.19, 9.77
49.257417, 4.021618, 0.00, -1.34, 0.12, 9.81
49.257417, 4.021618, 0.00, -1.41, 0.17, 9.83
49.257417, 4.021618, 0.00, -1.38, 0.19, 9.84
49.257417, 4.021618, 0.00, -1.37, 0.14, 9.86
49.257417, 4.021618, 0.00, -1.32, 0.19, 9.82
49.257417, 4.021618, 0.00, -1.32, 0.17, 9.86
49.257417, 4.021618, 0.00, -1.31, 0.15, 9.80
49.257417, 4.021618, 0.00, -1.29, 0.14, 9.81
49.257417, 4.021618, 0.00, -1.24, 0.16, 9.84
49.257417, 4.021618, 0.00, -1.30, 0.12, 9.84
49.257417, 4.021618, 0.00, -1.34, 0.18, 9.86
49.257417, 4.021618, 0.00, -1.26, 0.17, 9.81
49.257417, 4.021618, 0.00, -1.26, 0.16, 9.83
49.257417, 4.021618, 0.00, -1.39, 0.17, 9.76
49.257417, 4.021618, 0.00, -1.41, 0.22, 9.79
49.257417, 4.021618, 0.00, -1.39, 0.19, 9.86
49.257417, 4.021618, 0.00, -1.35, 0.17, 9.81
49.257417, 4.021618, 0.00, -1.31, 0.18, 9.83
49.257417, 4.021618, 0.00, -1.27, 0.14, 9.78
49.257417, 4.021618, 0.00, -1.33, 0.13, 9.79
49.257417, 4.021618, 0.00, -1.33, 0.17, 9.81
49.257417, 4.021618, 0.00, -1.29, 0.16, 9.81
49.257417, 4.021618, 0.00, -1.08, 0.08, 9.81
49.257417, 4.021618, 0.00, -1.20, 0.16, 9.84
49.257417, 4.021618, 0.00, -1.39, 0.13, 9.84
49.257417, 4.021618, 0.00, -1.27, 0.21, 9.80
49.257417, 4.021618, 0.00, -1.28, 0.15, 9.80
49.257417, 4.021618, 0.00, -1.31, 0.13, 9.75
49.257417, 4.021618, 0.00, -1.38, 0.22, 9.88
49.257417, 4.021618, 0.00, -1.35, 0.17, 9.86
49.257417, 4.021618, 0.00, -1.35, 0.19, 9.84
49.257417, 4.021618, 0.00, -1.22, 0.18, 9.82
49.257417, 4.021618, 0.00, -1.36, 0.20, 9.81
49.257417, 4.021618, 0.00, -1.35, 0.16, 9.76
49.257417, 4.021618, 0.00, -1.30, 0.14, 9.79
49.257417, 4.021618, 0.00, -1.34, 0.15, 9.77
49.257417, 4.021618, 0.00, -1.32, 0.14, 9.81
49.257417, 4.021618, 0.00, -1.23, 0.13, 9.77
49.257417, 4.021618, 0.00, -1.28, 0.16, 9.84
49.257417, 4.021618, 0.00, -1.31, 0.18, 9.83
49.257417, 4.021618, 0.00, -1.31, 0.18, 9.75
49.257417, 4.021618, 0.00, -1.35, 0.19, 9.84
49.257417, 4.021618, 0.00, -1.30, 0.20, 9.83
49.257417, 4.021618, 0.00, -1.30, 0.16, 9.80
49.257417, 4.021618, 0.00, -1.29, 0.11, 9.85
49.257417, 4.021618, 0.00, -1.29, 0.14, 9.81
49.257417, 4.021618, 0.00, -1.34, 0.15, 9.75
49.257417, 4.021618, 0.00, -1.28, 0.16, 9.81
49.257417, 4.021618, 0.00, -1.32, 0.15, 9.84
49.257417, 4.021618, 0.00, -1.35, 0.13, 9.78
49.257417, 4.021618, 0.00, -1.23, 0.11, 9.79
49.257417, 4.021618, 0.00, -1.41, 0.11, 9.78
49.257417, 4.021618, 0.00, -1.26, 0.14, 9.84
49.257417, 4.021618, 0.00, -1.30, 0.17, 9.80
49.257417, 4.021618, 0.00, -1.29, 0.12, 9.82
49.257417, 4.021618, 0.00, -1.30, 0.12, 9.78
49.257417, 4.021618, 0.00, -1.30, 0.16, 9.82
49.257417, 4.021618, 0.00, -1.28, 0.18, 9.83
49.257417, 4.021618, 0.00, -1.29, 0.16, 9.84
49.257417, 4.021618, 0.00, -1.30, 0.13, 9.84
49.257417, 4.021618, 0.00, -1.28, 0.13, 9.79
49.257463, 4.021661, 0.00, -1.34, 0.16, 9.77
49.257463, 4.021661, 0.00, -1.33, 0.16, 9.78
49.257463, 4.021661, 0.00, -1.30, 0.15, 9.83
49.257463, 4.021661, 0.00, -1.20, 0.16, 9.90
49.257463, 4.021661, 0.00, -1.38, 0.12, 9.80
49.257463, 4.021661, 0.00, -1.34, 0.17, 9.82
49.257463, 4.021661, 0.00, -1.34, 0.14, 9.76
49.257463, 4.021661, 0.00, -1.24, 0.12, 9.78
49.257463, 4.021661, 0.00, -1.30, 0.12, 9.82
49.257463, 4.021661, 0.00, -1.36, 0.16, 9.84
49.257463, 4.021661, 0.00, -1.22, 0.18, 9.81
49.257463, 4.021661, 0.00, -1.68, 0.18, 9.88
49.257463, 4.021661, 0.00, -1.14, 0.15, 9.77
49.257463, 4.021661, 0.00, -1.04, 0.11, 9.70
49.257463, 4.021661, 0.00, -1.36, 0.06, 9.82
49.257463, 4.021661, 0.00, -1.28, 0.15, 9.86
49.257463, 4.021661, 0.00, -1.04, 0.06, 9.75
49.257463, 4.021661, 0.00, -1.37, 0.14, 9.86
49.257463, 4.021661, 0.00, -1.36, 0.14, 9.77
49.257463, 4.021661, 0.00, -1.35, 0.14, 9.81
49.257463, 4.021661, 0.00, -1.78, 0.06, 9.79
49.257463, 4.021661, 0.00, -1.81, 0.23, 9.71
49.257463, 4.021661, 0.00, -1.49, 0.16, 9.87
49.257463, 4.021661, 0.00, -1.08, 0.14, 9.79
49.257463, 4.021661, 0.00, -1.08, 0.14, 9.95
49.257463, 4.021661, 0.00, -0.94, 0.17, 9.96
49.257463, 4.021661, 0.00, -1.26, 0.11, 9.83
49.257463, 4.021661, 0.00, -1.41, 0.14, 9.77
49.257463, 4.021661, 0.00, -1.27, 0.14, 9.83
49.257463, 4.021661, 0.00, -1.28, 0.14, 9.83
49.257463, 4.021661, 0.00, -1.28, 0.19, 9.84
49.257463, 4.021661, 0.00, -1.34, 0.13, 9.76
49.257463, 4.021661, 0.00, -1.33, 0.12, 9.74
49.257463, 4.021661, 0.00, -1.34, 0.15, 9.73
49.257463, 4.021661, 0.00, -1.33, 0.19, 9.78
49.257463, 4.021661, 0.00, -1.38, 0.16, 9.84
49.257463, 4.021661, 0.00, -1.38, 0.33, 9.84
49.257463, 4.021661, 0.00, -1.18, -0.06, 9.70
49.257463, 4.021661, 0.00, -1.24, 0.09, 9.84
49.257463, 4.021661, 0.00, -1.79, 0.24, 9.76
49.257463, 4.021661, 0.00, -2.41, 0.10, 9.74
49.257463, 4.021661, 0.00, -2.90, 0.32, 9.66
49.257463, 4.021661, 0.00, -2.58, 0.13, 9.42
49.257472, 4.021668, 1.28, -2.73, 0.13, 9.93
49.257472, 4.021668, 1.28, -2.53, 0.25, 10.13
49.257486, 4.021683, 1.93, -2.18, 0.19, 10.03
49.257486, 4.021683, 1.93, -2.28, 0.52, 9.83
49.257507, 4.021704, 2.84, -1.25, 0.46, 9.43
49.257507, 4.021704, 2.84, -1.77, -0.45, 8.22
49.257532, 4.021729, 3.38, -1.52, -0.46, 9.07
49.257532, 4.021729, 3.38, -1.86, -1.41, 10.17
49.257568, 4.021766, 4.27, -1.53, -1.72, 9.37
49.257568, 4.021766, 4.27, -1.45, -1.77, 10.13
49.257612, 4.021809, 4.89, -1.10, -1.60, 10.30
49.257612, 4.021809, 4.89, -1.50, -0.75, 9.64
49.257660, 4.021839, 5.30, -2.20, -0.99, 9.79
49.257660, 4.021839, 5.30, -1.94, -1.41, 9.49
49.257720, 4.021855, 6.35, -2.49, -1.55, 9.15
49.257720, 4.021855, 6.35, -2.40, -1.10, 9.78
49.257776, 4.021847, 6.89, -2.41, 0.24, 9.42
49.257776, 4.021847, 6.89, -2.83, 0.78, 9.28
49.257829, 4.021817, 7.41, -2.56, 1.55, 8.88
49.257829, 4.021817, 7.41, -2.17, 0.53, 9.80
49.257889, 4.021784, 7.71, -2.10, 0.92, 10.31
49.257889, 4.021784, 7.71, -2.62, -0.09, 9.39
49.257962, 4.021753, 9.81, -2.54, -0.95, 9.43
49.257962, 4.021753, 9.81, -1.86, -0.14, 9.78
49.258048, 4.021762, 10.13, -1.54, -0.17, 8.54
49.258048, 4.021762, 10.13, -1.65, 0.42, 10.68
49.258137, 4.021775, 10.10, -1.67, -0.50, 10.65
49.258137, 4.021775, 10.10, -1.01, -1.34, 9.39
49.258233, 4.021781, 10.85, -1.83, 0.22, 8.97
49.258233, 4.021781, 10.85, -1.45, -0.56, 11.54
49.258337, 4.021792, 11.38, -1.25, -0.24, 9.26
49.258337, 4.021792, 11.38, -0.86, 1.33, 10.11
49.258440, 4.021810, 10.98, -1.25, -0.32, 8.15
49.258440, 4.021810, 10.98, -1.26, -0.11, 10.29
49.258541, 4.021835, 10.99, -1.94, 0.77, 10.58
49.258541, 4.021835, 10.99, -1.31, -0.90, 9.55
49.258635, 4.021865, 10.60, -1.41, 0.06, 9.71
49.258635, 4.021865, 10.60, -1.25, 1.76, 8.58
49.258732, 4.021896, 10.42, -0.67, 0.20, 10.70
49.258732, 4.021896, 10.42, -1.72, 0.83, 9.84
49.258827, 4.021926, 10.29, -0.27, -0.43, 7.37
49.258827, 4.021926, 10.29, -1.35, 1.45, 10.26
49.258922, 4.021949, 10.01, -1.69, 0.69, 9.64
49.259009, 4.022006, 9.43, -1.47, 0.55, 9.75
49.259009, 4.022006, 9.43, -1.64, 0.01, 9.72
49.259096, 4.022066, 9.55, -1.28, 0.29, 9.63
49.259096, 4.022066, 9.55, -1.53, 0.45, 10.28
49.259174, 4.022125, 9.23, -1.26, -0.24, 10.28
49.259174, 4.022125, 9.23, -1.95, -0.20, 10.14
49.259249, 4.022178, 9.03, -1.37, -0.04, 8.60
49.259249, 4.022178, 9.03, -0.79, -0.80, 10.38
49.259323, 4.022228, 8.96, -0.28, -0.57, 9.31
49.259323, 4.022228, 8.96, -1.35, -0.19, 9.66
49.259394, 4.022279, 8.57, -0.92, -0.12, 10.07
49.259394, 4.022279, 8.57, -0.94, -0.43, 9.86
49.259461, 4.022341, 8.53, -1.05, 1.51, 11.06
49.259461, 4.022341, 8.53, -1.44, 0.49, 10.47
49.259530, 4.022403, 8.05, -1.53, 0.74, 9.37
49.259530, 4.022403, 8.05, -1.36, 0.24, 10.80
49.259593, 4.022461, 7.82, -1.38, -2.16, 9.58
49.259593, 4.022461, 7.82, -1.08, -1.90, 10.36
49.259652, 4.022511, 7.50, -0.94, -2.70, 10.01
49.259652, 4.022511, 7.50, -0.66, -2.45, 9.82
49.259714, 4.022576, 7.12, -1.02, -1.98, 10.47
49.259714, 4.022576, 7.12, -0.85, -2.31, 9.99
49.259770, 4.022644, 7.14, -0.43, -2.56, 9.97
49.259770, 4.022644, 7.14, 0.37, -1.81, 10.37
49.259835, 4.022669, 6.93, 0.05, -1.09, 10.40
49.259835, 4.022669, 6.93, -0.97, -0.40, 9.55
49.259906, 4.022669, 6.84, -0.52, 0.06, 9.93
49.259906, 4.022669, 6.84, -0.16, -0.49, 9.12
49.259967, 4.022642, 6.22, -0.58, -0.20, 9.75
49.259967, 4.022642, 6.22, -0.80, -0.29, 9.59
49.260018, 4.022617, 5.52, -0.95, -0.47, 9.38
49.260018, 4.022617, 5.52, -0.43, -0.35, 10.16
49.260062, 4.022595, 5.09, -0.17, -0.57, 9.80
49.260062, 4.022595, 5.09, -0.08, -0.43, 9.89
49.260100, 4.022578, 4.10, 0.13, -0.54, 10.14
49.260100, 4.022578, 4.10, 0.07, -0.45, 10.49
49.260126, 4.022560, 2.80, 0.09, -0.35, 10.05
49.260126, 4.022560, 2.80, -0.18, -0.38, 9.51
49.260141, 4.022552, 1.24, -0.24, -0.62, 9.90
49.260141, 4.022552, 0.00, -0.70, -0.45, 9.82
49.260141, 4.022552, 0.00, -0.89, -0.48, 9.96
49.260141, 4.022552, 0.00, -0.87, -0.49, 9.87
49.260141, 4.022552, 0.00, -0.91, -0.38, 9.84
49.260141, 4.022552, 0.00, -1.49, -0.45, 9.85
49.260141, 4.022552, 0.00, -1.19, -0.39, 9.93
49.260141, 4.022552, 0.00, -1.13, -0.44, 9.83
49.260141, 4.022552, 0.00, -1.14, -0.44, 9.77
49.260141, 4.022552, 0.00, -1.13, -0.48, 9.75
49.260141, 4.022552, 0.00, -1.15, -0.47, 9.84
49.260141, 4.022552, 0.00, -1.22, -0.41, 9.89
49.260141, 4.022552, 0.00, -1.12, -0.40, 9.78
49.260141, 4.022552, 0.00, -1.21, -0.45, 9.84
49.260141, 4.022552, 0.00, -1.25, -0.53, 9.70
49.260141, 4.022552, 0.00, -1.07, -0.49, 9.84
49.260141, 4.022552, 0.00, -1.13, -0.49, 9.85
49.260141, 4.022552, 0.00, -1.14, -0.46, 9.85
49.260141, 4.022552, 0.00, -1.17, -0.46, 9.79
49.260141, 4.022552, 0.00, -1.18, -0.48, 9.80
49.260141, 4.022552, 0.00, -1.13, -0.44, 9.79
49.260141, 4.022552, 0.00, -1.23, -0.45, 9.79
49.260141, 4.022552, 0.00, -1.07, -0.48, 9.74
49.260141, 4.022552, 0.00, -1.21, -0.42, 9.75
49.260141, 4.022552, 0.00, -1.17, -0.46, 9.84
49.260141, 4.022552, 0.00, -1.12, -0.40, 9.85
49.260141, 4.022552, 0.00, -1.02, -0.53, 9.78
49.260141, 4.022552, 0.00, -1.15, -0.47, 9.82
49.260141, 4.022552, 0.00, -1.23, -0.41, 9.83
49.260141, 4.022552, 0.00, -1.16, -0.48, 9.83
49.260141, 4.022552, 0.00, -1.17, -0.36, 9.84
49.260141, 4.022552, 0.00, -1.10, -0.42, 9.80
49.260141, 4.022552, 0.00, -1.32, -0.34, 9.82
49.260141, 4.022552, 0.00, -1.22, -0.42, 9.90
49.260141, 4.022552, 0.00, -1.19, -0.45, 9.83
49.260141, 4.022552, 0.00, -1.14, -0.51, 9.77
49.260141, 4.022552, 0.00, -1.06, -0.52, 9.79
49.260141, 4.022552, 0.00, -1.27, -0.37, 9.83
49.260141, 4.022552, 0.00, -1.12, -0.49, 9.80
49.260141, 4.022552, 0.00, -1.11, -0.49, 9.86
49.260141, 4.022552, 0.00, -1.16, -0.40, 9.83
49.260141, 4.022552, 0.00, -1.07, -0.47, 9.79
49.260141, 4.022552, 0.00, -1.12, -0.44, 9.81
49.260141, 4.022552, 0.00, -1.20, -0.44, 9.87
49.260141, 4.022552, 0.00, -1.22, -0.39, 9.84
49.260141, 4.022552, 0.00, -1.17, -0.38, 9.92
49.260141, 4.022552, 0.00, -1.16, -0.41, 9.85
49.260141, 4.022552, 0.00, -1.13, -0.46, 9.83
49.260141, 4.022552, 0.00, -1.17, -0.46, 9.85
49.260141, 4.022552, 0.00, -1.13, -0.50, 9.85
49.260141, 4.022552, 0.00, -1.12, -0.52, 9.83
49.260141, 4.022552, 0.00, -1.80, -0.38, 9.84
49.260141, 4.022552, 0.00, -1.70, -0.66, 9.77
49.260141, 4.022552, 0.00, -2.14, -0.41, 9.64
49.260141, 4.022552, 0.00, -2.37, -0.40, 9.66
49.260141, 4.022552, 0.00, -2.51, -0.49, 9.56
49.260141, 4.022552, 0.00, -2.49, -0.43, 9.68
49.260141, 4.022552, 0.00, -2.03, -0.82, 10.29
49.260191, 4.022541, 1.92, -1.32, -0.95, 10.24
49.260191, 4.022541, 1.92, -0.94, -0.18, 9.86
49.260210, 4.022523, 2.63, -0.60, -0.57, 9.29
49.260210, 4.022523, 2.63, -1.36, 0.07, 9.85
49.260234, 4.022507, 2.67, -1.61, -0.42, 9.26
49.260234, 4.022507, 2.67, -2.04, 0.12, 9.71
49.260258, 4.022496, 2.91, -1.80, 0.65, 9.94
49.260258, 4.022496, 2.91, -1.52, 1.95, 9.68
49.260288, 4.022485, 2.75, -1.61, 1.44, 9.58
49.260288, 4.022485, 2.75, -2.34, 1.96, 9.70
49.260317, 4.022477, 2.85, -2.27, 1.86, 9.26
49.260317, 4.022477, 2.85, -2.09, 1.62, 9.05
49.260347, 4.022486, 2.66, -2.50, 0.34, 9.85
49.260347, 4.022486, 2.66, -2.84, -0.03, 9.99
49.260375, 4.022522, 3.82, -1.98, -0.34, 9.80
49.260375, 4.022522, 3.82, -2.52, -0.46, 9.26
49.260411, 4.022583, 5.38, -2.41, -0.22, 10.54
49.260411, 4.022583, 5.38, -1.71, -0.43, 8.88
49.260449, 4.022665, 6.15, -2.42, -0.49, 8.73
49.260449, 4.022665, 6.15, -2.66, -0.99, 8.71
49.260502, 4.022752, 6.97, -2.70, -0.03, 10.50
49.260502, 4.022752, 6.97, -1.49, -0.35, 9.27
49.260565, 4.022850, 8.63, -1.06, 0.44, 11.15
49.260635, 4.022957, 8.74, -0.79, -0.68, 9.33
49.260635, 4.022957, 8.74, -1.77, 0.23, 8.61
49.260702, 4.023063, 8.87, -1.44, -0.79, 9.18
49.260702, 4.023063, 8.87, -1.46, 0.21, 9.46
49.260769, 4.023169, 8.62, -1.15, -0.01, 10.12
49.260769, 4.023169, 8.62, -1.83, -0.61, 10.45
49.260833, 4.023277, 9.19, -0.42, -0.41, 9.09
49.260833, 4.023277, 9.19, -0.70, -0.86, 9.76
49.260889, 4.023393, 9.40, -0.91, -1.17, 9.91
49.260889, 4.023393, 9.40, -2.58, 1.68, 13.09
49.260947, 4.023514, 9.77, -1.36, -0.11, 9.50
49.260947, 4.023514, 9.77, -1.20, 0.67, 8.29
49.261004, 4.023629, 9.70, -1.04, -0.05, 10.01
49.261004, 4.023629, 9.70, -1.26, -0.54, 10.06
49.261058, 4.023753, 9.93, 0.03, 0.30, 9.22
49.261058, 4.023753, 9.93, -1.58, -0.30, 9.57
49.261113, 4.023877, 10.03, -1.74, -0.14, 9.53
49.261113, 4.023877, 10.03, -0.93, -0.68, 9.87
49.261168, 4.024006, 10.17, -1.30, -0.03, 10.45
49.261168, 4.024006, 10.17, -0.89, -0.47, 10.65
49.261236, 4.024128, 10.27, -0.91, -1.18, 7.94
49.261236, 4.024128, 10.27, -0.56, 0.33, 9.52
49.261299, 4.024247, 10.18, -0.95, 0.11, 10.04
49.261299, 4.024247, 10.18, -1.23, -0.19, 10.71
49.261353, 4.024362, 9.97, -1.01, -0.49, 9.73
49.261353, 4.024362, 9.97, -0.30, -0.38, 10.24
49.261402, 4.024465, 9.30, -0.01, -0.16, 10.24
49.261402, 4.024465, 9.30, -0.35, 0.11, 9.73
49.261454, 4.024568, 8.90, 0.08, -0.80, 8.71
49.261454, 4.024568, 8.90, -0.27, -0.69, 10.17
49.261504, 4.024664, 8.12, -0.38, -1.47, 10.27
49.261504, 4.024664, 8.12, 0.26, -2.04, 9.87
49.261548, 4.024745, 6.94, -0.04, -2.58, 9.48
49.261548, 4.024745, 6.94, -0.92, -3.30, 10.30
49.261591, 4.024796, 5.38, -1.05, -3.11, 9.42
49.261591, 4.024796, 5.38, -0.91, -3.37, 10.91
49.261634, 4.024819, 5.79, -0.77, -3.36, 11.74
49.261634, 4.024819, 5.79, -2.30, -2.74, 8.86
49.261683, 4.024794, 5.84, -1.18, -3.05, 9.65
49.261683, 4.024794, 5.84, -1.65, -1.87, 9.26
49.261730, 4.024738, 6.16, -2.06, -1.43, 9.76
49.261765, 4.024666, 6.37, -2.03, -0.81, 9.49
49.261765, 4.024666, 6.37, -2.82, 0.49, 9.59
49.261780, 4.024570, 6.89, -1.50, -1.29, 11.25
49.261780, 4.024570, 6.89, -2.18, 0.45, 10.61
49.261795, 4.024472, 7.57, -2.24, -0.12, 10.39
49.261795, 4.024472, 7.57, -1.36, -0.62, 8.96
49.261819, 4.024356, 8.70, -4.54, -1.24, 10.02
49.261819, 4.024356, 8.70, -1.39, -0.22, 10.54
49.261842, 4.024220, 9.87, -1.83, 0.36, 9.30
49.261842, 4.024220, 9.87, -2.24, 1.11, 8.50
49.261863, 4.024074, 10.18, -1.86, -1.34, 9.39
49.261863, 4.024074, 10.18, 0.00, -0.46, 9.44
49.261885, 4.023923, 10.27, 0.50, -0.97, 10.19
49.261885, 4.023923, 10.27, 0.89, 0.63, 9.66
49.261902, 4.023796, 8.55, 1.45, 0.28, 9.83
49.261902, 4.023796, 8.55, 1.29, -0.03, 9.79
49.261915, 4.023694, 6.68, 1.06, -0.11, 8.29
49.261915, 4.023694, 6.68, 1.03, -0.96, 9.77
49.261923, 4.023626, 3.85, 1.59, -0.26, 10.32
49.261923, 4.023626, 3.85, 1.28, -0.34, 10.11
49.261928, 4.023593, 0.97, 0.07, -0.43, 9.95
49.261928, 4.023593, 0.97, -0.84, -0.46, 9.45
49.261928, 4.023593, 0.00, -1.20, -0.46, 9.81
49.261928, 4.023593, 0.00, -1.22, -0.48, 9.80
49.261928, 4.023593, 0.00, -1.29, -0.28, 9.85
49.261928, 4.023593, 0.00, -1.07, -0.50, 9.81
49.261928, 4.023593, 0.00, -1.11, -0.41, 9.84
49.261928, 4.023593, 0.00, -0.96, -0.45, 9.84
49.261928, 4.023593, 0.00, -1.06, -0.51, 9.73
49.261928, 4.023593, 0.00, -1.08, -0.42, 9.88
49.261928, 4.023593, 0.00, -0.79, -0.51, 9.80
49.261928, 4.023593, 0.00, -0.65, -0.67, 9.94
49.261928, 4.023593, 0.00, -0.76, -0.58, 9.78
49.261928, 4.023593, 0.00, -1.16, 0.24, 10.03
49.261928, 4.023593, 0.00, -1.10, -0.04, 9.90
49.261928, 4.023593, 0.00, -1.20, 0.09, 9.55
49.261928, 4.023593, 0.00, -1.58, 0.02, 9.97
49.261928, 4.023593, 0.00, -1.66, -0.12, 9.83
49.261928, 4.023593, 0.00, -1.29, -0.46, 9.65
49.261928, 4.023593, 0.00, -1.34, -0.47, 9.75
49.261928, 4.023593, 0.00, -1.44, -0.50, 9.72
49.261928, 4.023593, 0.00, -1.10, -0.57, 9.76
49.261928, 4.023593, 0.00, -1.47, -0.51, 9.68
49.261928, 4.023593, 0.00, -1.58, -0.51, 9.77
49.261928, 4.023593, 0.00, -1.90, -0.66, 9.62
49.261928, 4.023593, 0.00, -1.72, -0.64, 9.73
49.261928, 4.023593, 0.00, -1.23, -0.84, 9.80
49.261928, 4.023593, 0.00, -1.73, -0.53, 9.52
49.261928, 4.023593, 0.00, -2.77, -0.89, 9.83
49.261928, 4.023593, 0.00, -2.72, -0.30, 9.56
49.261928, 4.023593, 0.00, -2.52, 0.57, 9.65
49.261928, 4.023593, 0.00, -2.45, 0.63, 9.98
49.261928, 4.023593, 0.00, -2.19, 0.78, 9.22
49.261921, 4.023550, 2.28, -3.11, 0.14, 10.50
49.261921, 4.023550, 2.28, -2.13, -0.18, 9.48
49.261928, 4.023504, 3.81, -2.50, -0.15, 9.90
49.261928, 4.023504, 3.81, -2.02, -0.31, 9.56
49.261942, 4.023441, 5.07, -1.16, -0.63, 10.04
49.261942, 4.023441, 5.07, -0.55, -0.10, 10.22
49.261955, 4.023371, 5.20, -1.13, -0.09, 10.45
49.261955, 4.023371, 5.20, 0.46, -0.47, 10.58
49.261962, 4.023306, 4.69, 0.37, -1.05, 9.67
49.261962, 4.023306, 4.69, 0.21, -1.58, 9.41
49.261968, 4.023252, 3.50, 0.09, -0.80, 9.49
49.261966, 4.023208, 2.54, 0.22, -0.33, 10.07
49.261966, 4.023208, 2.54, 0.68, -0.25, 10.10
49.261964, 4.023185, 1.14, 0.75, -0.39, 9.86
49.261964, 4.023185, 1.14, -2.08, -0.47, 9.43
49.261964, 4.023185, 0.00, -1.17, -0.50, 9.93
49.261964, 4.023185, 0.00, -0.49, -0.50, 9.81
49.261964, 4.023185, 0.00, -0.75, -0.68, 9.87
49.261964, 4.023185, 0.00, -1.24, -0.57, 9.65
49.261964, 4.023185, 0.00, -0.70, -0.34, 9.88
49.261964, 4.023185, 0.00, -0.92, -0.30, 9.85
49.261964, 4.023185, 0.00, -0.55, 0.13, 9.39
49.261964, 4.023185, 0.00, -1.08, -0.21, 9.73
49.261964, 4.023185, 0.00, -1.55, -0.32, 9.71
49.261964, 4.023185, 0.00, -1.69, -0.24, 9.66
49.261964, 4.023185, 0.00, -2.02, -0.48, 9.72
49.261964, 4.023185, 0.00, -1.46, -0.30, 9.59
49.261964, 4.023185, 0.00, -2.03, -0.63, 9.61
49.261964, 4.023185, 0.00, -1.70, -0.81, 9.70
49.261964, 4.023185, 0.00, -1.74, -1.03, 9.85
49.261964, 4.023185, 0.00, -1.18, -1.00, 9.90
49.261964, 4.023185, 0.00, -1.26, -0.58, 9.85
49.261964, 4.023185, 0.00, -1.73, -1.07, 9.73
49.261964, 4.023185, 0.00, -1.36, -1.01, 9.68
49.261964, 4.023185, 0.00, -1.56, -0.83, 9.44
49.261964, 4.023185, 0.00, -1.94, -1.13, 9.84
49.261964, 4.023185, 0.00, -1.83, -0.93, 9.70
49.261964, 4.023185, 0.00, -1.19, -0.85, 9.93
49.261964, 4.023185, 0.00, -1.25, -1.03, 9.93
49.261964, 4.023185, 0.00, -0.72, -0.99, 9.98
49.261964, 4.023185, 0.00, -1.25, -0.75, 9.85
49.261964, 4.023185, 0.00, -1.10, -0.79, 9.94
49.261964, 4.023185, 0.00, -1.17, -0.73, 9.81
49.261964, 4.023185, 0.00, -1.15, -0.82, 9.71
49.261964, 4.023185, 0.00, -1.33, -0.93, 9.62
49.261964, 4.023185, 0.00, -1.40, -1.02, 9.93
49.261964, 4.023185, 0.00, -1.11, -0.93, 9.92
49.261964, 4.023185, 0.00, -1.67, -1.31, 9.79
49.261964, 4.023185, 0.00, -0.68, -1.14, 9.66
49.261964, 4.023185, 0.00, -1.32, -1.27, 9.51
49.261964, 4.023185, 0.00, -1.36, -1.41, 9.70
49.261964, 4.023185, 0.00, -1.46, -1.28, 9.68
49.261964, 4.023185, 0.00, -1.36, -1.00, 9.74
49.261964, 4.023185, 0.00, -1.13, -0.98, 9.78
49.261964, 4.023185, 0.00, -1.19, -0.90, 9.90
49.261964, 4.023185, 0.00, -1.12, -0.97, 9.86
49.261964, 4.023185, 0.00, -1.81, -0.89, 9.78
49.261964, 4.023185, 0.00, -1.52, -0.97, 9.74
49.261964, 4.023185, 0.00, -1.26, -1.04, 9.72
49.261964, 4.023185, 0.00, -0.79, -0.78, 9.77
49.261964, 4.023185, 0.00, -1.24, -1.10, 9.94
49.261964, 4.023185, 0.00, -1.47, -1.75, 9.67
49.261964, 4.023185, 0.00, -0.89, -1.24, 9.77
49.261964, 4.023185, 0.00, -0.91, -0.99, 9.75
49.261964, 4.023185, 0.00, -1.02, -1.24, 9.82
49.261964, 4.023185, 0.00, -1.26, -1.23, 9.75
49.261964, 4.023185, 0.00, -1.21, -1.21, 9.78
49.261964, 4.023185, 0.00, -1.28, -0.98, 9.81
49.261964, 4.023185, 0.00, -1.45, -1.30, 9.76
49.261964, 4.023185, 0.00, -1.43, -1.43, 9.05
49.261964, 4.023185, 0.00, -1.33, -1.13, 9.86
49.261964, 4.023185, 0.00, -0.85, -0.86, 9.77
49.261964, 4.023185, 0.00, -0.62, -0.82, 9.85
49.261964, 4.023185, 0.00, -1.06, -0.84, 9.84
49.261964, 4.023185, 0.00, -1.32, -1.05, 9.74
49.261964, 4.023185, 0.00, -1.15, -1.01, 9.74
49.261964, 4.023185, 0.00, -0.65, -0.88, 9.73
49.261964, 4.023185, 0.00, -1.29, -1.25, 9.73
49.261964, 4.023185, 0.00, -0.85, -0.95, 9.58
49.261964, 4.023185, 0.00, -2.26, -1.69, 9.62
49.261964, 4.023185, 0.00, -0.79, -1.18, 9.70
49.261964, 4.023185, 0.00, -1.36, -1.21, 9.39
49.261964, 4.023185, 0.00, -1.39, -1.12, 9.52
49.261964, 4.023185, 0.00, -0.74, -1.11, 9.55
49.261964, 4.023185, 0.00, -1.25, -1.06, 9.89
49.261964, 4.023185, 0.00, -0.97, -1.28, 9.70
49.261964, 4.023185, 0.00, -0.89, -1.18, 9.78
49.261964, 4.023185, 0.00, -1.32, -1.13, 9.64
49.261964, 4.023185, 0.00, -1.58, -1.17, 9.74
49.261964, 4.023185, 0.00, -1.48, -1.08, 9.84
49.261964, 4.023185, 0.00, -1.07, -1.24, 9.79
49.261964, 4.023185, 0.00, -1.13, -1.19, 9.79
49.261964, 4.023185, 0.00, -1.39, -0.94, 9.91
49.261964, 4.023185, 0.00, -1.57, -1.21, 9.77
49.261964, 4.023185, 0.00, -1.45, -1.08, 9.72
49.261964, 4.023185, 0.00, -1.19, -1.08, 9.67
49.261964, 4.023185, 0.00, -0.93, -1.12, 9.70
49.261964, 4.023185, 0.00, -0.58, -1.24, 9.87
49.261964, 4.023185, 0.00, -1.11, -1.25, 9.57
49.261964, 4.023185, 0.00, -1.19, -1.13, 9.70
49.261964, 4.023185, 0.00, -1.15, -1.06, 9.73
49.261964, 4.023185, 0.00, -1.20, -1.11, 9.75
49.261964, 4.023185, 0.00, -1.07, -1.18, 9.82
49.261964, 4.023185, 0.00, -1.30, -1.15, 9.71
49.261964, 4.023185, 0.00, -1.10, -1.22, 9.73
49.261964, 4.023185, 0.00, -1.27, -1.36, 9.49
49.261964, 4.023185, 0.00, -1.15, -1.13, 9.77
49.261964, 4.023185, 0.00, -1.24, -1.15, 9.77
49.261964, 4.023185, 0.00, -1.20, -1.20, 9.82
49.261964, 4.023185, 0.00, -1.23, -1.10, 9.80
49.261964, 4.023185, 0.00, -1.14, -1.14, 9.73
