Location-lat,Location-long,Speed,Accelerometer-X,Accelerometer-Y,Accelerometer-Z
49.258218, 4.054068, 0.00, -1.44, 1.02, 9.71
49.258218, 4.054068, 0.00, -1.59, 0.41, 9.37
49.258218, 4.054068, 0.00, -1.64, 1.50, 10.01
49.258218, 4.054068, 0.00, -1.71, 0.99, 10.01
49.258218, 4.054068, 0.00, -0.72, 0.12, 9.52
49.258218, 4.054068, 0.00, -1.71, 1.07, 9.44
49.258218, 4.054068, 0.00, -1.44, 0.69, 10.07
49.258218, 4.054068, 0.00, -1.25, 1.05, 9.67
49.258218, 4.054068, 0.00, -1.19, 0.78, 9.81
49.258218, 4.054068, 0.00, -1.71, 1.26, 9.39
49.258218, 4.054068, 0.00, -1.73, 1.70, 9.91
49.258218, 4.054068, 0.00, -1.78, 1.16, 9.95
49.258218, 4.054068, 0.00, -1.81, 1.56, 10.23
49.258218, 4.054068, 0.00, -1.49, 0.92, 9.75
49.258218, 4.054068, 0.00, -1.70, 0.98, 10.02
49.258218, 4.054068, 0.00, -1.40, 0.57, 9.67
49.258218, 4.054068, 0.00, -1.62, 0.90, 9.94
49.258218, 4.054068, 0.00, -0.35, 2.54, 7.46
49.258218, 4.054068, 0.00, -1.48, 0.84, 9.80
49.258218, 4.054068, 0.00, -2.02, 1.33, 9.91
49.258218, 4.054068, 0.00, -2.02, 1.14, 9.76
49.258218, 4.054068, 0.00, -2.10, 1.57, 9.42
49.258218, 4.054068, 0.00, -2.64, 1.22, 9.25
49.258218, 4.054068, 0.00, -2.83, 1.88, 10.07
49.258233, 4.054025, 0.99, -3.32, 1.19, 10.37
49.258233, 4.054025, 0.99, -3.81, 1.60, 10.63
49.258243, 4.054021, 2.19, -2.83, 0.94, 10.52
49.258243, 4.054021, 2.19, -2.63, 0.56, 8.81
49.258270, 4.054028, 3.51, -2.04, 0.49, 8.04
49.258270, 4.054028, 3.51, -2.72, -0.30, 8.33
49.258309, 4.054030, 4.19, -3.00, 0.60, 10.05
49.258309, 4.054030, 4.19, -2.11, 0.16, 9.46
49.258357, 4.053997, 4.89, -1.51, 0.68, 11.18
49.258357, 4.053997, 4.89, -2.35, -0.75, 9.73
49.258408, 4.053961, 4.85, -2.55, 0.75, 9.21
49.258408, 4.053961, 4.85, -2.56, 0.68, 9.37
49.258457, 4.053936, 5.58, -2.68, -0.27, 9.85
49.258457, 4.053936, 5.58, -2.41, -0.10, 10.13
49.258513, 4.053914, 6.57, -2.69, -0.25, 8.80
49.258577, 4.053892, 7.35, -1.73, 0.49, 8.57
49.258577, 4.053892, 7.35, -1.85, 0.36, 10.70
49.258643, 4.053872, 6.91, -0.51, 0.34, 8.23
49.258643, 4.053872, 6.91, -2.90, -0.37, 7.26
49.258704, 4.053851, 6.81, -1.31, -0.17, 9.62
49.258704, 4.053851, 6.81, -1.76, -0.20, 9.39
49.258765, 4.053830, 6.95, -1.32, 1.03, 9.28
49.258765, 4.053830, 6.95, -1.18, 0.86, 10.46
49.258828, 4.053808, 7.14, -1.58, 0.08, 10.72
49.258828, 4.053808, 7.14, -0.88, -0.59, 10.45
49.258894, 4.053788, 7.27, -0.45, -0.08, 8.07
49.258894, 4.053788, 7.27, -1.30, 1.31, 9.58
49.258957, 4.053767, 6.92, -1.69, 0.05, 10.11
49.258957, 4.053767, 6.92, -1.20, -0.28, 11.84
49.259018, 4.053747, 6.70, -2.10, -0.91, 8.37
49.259018, 4.053747, 6.70, -1.82, 0.55, 8.90
49.259077, 4.053726, 6.48, -2.99, 0.37, 9.05
49.259077, 4.053726, 6.48, -2.59, -0.66, 8.79
49.259138, 4.053706, 7.25, -2.17, -0.29, 9.49
49.259138, 4.053706, 7.25, -1.28, 0.79, 10.49
49.259205, 4.053683, 7.73, -2.15, -0.07, 7.54
49.259205, 4.053683, 7.73, -0.88, -1.21, 9.76
49.259276, 4.053658, 7.68, -1.15, -0.39, 10.19
49.259276, 4.053658, 7.68, -0.62, 0.02, 10.66
49.259341, 4.053634, 6.80, -2.43, 0.68, 11.83
49.259341, 4.053634, 6.80, -1.88, -1.36, 8.94
49.259402, 4.053615, 6.71, -1.30, 0.75, 9.39
49.259402, 4.053615, 6.71, -1.82, 0.79, 9.30
49.259463, 4.053598, 6.85, -2.41, -0.16, 7.84
49.259523, 4.053575, 7.07, -0.89, -0.71, 8.55
49.259523, 4.053575, 7.07, -2.50, 0.03, 9.21
49.259585, 4.053557, 6.61, -1.04, 0.83, 8.18
49.259585, 4.053557, 6.61, -1.37, 1.53, 10.43
49.259643, 4.053538, 6.23, -0.79, -0.52, 9.90
49.259643, 4.053538, 6.23, -0.98, 0.75, 10.60
49.259696, 4.053520, 5.73, -0.86, -0.05, 9.00
49.259696, 4.053520, 5.73, -1.10, -0.25, 7.00
49.259745, 4.053504, 5.21, -1.65, 0.48, 12.13
49.259745, 4.053504, 5.21, -0.65, -0.20, 10.18
49.259787, 4.053494, 4.76, -1.33, 0.61, 9.41
49.259787, 4.053494, 4.76, -0.27, -0.51, 9.48
49.259822, 4.053479, 3.76, -0.93, 1.61, 10.12
49.259822, 4.053479, 3.76, -1.18, 1.04, 9.39
49.259850, 4.053466, 3.08, -1.23, 0.47, 10.18
49.259850, 4.053466, 3.08, -0.53, 1.51, 10.21
49.259876, 4.053458, 2.82, -1.50, 1.78, 10.22
49.259876, 4.053458, 2.82, -0.37, 2.15, 9.98
49.259904, 4.053456, 3.23, -1.33, 2.85, 10.46
49.259904, 4.053456, 3.23, -2.00, 1.45, 8.75
49.259934, 4.053472, 3.27, -2.08, 1.04, 10.39
49.259934, 4.053472, 3.27, -1.32, 1.37, 11.02
49.259961, 4.053519, 3.87, 0.72, -0.08, 10.86
49.259961, 4.053519, 3.87, -0.64, 0.80, 10.47
49.259985, 4.053561, 2.41, -0.49, 0.03, 10.15
49.259985, 4.053561, 2.41, -0.92, 0.50, 10.02
49.259999, 4.053588, 0.98, -1.12, -0.00, 10.25
49.259999, 4.053588, 0.98, -1.53, 0.69, 9.53
49.259999, 4.053588, 0.00, -1.46, -0.54, 9.78
49.259999, 4.053588, 0.00, -1.91, 0.29, 10.10
49.259999, 4.053588, 0.00, -2.14, 0.98, 9.71
49.259999, 4.053588, 0.00, -1.89, 0.76, 9.98
49.259999, 4.053588, 0.00, -1.99, 0.92, 9.79
49.259999, 4.053588, 0.00, -1.97, 0.89, 9.32
49.259999, 4.053588, 0.00, -2.14, 0.97, 9.55
49.259999, 4.053588, 0.00, -1.58, -0.01, 10.19
49.259999, 4.053588, 0.00, -1.87, 0.75, 9.69
49.259999, 4.053588, 0.00, -2.20, 0.90, 9.73
49.259999, 4.053588, 0.00, -1.96, 0.45, 9.58
49.259999, 4.053588, 0.00, -1.70, 0.36, 9.85
49.259999, 4.053588, 0.00, -1.91, 0.60, 9.67
49.259999, 4.053588, 0.00, -1.66, 0.33, 10.06
49.259999, 4.053588, 0.00, -2.24, 0.94, 9.50
49.259999, 4.053588, 0.00, -2.25, 1.16, 10.25
49.259999, 4.053588, 0.00, -2.66, 1.26, 10.44
49.259999, 4.053588, 0.00, -2.59, 0.37, 9.03
49.259999, 4.053588, 0.00, -2.93, 1.26, 10.18
49.259999, 4.053588, 0.00, -2.60, 0.87, 9.16
49.259999, 4.053588, 0.00, -3.05, 1.44, 9.62
49.260015, 4.053613, 1.07, -1.91, 1.16, 8.86
49.260015, 4.053613, 1.07, -2.68, 1.78, 10.54
49.260019, 4.053660, 3.43, -3.13, 1.38, 9.43
49.260019, 4.053660, 3.43, -3.50, 0.68, 10.01
49.260022, 4.053740, 4.79, -3.57, 1.37, 10.38
49.260022, 4.053740, 4.79, -3.20, 0.50, 9.49
49.260010, 4.053829, 6.02, -1.42, 1.06, 9.13
49.260010, 4.053829, 6.02, -2.04, 0.33, 9.10
49.259994, 4.053922, 6.19, -2.52, -0.16, 8.45
49.259994, 4.053922, 6.19, -2.11, 0.69, 8.51
49.259978, 4.054017, 6.41, -2.53, 0.60, 9.28
49.259978, 4.054017, 6.41, -2.84, 0.45, 11.44
49.259965, 4.054113, 6.93, -1.80, 0.49, 10.66
49.259950, 4.054219, 7.36, -1.97, -0.77, 10.19
49.259950, 4.054219, 7.36, -2.87, 0.89, 10.52
49.259935, 4.054318, 6.47, -1.42, -0.67, 9.46
49.259935, 4.054318, 6.47, -2.71, 0.85, 10.60
49.259921, 4.054410, 6.33, -2.38, -0.57, 10.57
49.259921, 4.054410, 6.33, -2.99, 0.39, 9.13
49.259906, 4.054504, 7.11, -2.07, 0.26, 8.98
49.259906, 4.054504, 7.11, -2.49, 0.63, 8.85
49.259892, 4.054608, 8.15, -2.82, 0.75, 10.43
49.259892, 4.054608, 8.15, -2.67, 0.22, 10.25
49.259877, 4.054727, 9.19, -1.05, 1.09, 9.09
49.259877, 4.054727, 9.19, -1.26, -0.69, 8.81
49.259856, 4.054856, 8.96, -1.49, -0.09, 9.15
49.259856, 4.054856, 8.96, -1.97, 0.00, 10.64
49.259839, 4.054982, 9.20, -1.48, 1.10, 9.55
49.259839, 4.054982, 9.20, -2.79, -0.30, 8.86
49.259818, 4.055105, 9.63, -2.56, -0.23, 10.80
49.259818, 4.055105, 9.63, -2.29, -0.00, 9.61
49.259794, 4.055237, 9.94, -2.74, 0.79, 9.72
49.259794, 4.055237, 9.94, -0.10, 0.26, 9.01
49.259771, 4.055375, 10.48, -1.11, 0.31, 9.66
49.259771, 4.055375, 10.48, -1.22, 0.02, 8.80
49.259748, 4.055513, 10.07, -0.91, 0.82, 9.06
49.259748, 4.055513, 10.07, -0.78, -0.39, 9.67
49.259726, 4.055647, 9.73, -1.68, 1.18, 11.65
49.259726, 4.055647, 9.73, -1.22, 0.30, 10.35
49.259702, 4.055772, 9.09, -1.16, -0.27, 10.35
49.259702, 4.055772, 9.09, -1.22, -0.18, 9.06
49.259680, 4.055889, 8.47, -1.33, -0.62, 9.14
49.259680, 4.055889, 8.47, -0.31, -1.32, 10.32
49.259661, 4.055998, 7.81, -0.96, -0.31, 9.37
49.259661, 4.055998, 7.81, -0.63, 0.66, 9.59
49.259646, 4.056092, 6.22, -1.10, 0.76, 9.44
49.259646, 4.056092, 6.22, 0.59, -1.06, 10.17
49.259632, 4.056170, 5.31, -1.24, 0.40, 10.55
49.259619, 4.056234, 4.52, -1.11, 0.44, 9.62
49.259619, 4.056234, 4.52, 0.03, 0.05, 8.54
49.259606, 4.056283, 3.32, 0.17, -1.45, 10.81
49.259606, 4.056283, 3.32, -0.73, 0.13, 9.71
49.259599, 4.056307, 1.21, -1.04, -0.97, 10.85
49.259599, 4.056307, 1.21, -1.31, -0.44, 10.54
49.259599, 4.056307, 0.00, -0.88, 0.44, 9.83
49.259599, 4.056307, 0.00, -1.84, 0.73, 9.69
49.259599, 4.056307, 0.00, -1.84, 1.19, 8.91
49.259599, 4.056307, 0.00, -1.88, 1.13, 8.75
49.259599, 4.056307, 0.00, -1.59, -0.88, 10.53
49.259599, 4.056307, 0.00, -1.88, 1.08, 9.14
49.259599, 4.056307, 0.00, -2.17, 0.52, 9.79
49.259599, 4.056307, 0.00, -1.45, -0.67, 10.35
49.259599, 4.056307, 0.00, -1.59, -0.10, 10.05
49.259599, 4.056307, 0.00, -1.72, -0.12, 9.84
49.259599, 4.056307, 0.00, -2.08, -0.45, 9.10
49.259599, 4.056307, 0.00, -2.29, -0.35, 9.58
49.259599, 4.056307, 0.00, -1.99, -0.22, 9.31
49.259599, 4.056307, 0.00, -0.76, 0.01, 10.02
49.259599, 4.056307, 0.00, -1.34, 0.70, 10.28
49.259599, 4.056307, 0.00, -1.96, 0.16, 9.62
49.259599, 4.056307, 0.00, -1.76, 0.01, 10.06
49.259599, 4.056307, 0.00, -1.42, -0.37, 10.04
49.259599, 4.056307, 0.00, -2.00, 0.66, 9.18
49.259599, 4.056307, 0.00, -1.94, 0.67, 9.47
49.259599, 4.056307, 0.00, -1.87, 0.67, 9.08
49.259599, 4.056307, 0.00, -1.73, 1.14, 8.88
49.259599, 4.056307, 0.00, -1.76, 0.12, 9.89
49.259599, 4.056307, 0.00, -1.90, -0.92, 10.35
49.259599, 4.056307, 0.00, -1.73, 0.62, 9.37
49.259599, 4.056307, 0.00, -1.52, -0.29, 9.45
49.259599, 4.056307, 0.00, -2.32, 0.93, 9.76
49.259599, 4.056307, 0.00, -2.21, 0.13, 9.66
49.259599, 4.056307, 0.00, -2.62, 0.86, 10.37
49.259599, 4.056307, 0.00, -3.17, 0.02, 9.38
49.259599, 4.056307, 0.00, -3.05, 0.62, 9.84
49.259577, 4.056341, 2.15, -1.62, 0.69, 10.39
49.259577, 4.056341, 2.15, 0.28, 0.12, 9.86
49.259575, 4.056372, 1.67, -1.81, -0.65, 9.50
49.259575, 4.056372, 1.67, -2.41, -0.72, 10.29
49.259574, 4.056399, 1.84, -2.86, -1.20, 9.57
49.259574, 4.056399, 1.84, -3.08, -1.63, 9.03
49.259576, 4.056432, 2.72, -3.02, -2.17, 9.41
49.259576, 4.056432, 2.72, -3.03, -2.08, 9.37
49.259595, 4.056471, 3.42, -2.20, -1.06, 9.52
49.259595, 4.056471, 3.42, -2.76, -0.05, 9.74
49.259630, 4.056493, 4.57, -1.56, -0.50, 10.09
49.259630, 4.056493, 4.57, -1.96, -0.11, 10.16
49.259675, 4.056500, 5.14, -1.58, 0.10, 9.49
49.259675, 4.056500, 5.14, -1.30, 0.02, 9.82
49.259720, 4.056507, 4.98, -1.58, 0.19, 9.50
49.259720, 4.056507, 4.98, -0.82, -1.32, 9.85
49.259766, 4.056515, 4.44, -1.10, 0.24, 9.64
49.259766, 4.056515, 4.44, -0.38, -0.48, 10.06
49.259803, 4.056519, 3.48, -1.69, 0.58, 9.36
49.259803, 4.056519, 3.48, -1.37, 0.16, 9.46
49.259836, 4.056525, 3.21, -1.00, -0.88, 10.38
49.259836, 4.056525, 3.21, -1.05, -0.89, 10.36
49.259869, 4.056537, 2.31, -0.92, -1.06, 10.62
49.259869, 4.056537, 2.31, -1.15, -0.86, 10.65
49.259892, 4.056545, 1.79, -1.21, 0.34, 9.40
49.259892, 4.056545, 1.79, -1.02, -0.68, 10.13
49.259912, 4.056549, 1.29, -0.91, -0.30, 10.01
49.259912, 4.056549, 1.29, -1.05, 0.63, 9.51
49.259912, 4.056549, 0.00, -1.45, -0.16, 10.00
49.259912, 4.056549, 0.00, -1.40, -0.31, 10.57
49.259912, 4.056549, 0.00, -1.95, -0.16, 10.02
49.259912, 4.056549, 0.00, -2.09, 0.56, 9.04
49.259912, 4.056549, 0.00, -1.88, -0.47, 10.00
49.259912, 4.056549, 0.00, -1.58, 0.62, 9.79
49.259912, 4.056549, 0.00, -1.67, -0.99, 10.55
49.259912, 4.056549, 0.00, -1.86, 0.72, 9.30
49.259912, 4.056549, 0.00, -1.57, -0.57, 10.32
49.259912, 4.056549, 0.00, -1.98, 0.51, 9.62
49.259912, 4.056549, 0.00, -1.68, -0.79, 10.47
49.259912, 4.056549, 0.00, -2.09, -0.45, 10.17
49.259912, 4.056549, 0.00, -1.42, 0.51, 9.45
49.259912, 4.056549, 0.00, -1.47, -1.23, 10.51
49.259912, 4.056549, 0.00, -2.30, -0.02, 9.92
49.259912, 4.056549, 0.00, -2.73, -0.03, 9.54
49.259912, 4.056549, 0.00, -3.43, 0.41, 9.58
49.259912, 4.056549, 0.00, -3.65, 0.60, 9.28
49.259912, 4.056549, 0.00, -4.26, 0.47, 9.13
49.259941, 4.056548, 2.42, -3.18, 0.24, 9.29
49.259941, 4.056548, 2.42, -3.10, 0.33, 8.56
49.259983, 4.056557, 5.33, -2.20, 0.23, 10.43
49.259983, 4.056557, 5.33, -1.52, 0.17, 10.08
49.260039, 4.056568, 6.05, -2.87, 0.10, 10.76
49.260039, 4.056568, 6.05, -3.05, 0.01, 9.14
49.260099, 4.056580, 6.72, -3.64, 0.47, 11.15
49.260099, 4.056580, 6.72, -2.83, 0.06, 9.26
49.260167, 4.056593, 7.92, -3.38, -0.02, 9.83
49.260167, 4.056593, 7.92, -2.78, 0.57, 8.24
49.260246, 4.056610, 9.49, -2.17, -0.12, 10.48
49.260246, 4.056610, 9.49, -1.28, 0.21, 11.04
49.260334, 4.056628, 9.75, -1.98, -0.43, 9.67
49.260334, 4.056628, 9.75, -2.42, 0.41, 9.41
49.260424, 4.056645, 9.85, -2.06, -0.35, 8.56
49.260424, 4.056645, 9.85, -2.82, 0.14, 9.45
49.260517, 4.056661, 10.63, -2.86, 0.34, 10.74
49.260517, 4.056661, 10.63, -1.67, 0.01, 9.44
49.260619, 4.056679, 11.55, -2.08, -0.28, 10.60
49.260725, 4.056700, 12.09, -1.29, 0.13, 10.12
49.260725, 4.056700, 12.09, -1.59, -0.14, 10.56
49.260834, 4.056720, 11.96, -2.11, 0.16, 10.61
49.260834, 4.056720, 11.96, -1.94, 0.55, 9.49
49.260942, 4.056741, 11.93, -1.52, -0.12, 9.65
49.260942, 4.056741, 11.93, -1.13, -0.26, 9.38
49.261045, 4.056762, 11.19, -1.80, -0.01, 10.27
49.261045, 4.056762, 11.19, -3.06, 0.12, 9.64
49.261146, 4.056786, 11.45, -2.58, 0.01, 10.85
49.261146, 4.056786, 11.45, -2.05, 0.25, 8.43
49.261253, 4.056808, 12.07, -2.83, 0.19, 9.32
49.261253, 4.056808, 12.07, -2.07, -0.32, 10.27
49.261363, 4.056829, 12.73, -1.30, 0.45, 10.83
49.261363, 4.056829, 12.73, -2.08, -0.30, 10.49
49.261475, 4.056851, 12.41, -1.99, -0.30, 10.02
49.261475, 4.056851, 12.41, -1.68, 0.39, 10.57
49.261585, 4.056874, 12.19, -0.90, -0.89, 13.04
49.261585, 4.056874, 12.19, -2.62, -0.70, 10.72
49.261694, 4.056893, 12.26, -1.74, 0.41, 7.92
49.261694, 4.056893, 12.26, -1.69, 0.41, 8.83
49.261804, 4.056914, 12.39, -1.72, 0.55, 10.09
49.261804, 4.056914, 12.39, -2.08, 0.22, 11.08
49.261911, 4.056933, 12.43, -1.95, 0.09, 9.73
49.261911, 4.056933, 12.43, -1.81, -0.81, 9.75
49.262020, 4.056951, 12.48, -1.70, -0.21, 10.23
49.262020, 4.056951, 12.48, -2.19, -0.52, 11.56
49.262127, 4.056971, 12.17, -2.10, -0.09, 9.73
49.262127, 4.056971, 12.17, -1.80, 0.51, 8.80
49.262236, 4.056995, 12.15, -2.28, 1.06, 11.41
49.262236, 4.056995, 12.15, -1.03, 0.30, 10.41
49.262343, 4.057016, 11.99, -1.66, 0.40, 8.81
49.262343, 4.057016, 11.99, -1.36, 1.35, 9.72
49.262450, 4.057038, 11.61, -1.70, -0.22, 8.31
49.262450, 4.057038, 11.61, -2.36, 0.44, 8.79
49.262556, 4.057061, 11.45, -3.30, -0.69, 11.05
49.262556, 4.057061, 11.45, -1.70, 0.38, 9.75
49.262661, 4.057088, 11.60, -1.88, 0.18, 9.25
49.262772, 4.057122, 11.94, -2.48, 0.03, 9.71
49.262772, 4.057122, 11.94, -2.04, -0.07, 9.73
49.262884, 4.057157, 12.09, -0.71, -0.07, 9.39
49.262884, 4.057157, 12.09, -2.76, -0.43, 10.42
49.262996, 4.057198, 12.22, -2.34, -0.09, 10.48
49.262996, 4.057198, 12.22, -1.34, -0.50, 10.03
49.263108, 4.057240, 12.13, -1.38, -0.66, 9.03
49.263108, 4.057240, 12.13, -1.40, -0.23, 11.32
49.263215, 4.057276, 11.54, -1.19, -0.51, 10.30
49.263215, 4.057276, 11.54, -2.06, -0.35, 9.91
49.263315, 4.057310, 11.11, -1.65, 0.07, 8.44
49.263315, 4.057310, 11.11, -0.95, 0.34, 10.34
49.263416, 4.057348, 10.45, -0.19, -0.35, 9.34
49.263416, 4.057348, 10.45, -0.99, 0.28, 8.50
49.263504, 4.057375, 9.35, -1.24, -0.49, 10.61
49.263504, 4.057375, 9.35, 0.30, 0.10, 10.13
49.263579, 4.057397, 8.00, 0.21, 0.41, 9.64
49.263579, 4.057397, 8.00, -0.32, 0.78, 10.75
49.263640, 4.057415, 6.59, -0.19, 0.68, 9.05
49.263640, 4.057415, 6.59, -0.67, -0.46, 8.92
49.263688, 4.057428, 5.41, -0.70, 0.41, 9.72
49.263688, 4.057428, 5.41, -0.13, -0.28, 10.19
49.263727, 4.057437, 4.31, -0.16, 0.64, 10.07
49.263727, 4.057437, 4.31, -0.20, -0.67, 9.58
49.263757, 4.057443, 2.82, 0.09, -0.23, 10.79
49.263757, 4.057443, 2.82, -0.70, -0.37, 9.19
49.263775, 4.057446, 1.85, -0.45, -0.50, 10.17
49.263775, 4.057446, 1.85, -0.65, -0.10, 9.73
49.263775, 4.057446, 0.00, -1.78, 0.15, 9.26
49.263775, 4.057446, 0.00, -1.51, 0.12, 9.25
49.263775, 4.057446, 0.00, -1.69, -0.35, 10.04
49.263775, 4.057446, 0.00, -2.02, 0.24, 9.97
49.263775, 4.057446, 0.00, -1.45, 0.11, 9.03
49.263775, 4.057446, 0.00, -1.30, 0.53, 10.29
49.263775, 4.057446, 0.00, -1.87, -0.57, 10.06
49.263775, 4.057446, 0.00, -1.82, -0.07, 9.99
49.263775, 4.057446, 0.00, -1.68, -0.54, 9.85
49.263775, 4.057446, 0.00, -1.45, -0.22, 9.86
49.263775, 4.057446, 0.00, -1.64, 0.69, 9.18
49.263775, 4.057446, 0.00, -1.76, 0.42, 8.90
49.263775, 4.057446, 0.00, -1.61, 0.32, 9.14
49.263775, 4.057446, 0.00, -1.38, 0.75, 9.86
49.263775, 4.057446, 0.00, -1.38, 0.70, 9.24
49.263775, 4.057446, 0.00, -1.40, 0.71, 10.04
49.263775, 4.057446, 0.00, -1.47, 0.77, 10.07
49.263775, 4.057446, 0.00, -1.58, 0.38, 9.73
49.263775, 4.057446, 0.00, -1.73, -0.79, 9.97
49.263775, 4.057446, 0.00, -1.62, 0.79, 10.26
49.263775, 4.057446, 0.00, -2.01, 0.21, 10.11
49.263775, 4.057446, 0.00, -1.65, -0.32, 9.53
49.263775, 4.057446, 0.00, -1.38, 0.66, 9.08
49.263775, 4.057446, 0.00, -1.96, 0.19, 9.98
49.263775, 4.057446, 0.00, -1.79, -0.68, 9.92
49.263775, 4.057446, 0.00, -1.52, 0.39, 10.67
49.263775, 4.057446, 0.00, -1.49, 0.64, 10.42
49.263775, 4.057446, 0.00, -1.49, 0.93, 10.35
49.263775, 4.057446, 0.00, -1.57, 0.64, 8.79
49.263775, 4.057446, 0.00, -1.75, 0.40, 9.19
49.263775, 4.057446, 0.00, -1.93, -0.45, 10.27
49.263775, 4.057446, 0.00, -1.56, -0.83, 10.10
49.263775, 4.057446, 0.00, -1.54, 0.88, 9.80
49.263775, 4.057446, 0.00, -1.80, -0.57, 10.49
49.263775, 4.057446, 0.00, -1.78, 0.78, 10.25
49.263775, 4.057446, 0.00, -1.36, 0.65, 9.17
49.263775, 4.057446, 0.00, -1.70, 0.48, 9.27
49.263775, 4.057446, 0.00, -1.68, -0.62, 10.28
49.263775, 4.057446, 0.00, -1.52, 0.16, 9.88
49.263775, 4.057446, 0.00, -1.59, 0.74, 9.82
49.263775, 4.057446, 0.00, -2.01, -0.17, 10.29
49.263775, 4.057446, 0.00, -1.50, -0.28, 9.73
49.263775, 4.057446, 0.00, -1.47, 0.77, 9.22
49.263775, 4.057446, 0.00, -1.94, 0.12, 10.11
49.263775, 4.057446, 0.00, -1.61, -0.60, 10.09
49.263775, 4.057446, 0.00, -1.52, 0.26, 10.23
49.263775, 4.057446, 0.00, -1.37, 0.79, 10.34
49.263775, 4.057446, 0.00, -1.46, 0.59, 9.44
49.263775, 4.057446, 0.00, -1.92, 0.02, 10.19
49.263775, 4.057446, 0.00, -1.77, -0.31, 10.27
49.263775, 4.057446, 0.00, -1.92, -0.26, 10.05
49.263775, 4.057446, 0.00, -1.82, -0.53, 10.18
49.263775, 4.057446, 0.00, -1.92, -0.54, 9.94
49.263775, 4.057446, 0.00, -1.36, -0.74, 10.25
49.263775, 4.057446, 0.00, -1.82, -0.19, 9.64
49.263775, 4.057446, 0.00, -1.44, 0.07, 10.27
49.263775, 4.057446, 0.00, -2.15, -0.43, 9.84
49.263775, 4.057446, 0.00, -1.79, -0.53, 10.16
49.263775, 4.057446, 0.00, -1.44, 0.34, 9.56
49.263775, 4.057446, 0.00, -1.22, 0.40, 9.37
49.263775, 4.057446, 0.00, -1.93, -0.02, 10.13
49.263775, 4.057446, 0.00, -1.48, -0.60, 9.79
49.263775, 4.057446, 0.00, -1.82, 0.69, 10.28
49.263775, 4.057446, 0.00, -1.53, 0.51, 9.56
49.263775, 4.057446, 0.00, -1.57, 0.17, 9.01
49.263775, 4.057446, 0.00, -1.97, 0.15, 9.69
49.263775, 4.057446, 0.00, -2.07, -0.75, 10.11
49.263775, 4.057446, 0.00, -1.03, -0.12, 9.73
49.263775, 4.057446, 0.00, -1.36, 0.52, 9.66
49.263775, 4.057446, 0.00, -1.55, 0.27, 9.54
49.263775, 4.057446, 0.00, -1.56, -0.16, 10.07
49.263775, 4.057446, 0.00, -1.66, -0.65, 10.40
49.263775, 4.057446, 0.00, -1.49, -0.77, 10.08
49.263775, 4.057446, 0.00, -1.54, 0.79, 9.68
49.263775, 4.057446, 0.00, -1.67, 0.13, 9.83
49.263775, 4.057446, 0.00, -1.69, -0.05, 10.23
49.263775, 4.057446, 0.00, -2.33, -0.08, 10.00
49.263775, 4.057446, 0.00, -1.78, 0.46, 10.29
49.263775, 4.057446, 0.00, -1.97, 0.08, 9.55
49.263775, 4.057446, 0.00, -1.89, 0.57, 10.00
49.263775, 4.057446, 0.00, -1.95, -0.27, 9.93
49.263775, 4.057446, 0.00, -1.63, 0.46, 9.51
49.263775, 4.057446, 0.00, -1.80, -0.30, 10.14
49.263775, 4.057446, 0.00, -1.38, 0.35, 9.84
49.263775, 4.057446, 0.00, -2.18, 0.12, 9.74
49.263775, 4.057446, 0.00, -1.53, -0.18, 9.72
49.263775, 4.057446, 0.00, -1.41, 0.45, 9.78
49.263775, 4.057446, 0.00, -1.75, -0.22, 9.69
49.263775, 4.057446, 0.00, -1.21, 0.14, 9.66
49.263775, 4.057446, 0.00, -1.50, 0.57, 10.48
49.263775, 4.057446, 0.00, -2.15, 0.05, 9.77
49.263775, 4.057446, 0.00, -1.48, 0.75, 10.51
49.263775, 4.057446, 0.00, -1.59, 0.31, 9.71
49.263775, 4.057446, 0.00, -1.78, 0.15, 9.27
49.263775, 4.057446, 0.00, -1.34, 0.34, 9.94
49.263775, 4.057446, 0.00, -1.76, -0.25, 10.10
49.263775, 4.057446, 0.00, -1.51, 0.37, 10.10
49.263775, 4.057446, 0.00, -1.94, -0.20, 9.71
49.263775, 4.057446, 0.00, -1.76, 0.15, 9.58
49.263775, 4.057446, 0.00, -1.62, 0.54, 10.62
49.263775, 4.057446, 0.00, -2.03, -0.35, 9.84
49.263775, 4.057446, 0.00, -2.00, 0.18, 9.93
49.263775, 4.057446, 0.00, -1.52, 0.45, 9.22
49.263775, 4.057446, 0.00, -1.88, 0.75, 10.20
49.263775, 4.057446, 0.00, -1.92, 0.72, 10.29
49.263775, 4.057446, 0.00, -1.49, 0.51, 10.32
49.263775, 4.057446, 0.00, -1.88, -0.40, 9.74
49.263775, 4.057446, 0.00, -2.09, 0.16, 9.97
49.263775, 4.057446, 0.00, -1.77, 0.32, 10.01
49.263775, 4.057446, 0.00, -1.52, -0.13, 9.49
49.263775, 4.057446, 0.00, -1.67, 0.62, 10.04
49.263775, 4.057446, 0.00, -1.83, 0.27, 9.11
49.263775, 4.057446, 0.00, -2.12, 0.34, 10.09
49.263775, 4.057446, 0.00, -1.59, 0.21, 10.25
49.263775, 4.057446, 0.00, -1.69, -0.13, 9.84
49.263775, 4.057446, 0.00, -1.74, 0.52, 10.42
49.263775, 4.057446, 0.00, -1.76, 0.43, 9.88
49.263775, 4.057446, 0.00, -1.72, 0.79, 10.22
49.263775, 4.057446, 0.00, -1.28, 0.92, 8.82
49.263775, 4.057446, 0.00, -1.52, 0.14, 10.01
49.263775, 4.057446, 0.00, -1.22, 0.00, 9.50
49.263775, 4.057446, 0.00, -1.45, 0.27, 9.97
49.263775, 4.057446, 0.00, -1.50, 0.06, 10.02
49.263775, 4.057446, 0.00, -2.25, 0.48, 9.57
49.263775, 4.057446, 0.00, -1.69, 0.24, 10.18
49.263775, 4.057446, 0.00, -1.19, -0.10, 10.05
49.263819, 4.057470, 0.00, -1.62, -0.15, 9.88
49.263819, 4.057470, 0.00, -1.53, 0.48, 9.39
49.263819, 4.057470, 0.00, -1.04, 0.42, 9.82
49.263819, 4.057470, 0.00, -1.53, 0.26, 9.66
49.263819, 4.057470, 0.00, -1.68, 0.17, 9.51
49.263819, 4.057470, 0.00, -1.72, -0.16, 9.58
49.263819, 4.057470, 0.00, -1.62, 0.34, 9.22
49.263819, 4.057470, 0.00, -1.50, 0.24, 9.55
49.263819, 4.057470, 0.00, -1.71, 0.13, 9.54
49.263819, 4.057470, 0.00, -1.71, 0.27, 9.86
49.263819, 4.057470, 0.00, -1.53, 0.12, 9.79
49.263819, 4.057470, 0.00, -1.63, 0.12, 10.30
49.263819, 4.057470, 0.00, -1.92, 0.17, 9.25
49.263819, 4.057470, 0.00, -1.87, -0.41, 9.53
49.263819, 4.057470, 0.00, -2.99, 1.44, 9.81
49.263819, 4.057470, 0.00, -3.79, 0.81, 10.09
49.263819, 4.057470, 0.00, -3.52, 0.47, 9.63
49.263819, 4.057470, 0.00, -4.20, 0.87, 10.30
49.263843, 4.057472, 2.78, -3.79, 1.00, 8.91
49.263843, 4.057472, 2.78, -3.30, 0.73, 8.95
49.263883, 4.057485, 4.87, -0.62, 0.60, 9.76
49.263883, 4.057485, 4.87, -2.49, 1.01, 8.50
49.263937, 4.057500, 5.89, -2.42, 0.83, 8.10
49.263937, 4.057500, 5.89, -3.01, 1.00, 10.66
49.263999, 4.057523, 6.83, -1.74, 2.31, 10.43
49.263999, 4.057523, 6.83, -1.63, 2.12, 9.69
49.264066, 4.057561, 7.61, -2.00, 3.27, 8.85
49.264066, 4.057561, 7.61, -2.65, 1.24, 10.18
49.264132, 4.057625, 8.36, -2.93, 1.49, 9.25
49.264132, 4.057625, 8.36, -1.32, 0.63, 9.65
49.264185, 4.057731, 10.11, -1.95, -0.03, 10.74
49.264185, 4.057731, 10.11, -2.90, 0.64, 9.90
49.264232, 4.057864, 10.53, -2.60, 0.81, 8.94
49.264232, 4.057864, 10.53, -2.15, 0.33, 10.21
49.264281, 4.058005, 10.98, -3.82, 0.86, 8.52
49.264281, 4.058005, 10.98, -2.11, 0.14, 13.35
49.264332, 4.058153, 12.09, -0.83, 0.34, 10.42
49.264332, 4.058153, 12.09, -2.96, 0.32, 10.66
49.264385, 4.058304, 12.04, -1.26, -0.77, 9.23
49.264436, 4.058450, 11.74, -1.07, -0.20, 9.64
49.264436, 4.058450, 11.74, -0.98, -0.14, 10.30
49.264485, 4.058590, 11.16, -1.60, 0.34, 10.53
49.264485, 4.058590, 11.16, -1.76, 0.21, 9.49
49.264533, 4.058726, 11.20, -1.38, -0.16, 8.37
49.264533, 4.058726, 11.20, -1.58, -0.38, 9.86
49.264581, 4.058859, 11.07, -1.13, -0.46, 9.69
49.264581, 4.058859, 11.07, -1.12, -0.19, 9.05
49.264629, 4.058991, 10.66, -0.38, -0.84, 9.74
49.264629, 4.058991, 10.66, -0.27, 0.14, 9.05
49.264671, 4.059114, 9.70, -0.43, -0.07, 10.99
49.264671, 4.059114, 9.70, -0.88, 0.23, 9.79
49.264710, 4.059222, 8.38, -0.89, -1.48, 11.33
49.264710, 4.059222, 8.38, 1.11, 0.52, 5.68
49.264742, 4.059317, 7.24, -1.30, 0.70, 10.23
49.264742, 4.059317, 7.24, -0.84, 0.54, 10.65
49.264770, 4.059401, 6.39, -1.39, -0.40, 9.64
49.264770, 4.059401, 6.39, -0.65, -0.57, 10.07
49.264795, 4.059471, 5.06, -0.41, -1.05, 10.80
49.264795, 4.059471, 5.06, -0.48, -0.57, 10.24
49.264822, 4.059528, 3.72, 0.22, -0.86, 9.85
49.264822, 4.059528, 3.72, 0.65, -0.91, 10.33
49.264836, 4.059563, 1.70, -0.39, -0.42, 10.93
49.264836, 4.059563, 1.70, -1.22, -0.30, 9.90
49.264836, 4.059563, 0.00, -1.38, -0.28, 10.77
49.264836, 4.059563, 0.00, -1.05, -0.15, 9.09
49.264836, 4.059563, 0.00, -1.51, -0.07, 10.06
49.264836, 4.059563, 0.00, -1.64, -0.12, 10.70
49.264836, 4.059563, 0.00, -1.51, -0.10, 10.70
49.264836, 4.059563, 0.00, -1.58, -0.15, 9.94
49.264836, 4.059563, 0.00, -1.81, -0.21, 10.06
49.264836, 4.059563, 0.00, -1.46, -0.30, 8.75
49.264836, 4.059563, 0.00, -1.80, -0.18, 9.25
49.264836, 4.059563, 0.00, -1.88, 0.07, 9.32
49.264836, 4.059563, 0.00, -1.67, 0.03, 10.68
49.264836, 4.059563, 0.00, -2.02, 0.29, 9.71
49.264836, 4.059563, 0.00, -1.46, -0.79, 9.62
49.264836, 4.059563, 0.00, -1.81, 0.42, 9.64
49.264836, 4.059563, 0.00, -2.40, 0.57, 9.37
49.264836, 4.059563, 0.00, -2.14, -0.21, 9.56
49.264836, 4.059563, 0.00, -1.90, -0.23, 9.92
49.264836, 4.059563, 0.00, -2.69, 0.33, 8.76
49.264836, 4.059563, 0.00, -2.80, 0.19, 9.81
49.264836, 4.059563, 0.00, -3.83, 0.93, 9.38
49.264836, 4.059563, 0.00, -2.98, 0.44, 10.09
49.264859, 4.059621, 3.23, -2.90, 0.43, 9.91
49.264859, 4.059621, 3.23, -3.93, 0.53, 9.39
49.264878, 4.059671, 4.90, -3.08, 0.46, 9.25
49.264878, 4.059671, 4.90, -1.30, 0.40, 9.14
49.264903, 4.059734, 5.58, -0.00, -0.49, 9.70
49.264903, 4.059734, 5.58, 0.75, -0.64, 9.27
49.264925, 4.059789, 3.93, 0.83, -1.29, 11.16
49.264925, 4.059789, 3.93, 0.39, -0.33, 10.17
49.264942, 4.059827, 1.60, -0.42, -0.70, 9.46
49.264942, 4.059827, 1.60, -1.82, -0.25, 9.64
49.264953, 4.059846, 1.14, -1.04, -0.12, 10.07
49.264953, 4.059846, 1.14, -1.28, -0.02, 9.21
49.264961, 4.059859, 0.81, -1.17, -0.18, 9.44
49.264961, 4.059859, 0.81, -1.59, -0.14, 10.60
49.264961, 4.059859, 0.00, -2.01, 0.15, 9.45
49.264961, 4.059859, 0.00, -1.81, -0.12, 8.89
49.264961, 4.059859, 0.00, -1.77, 0.08, 10.72
49.264961, 4.059859, 0.00, -2.08, -0.09, 10.13
49.264961, 4.059859, 0.00, -2.13, 0.46, 9.76
49.264961, 4.059859, 0.00, -1.54, 0.19, 9.97
49.264961, 4.059859, 0.00, -2.10, 0.37, 10.53
49.264961, 4.059859, 0.00, -2.34, 0.47, 9.04
49.264961, 4.059859, 0.00, -3.36, 0.84, 9.61
49.264961, 4.059859, 0.00, -2.21, -0.19, 9.34
49.264981, 4.059901, 1.74, -2.81, -0.39, 9.46
49.264981, 4.059901, 1.74, -1.38, -0.70, 10.07
49.264994, 4.059929, 3.06, -1.17, -0.76, 9.67
49.264994, 4.059929, 3.06, -2.10, 0.06, 10.00
49.265005, 4.059962, 3.04, -1.27, -0.06, 10.73
49.265005, 4.059962, 3.04, -0.99, 0.00, 10.25
49.265017, 4.059998, 3.08, -0.30, -0.29, 9.76
49.265017, 4.059998, 3.08, -0.87, -0.41, 9.98
49.265029, 4.060030, 2.47, -1.53, -0.19, 9.08
49.265029, 4.060030, 2.47, -1.01, -0.00, 9.68
49.265039, 4.060059, 2.31, -0.96, -0.33, 9.17
49.265039, 4.060059, 2.31, -0.54, -0.27, 8.97
49.265046, 4.060084, 1.74, -1.49, 0.03, 9.78
49.265046, 4.060084, 1.74, -1.06, -0.17, 10.73
49.265052, 4.060105, 1.37, -0.96, -0.44, 9.71
49.265052, 4.060105, 1.37, -0.38, -0.26, 10.25
49.265052, 4.060105, 0.00, -1.67, -0.33, 9.95
49.265052, 4.060105, 0.00, -1.77, -0.32, 9.44
49.265052, 4.060105, 0.00, -1.42, 0.14, 9.78
49.265052, 4.060105, 0.00, -1.70, -0.07, 9.29
49.265052, 4.060105, 0.00, -1.56, -0.44, 10.63
49.265052, 4.060105, 0.00, -2.14, 0.09, 9.90
49.265052, 4.060105, 0.00, -2.15, 0.10, 9.22
49.265064, 4.060147, 0.99, -2.69, 0.24, 9.51
49.265064, 4.060147, 0.99, -3.46, -0.50, 10.06
49.265070, 4.060167, 2.19, -3.73, 0.90, 10.25
49.265070, 4.060167, 2.19, -3.03, 0.51, 9.70
49.265081, 4.060204, 3.44, -2.77, 0.14, 9.51
49.265081, 4.060204, 3.44, -2.72, 0.23, 9.48
49.265095, 4.060252, 4.51, -1.66, -0.06, 9.15
49.265095, 4.060252, 4.51, -1.37, 0.37, 10.84
49.265115, 4.060312, 4.87, -0.89, 0.79, 9.95
49.265115, 4.060312, 4.87, -1.78, -0.53, 9.51
49.265134, 4.060369, 4.64, -1.14, -0.71, 10.48
49.265134, 4.060369, 4.64, -1.99, 0.92, 9.62
49.265154, 4.060427, 4.69, -2.02, 0.62, 10.15
49.265154, 4.060427, 4.69, -0.66, -0.51, 9.84
49.265174, 4.060480, 4.36, -1.52, 0.21, 9.32
49.265174, 4.060480, 4.36, -1.36, 0.13, 9.57
49.265194, 4.060530, 3.90, -1.23, -0.44, 10.32
49.265194, 4.060530, 3.90, -0.75, -0.38, 10.24
49.265212, 4.060575, 3.33, -0.64, -0.82, 11.36
49.265212, 4.060575, 3.33, -0.49, -0.24, 10.85
49.265225, 4.060608, 2.29, -1.70, 0.14, 10.15
49.265225, 4.060608, 2.29, -1.44, 0.21, 9.67
49.265236, 4.060635, 1.82, -1.45, 0.11, 9.25
49.265236, 4.060635, 1.82, -1.79, -0.29, 10.52
49.265245, 4.060656, 1.72, -1.76, 0.67, 9.28
49.265245, 4.060656, 1.72, -2.39, 0.50, 9.12
49.265254, 4.060679, 1.81, -2.38, 0.20, 9.44
49.265254, 4.060679, 1.81, -0.95, -0.37, 9.99
49.265264, 4.060704, 2.14, -1.63, -0.13, 9.07
49.265264, 4.060704, 2.14, -0.51, -0.24, 10.50
49.265274, 4.060729, 2.05, -0.69, -0.14, 9.27
49.265274, 4.060729, 2.05, -0.78, -0.37, 9.67
49.265280, 4.060746, 0.97, -1.19, -0.25, 9.20
49.265280, 4.060746, 0.97, -1.03, -0.32, 10.54
49.265280, 4.060746, 0.00, -1.40, 0.02, 10.59
49.265280, 4.060746, 0.00, -2.00, 0.02, 10.63
49.265280, 4.060746, 0.00, -1.70, -0.32, 10.06
49.265280, 4.060746, 0.00, -1.90, 0.01, 8.66
49.265280, 4.060746, 0.00, -1.49, -0.06, 9.20
49.265280, 4.060746, 0.00, -1.85, -0.26, 9.93
49.265280, 4.060746, 0.00, -1.39, 0.01, 9.41
49.265280, 4.060746, 0.00, -2.13, 0.21, 9.15
49.265280, 4.060746, 0.00, -1.67, 0.12, 10.88
49.265280, 4.060746, 0.00, -1.20, -0.03, 9.10
49.265280, 4.060746, 0.00, -1.69, -0.05, 9.64
49.265280, 4.060746, 0.00, -1.81, -0.14, 9.92
49.265280, 4.060746, 0.00, -2.11, -0.14, 9.29
49.265280, 4.060746, 0.00, -1.66, -0.21, 8.97
49.265280, 4.060746, 0.00, -1.92, -0.08, 9.88
49.265280, 4.060746, 0.00, -1.62, 0.14, 9.40
49.265280, 4.060746, 0.00, -1.54, -0.52, 10.55
49.265280, 4.060746, 0.00, -1.64, -0.79, 10.09
49.265280, 4.060746, 0.00, -1.58, -0.55, 10.03
49.265280, 4.060746, 0.00, -2.00, 0.30, 9.17
49.265280, 4.060746, 0.00, -2.09, -0.53, 10.14
49.265280, 4.060746, 0.00, -2.24, 0.01, 9.95
49.265280, 4.060746, 0.00, -2.10, 0.24, 9.72
49.265284, 4.060756, 0.82, -2.10, 0.05, 9.54
49.265284, 4.060756, 0.82, -2.35, -0.13, 10.04
49.265287, 4.060771, 1.28, -1.24, 0.43, 10.32
49.265287, 4.060771, 1.28, -1.88, -0.25, 10.06
49.265293, 4.060791, 1.34, -1.10, -0.24, 10.06
49.265293, 4.060791, 1.34, -1.42, -0.11, 10.56
49.265297, 4.060806, 0.86, -1.32, -0.29, 9.80
49.265297, 4.060806, 0.86, -1.24, -0.19, 10.21
49.265297, 4.060806, 0.00, -1.99, -0.04, 10.20
49.265297, 4.060806, 0.00, -1.64, -0.22, 8.98
49.265297, 4.060806, 0.00, -1.77, -0.23, 8.80
49.265297, 4.060806, 0.00, -2.26, -0.23, 9.73
49.265297, 4.060806, 0.00, -1.71, 0.17, 10.88
49.265297, 4.060806, 0.00, -1.33, -0.21, 9.30
49.265297, 4.060806, 0.00, -1.65, 0.02, 9.49
49.265297, 4.060806, 0.00, -2.01, 0.69, 9.29
49.265297, 4.060806, 0.00, -1.76, 0.13, 9.77
49.265297, 4.060806, 0.00, -2.10, 0.46, 10.23
49.265297, 4.060806, 0.00, -1.35, -0.63, 10.08
49.265297, 4.060806, 0.00, -1.47, -0.06, 9.32
49.265297, 4.060806, 0.00, -1.46, -0.29, 9.39
49.265297, 4.060806, 0.00, -1.39, 0.03, 9.28
49.265297, 4.060806, 0.00, -1.32, -0.09, 8.71
49.265297, 4.060806, 0.00, -1.29, 0.04, 8.79
49.265297, 4.060806, 0.00, -1.78, 0.01, 10.89
49.265297, 4.060806, 0.00, -1.96, -0.54, 11.01
49.265297, 4.060806, 0.00, -1.62, 0.00, 11.10
49.265297, 4.060806, 0.00, -1.63, 0.01, 9.25
49.265297, 4.060806, 0.00, -1.38, -0.08, 9.87
49.265297, 4.060806, 0.00, -1.44, 0.11, 10.32
49.265297, 4.060806, 0.00, -1.47, -0.10, 10.17
49.265297, 4.060806, 0.00, -1.92, -0.19, 9.82
49.265297, 4.060806, 0.00, -1.79, 0.19, 8.98
49.265297, 4.060806, 0.00, -1.64, 0.02, 9.27
49.265297, 4.060806, 0.00, -1.59, 0.00, 9.26
49.265297, 4.060806, 0.00, -1.24, 0.01, 10.43
49.265297, 4.060806, 0.00, -1.29, -0.17, 8.95
49.265297, 4.060806, 0.00, -2.00, 0.06, 9.33
49.265297, 4.060806, 0.00, -1.70, -0.05, 10.27
49.265297, 4.060806, 0.00, -2.16, 0.19, 10.64
49.265297, 4.060806, 0.00, -1.00, -0.33, 8.66
49.265297, 4.060806, 0.00, -1.67, -0.17, 8.83
49.265297, 4.060806, 0.00, -1.41, -0.01, 9.38
49.265297, 4.060806, 0.00, -1.14, 0.03, 10.82
49.265297, 4.060806, 0.00, -1.36, -0.24, 10.33
49.265297, 4.060806, 0.00, -1.71, -0.36, 9.36
49.265297, 4.060806, 0.00, -1.66, 0.03, 9.09
49.265297, 4.060806, 0.00, -1.70, -0.27, 9.96
49.265297, 4.060806, 0.00, -1.61, 0.12, 9.31
49.265297, 4.060806, 0.00, -1.38, 0.05, 9.94
49.265297, 4.060806, 0.00, -1.45, 0.02, 10.93
49.265297, 4.060806, 0.00, -1.56, 0.11, 9.98
49.265297, 4.060806, 0.00, -1.58, -0.24, 10.23
49.265297, 4.060806, 0.00, -1.84, -0.27, 9.50
49.265297, 4.060806, 0.00, -2.04, -0.02, 9.07
49.265297, 4.060806, 0.00, -1.39, -0.08, 9.63
49.265297, 4.060806, 0.00, -1.87, 0.23, 9.39
49.265297, 4.060806, 0.00, -1.30, -0.11, 9.26
49.265297, 4.060806, 0.00, -1.59, -0.15, 9.81
49.265297, 4.060806, 0.00, -1.49, -0.03, 8.99
49.265297, 4.060806, 0.00, -1.68, -0.18, 9.15
49.265297, 4.060806, 0.00, -1.88, -0.05, 10.18
49.265297, 4.060806, 0.00, -1.52, -0.16, 9.93
49.265297, 4.060806, 0.00, -1.96, 0.05, 10.78
49.265297, 4.060806, 0.00, -2.38, 0.22, 9.46
49.265297, 4.060806, 0.00, -2.29, 0.37, 9.38
49.265297, 4.060806, 0.00, -1.76, -0.10, 10.41
49.265297, 4.060806, 0.00, -1.60, -0.12, 10.71
49.265297, 4.060806, 0.00, -1.69, -0.21, 9.89
49.265297, 4.060806, 0.00, -1.42, 0.34, 10.01
49.265297, 4.060806, 0.00, -1.46, 0.20, 9.87
49.265297, 4.060806, 0.00, -1.96, -0.32, 9.81
49.265297, 4.060806, 0.00, -2.84, 0.27, 9.94
49.265297, 4.060806, 0.00, -2.77, 0.49, 9.71
49.265297, 4.060806, 0.00, -2.01, -0.58, 10.58
49.265297, 4.060806, 0.00, -2.17, -0.35, 9.19
49.265313, 4.060856, 1.18, -1.77, -0.38, 9.06
49.265313, 4.060856, 1.18, -1.65, 0.05, 10.29
49.265320, 4.060876, 1.15, -1.42, -0.25, 9.62
49.265320, 4.060876, 1.15, -1.72, -0.32, 10.30
49.265325, 4.060892, 1.00, -1.63, -0.88, 10.60
49.265325, 4.060892, 1.00, -1.91, -0.65, 10.41
49.265330, 4.060905, 0.93, -2.24, 0.49, 10.50
49.265330, 4.060905, 0.93, -2.50, 0.67, 9.44
49.265333, 4.060913, 1.03, -2.25, -0.18, 10.06
49.265333, 4.060913, 1.03, -2.72, 0.22, 10.02
49.265339, 4.060931, 1.93, -1.83, -0.37, 10.15
49.265339, 4.060931, 1.93, -1.21, -0.58, 10.86
49.265352, 4.060959, 2.20, -2.43, 0.43, 9.63
49.265352, 4.060959, 2.20, -2.05, 0.63, 9.50
49.265366, 4.060989, 2.70, -2.18, 0.73, 9.38
49.265366, 4.060989, 2.70, -1.39, -0.37, 9.25
49.265380, 4.061021, 2.68, -1.40, 0.03, 9.76
49.265380, 4.061021, 2.68, -1.01, 0.33, 10.37
49.265392, 4.061050, 2.27, -0.44, -0.23, 10.07
49.265392, 4.061050, 2.27, -0.78, -0.07, 9.19
49.265402, 4.061072, 1.49, -1.21, -0.04, 11.35
49.265402, 4.061072, 1.49, -1.69, -0.30, 9.62
49.265409, 4.061086, 1.13, -1.58, 0.02, 10.47
49.265409, 4.061086, 1.13, -1.51, -0.21, 9.69
49.265414, 4.061097, 1.03, -1.23, -0.07, 9.96
49.265414, 4.061097, 1.03, -1.37, -0.15, 10.46
49.265418, 4.061108, 0.94, -0.94, 0.00, 10.53
49.265418, 4.061108, 0.94, -1.36, -0.23, 9.26
49.265418, 4.061108, 0.00, -2.39, -0.05, 9.78
49.265418, 4.061108, 0.00, -1.88, -0.09, 10.71
49.265418, 4.061108, 0.00, -1.79, 0.12, 10.13
49.265418, 4.061108, 0.00, -1.63, -0.08, 9.10
49.265418, 4.061108, 0.00, -1.78, 0.08, 10.61
49.265418, 4.061108, 0.00, -1.70, -0.13, 9.37
49.265418, 4.061108, 0.00, -1.85, -0.39, 10.13
49.265418, 4.061108, 0.00, -2.14, -0.07, 11.20
49.265418, 4.061108, 0.00, -1.68, 0.23, 11.44
49.265418, 4.061108, 0.00, -1.65, 0.16, 9.20
49.265418, 4.061108, 0.00, -1.81, 0.05, 8.43
49.265418, 4.061108, 0.00, -2.23, -0.17, 10.02
49.265418, 4.061108, 0.00, -2.05, 0.21, 9.87
49.265418, 4.061108, 0.00, -1.92, 0.11, 8.58
49.265418, 4.061108, 0.00, -1.58, 0.27, 10.82
49.265418, 4.061108, 0.00, -0.99, 0.23, 8.37
49.265418, 4.061108, 0.00, -2.14, -0.11, 10.28
49.265418, 4.061108, 0.00, -1.27, -0.03, 10.41
49.265418, 4.061108, 0.00, -1.58, -0.30, 9.46
49.265418, 4.061108, 0.00, -1.76, 0.15, 10.32
49.265418, 4.061108, 0.00, -2.59, -0.03, 9.61
49.265418, 4.061108, 0.00, -2.36, -0.23, 9.57
49.265418, 4.061108, 0.00, -3.41, 0.57, 9.62
49.265418, 4.061108, 0.00, -3.95, 0.57, 10.18
49.265418, 4.061108, 0.00, -4.13, 0.67, 9.20
49.265427, 4.061138, 2.45, -2.61, -0.12, 9.25
49.265427, 4.061138, 2.45, -1.01, -0.35, 8.03
49.265442, 4.061183, 3.65, -0.97, -0.21, 8.25
49.265442, 4.061183, 3.65, 0.57, -0.66, 10.75
49.265459, 4.061233, 3.47, 0.55, -0.57, 10.18
49.265459, 4.061233, 3.47, 0.01, -0.21, 9.50
49.265470, 4.061267, 1.57, -0.10, -0.19, 10.95
49.265470, 4.061267, 1.57, -1.75, -0.11, 9.18
49.265470, 4.061267, 0.00, -1.37, -0.66, 10.48
49.265470, 4.061267, 0.00, -1.36, -0.85, 9.74
49.265470, 4.061267, 0.00, -2.55, 0.40, 9.10
49.265470, 4.061267, 0.00, -2.24, -0.22, 9.41
49.265479, 4.061289, 0.82, -1.43, 0.10, 10.06
49.265479, 4.061289, 0.82, -1.05, 0.01, 10.51
49.265479, 4.061289, 0.00, -0.91, 0.16, 10.96
49.265479, 4.061289, 0.00, -1.57, 0.19, 8.46
49.265479, 4.061289, 0.00, -1.36, -0.16, 8.91
49.265479, 4.061289, 0.00, -1.72, -0.06, 8.98
49.265479, 4.061289, 0.00, -1.85, 0.21, 8.83
49.265479, 4.061289, 0.00, -1.39, 0.55, 10.26
49.265479, 4.061289, 0.00, -1.35, -0.24, 9.68
49.265479, 4.061289, 0.00, -1.81, 0.23, 11.13
49.265479, 4.061289, 0.00, -1.74, -0.39, 9.61
49.265479, 4.061289, 0.00, -1.35, -0.42, 10.62
49.265479, 4.061289, 0.00, -2.22, 0.18, 9.31
49.265479, 4.061289, 0.00, -3.41, -0.08, 9.35
49.265479, 4.061289, 0.00, -3.16, 0.23, 9.78
49.265492, 4.061331, 1.08, -2.85, 0.36, 9.59
49.265492, 4.061331, 1.08, -2.51, 0.17, 9.22
49.265502, 4.061365, 3.38, -0.33, -1.03, 9.87
49.265502, 4.061365, 3.38, -1.17, 0.37, 10.47
49.265514, 4.061409, 2.71, -0.83, -0.52, 10.11
49.265514, 4.061409, 2.71, -1.03, 0.23, 10.46
49.265524, 4.061442, 1.94, -2.14, 0.31, 10.44
49.265524, 4.061442, 1.94, -1.42, 0.04, 9.02
49.265532, 4.061472, 1.86, -1.47, -0.38, 9.14
49.265532, 4.061472, 1.86, -1.70, -0.04, 10.29
49.265539, 4.061496, 1.68, -2.04, -0.43, 10.28
49.265539, 4.061496, 1.68, -2.56, 0.48, 9.65
49.265546, 4.061520, 1.98, -1.81, 0.16, 9.27
49.265546, 4.061520, 1.98, -1.32, -0.57, 9.46
49.265559, 4.061552, 2.43, -1.60, 0.15, 9.38
49.265559, 4.061552, 2.43, -1.89, -0.18, 10.05
49.265572, 4.061582, 2.38, -1.04, -0.17, 10.64
49.265572, 4.061582, 2.38, -1.22, 0.13, 9.15
49.265584, 4.061610, 2.04, -2.05, 0.42, 10.18
49.265584, 4.061610, 2.04, -1.92, 0.10, 10.83
49.265592, 4.061632, 1.64, -1.56, 0.04, 10.02
49.265592, 4.061632, 1.64, -2.09, 0.46, 9.22
49.265598, 4.061651, 1.58, -1.92, -0.37, 9.19
49.265598, 4.061651, 1.58, -1.93, 0.70, 9.69
49.265606, 4.061674, 2.13, -0.10, -0.69, 9.51
49.265606, 4.061674, 2.13, 0.91, -0.06, 9.55
49.265615, 4.061694, 1.48, -1.07, -0.14, 9.34
49.265615, 4.061694, 1.48, -0.78, -0.10, 9.80
49.265615, 4.061694, 0.00, -2.17, 0.13, 9.79
49.265615, 4.061694, 0.00, -1.14, -0.49, 10.05
49.265615, 4.061694, 0.00, -1.74, -0.06, 10.42
49.265615, 4.061694, 0.00, -2.60, 0.08, 9.63
49.265615, 4.061694, 0.00, -2.02, 0.29, 9.65
49.265615, 4.061694, 0.00, -2.72, 0.60, 9.39
49.265615, 4.061694, 0.00, -3.53, 0.80, 10.37
49.265615, 4.061694, 0.00, -0.81, 0.22, 7.94
49.265630, 4.061727, 2.23, -2.02, 0.40, 9.53
49.265641, 4.061755, 2.11, -1.15, 0.06, 9.24
49.265641, 4.061755, 2.11, -2.50, 0.49, 9.74
49.265652, 4.061783, 2.36, -2.29, 0.50, 8.83
49.265652, 4.061783, 2.36, -2.10, 0.23, 10.68
49.265664, 4.061813, 2.87, -1.48, -0.27, 8.71
49.265664, 4.061813, 2.87, -1.40, -0.81, 10.87
49.265677, 4.061847, 2.74, -1.76, 0.30, 10.00
49.265677, 4.061847, 2.74, -1.16, 0.34, 9.34
49.265689, 4.061879, 2.66, -1.44, -0.00, 10.50
49.265689, 4.061879, 2.66, -2.06, -0.24, 10.77
49.265703, 4.061912, 2.74, -2.67, 0.28, 9.12
49.265703, 4.061912, 2.74, -2.79, -0.12, 9.53
49.265716, 4.061948, 3.36, -2.48, -0.13, 9.65
49.265716, 4.061948, 3.36, -2.92, -0.25, 9.78
49.265732, 4.061994, 4.23, -1.21, -0.06, 9.73
49.265732, 4.061994, 4.23, -1.94, -0.30, 8.88
49.265753, 4.062047, 4.40, -2.09, -0.46, 10.01
49.265753, 4.062047, 4.40, -0.58, 0.06, 9.59
49.265772, 4.062101, 4.16, -1.57, 0.49, 9.52
49.265772, 4.062101, 4.16, -1.49, -0.56, 10.14
49.265792, 4.062153, 4.19, -1.12, -0.19, 10.33
49.265792, 4.062153, 4.19, -1.19, -0.57, 9.95
49.265812, 4.062203, 3.97, -1.90, 0.36, 9.14
49.265812, 4.062203, 3.97, -1.73, 0.18, 9.55
49.265831, 4.062251, 4.11, -1.46, -0.27, 8.90
49.265831, 4.062251, 4.11, -1.45, -0.38, 10.35
49.265850, 4.062298, 3.97, -1.03, -0.13, 9.31
49.265850, 4.062298, 3.97, -1.54, -0.07, 9.99
49.265867, 4.062343, 3.67, -2.19, 0.04, 9.67
49.265867, 4.062343, 3.67, -1.72, 0.17, 9.99
49.265883, 4.062385, 3.72, -2.73, 1.09, 10.03
49.265883, 4.062385, 3.72, -2.94, 1.09, 9.69
49.265900, 4.062431, 4.02, -1.74, 0.60, 10.38
49.265900, 4.062431, 4.02, -1.12, 0.62, 9.96
49.265920, 4.062484, 4.48, -1.79, -0.31, 10.45
49.265920, 4.062484, 4.48, -2.43, -0.36, 10.42
49.265941, 4.062539, 4.64, -2.63, -0.63, 9.47
49.265941, 4.062539, 4.64, -2.88, 0.21, 10.30
49.265962, 4.062597, 5.00, -3.38, 1.34, 9.98
49.265962, 4.062597, 5.00, -3.18, 0.73, 10.22
49.265985, 4.062663, 5.85, -2.05, -0.02, 8.83
49.266015, 4.062744, 6.77, -1.25, -0.56, 10.53
49.266015, 4.062744, 6.77, -2.47, 0.23, 9.59
49.266045, 4.062827, 7.29, -1.96, 0.84, 9.68
49.266045, 4.062827, 7.29, -2.82, 0.47, 11.13
49.266080, 4.062919, 7.88, -2.01, 0.07, 10.41
49.266080, 4.062919, 7.88, -3.39, -0.18, 9.75
49.266115, 4.063013, 8.43, -1.62, 0.14, 9.41
49.266115, 4.063013, 8.43, -2.04, 0.34, 9.99
49.266153, 4.063114, 8.17, -1.40, -1.22, 9.44
49.266153, 4.063114, 8.17, -0.55, 0.12, 11.19
49.266192, 4.063209, 7.51, -1.02, 1.07, 11.04
49.266192, 4.063209, 7.51, -1.15, 0.99, 12.48
49.266227, 4.063295, 6.79, -1.54, 0.39, 10.33
49.266227, 4.063295, 6.79, -2.87, -0.52, 7.41
49.266257, 4.063374, 6.62, -2.91, 0.97, 11.87
49.266257, 4.063374, 6.62, -2.72, 0.13, 9.05
49.266290, 4.063456, 7.01, -1.24, -0.22, 8.53
49.266290, 4.063456, 7.01, -1.78, -1.14, 8.87
49.266323, 4.063538, 6.77, -1.42, 0.28, 10.71
49.266323, 4.063538, 6.77, -3.02, 0.47, 11.66
49.266352, 4.063613, 6.29, -2.12, -0.77, 8.71
49.266352, 4.063613, 6.29, -1.24, -1.66, 9.83
49.266381, 4.063688, 6.25, -2.19, 0.08, 9.73
49.266381, 4.063688, 6.25, -1.45, 0.20, 9.22
49.266407, 4.063761, 5.51, -2.03, 0.30, 9.00
49.266407, 4.063761, 5.51, -3.44, 0.67, 11.90
49.266430, 4.063824, 5.08, -2.93, 0.49, 9.01
49.266430, 4.063824, 5.08, -3.90, 0.54, 8.30
49.266453, 4.063887, 5.60, -0.80, -0.33, 9.83
49.266453, 4.063887, 5.60, -2.77, -0.16, 10.15
49.266480, 4.063957, 6.38, -2.00, 0.19, 9.69
49.266480, 4.063957, 6.38, -1.94, -0.03, 9.96
49.266509, 4.064035, 6.85, -2.13, 0.99, 10.63
49.266509, 4.064035, 6.85, -1.85, 0.69, 8.08
49.266540, 4.064118, 6.67, -2.65, 0.40, 10.76
49.266540, 4.064118, 6.67, -2.63, 0.61, 9.28
49.266574, 4.064204, 7.10, -2.74, 0.11, 8.73
49.266574, 4.064204, 7.10, -2.80, 0.41, 9.05
49.266605, 4.064292, 7.85, -2.53, 0.12, 9.31
49.266605, 4.064292, 7.85, -2.47, 0.24, 8.31
49.266642, 4.064393, 8.53, -1.73, 0.11, 9.61
49.266682, 4.064502, 9.09, -1.58, 0.09, 9.89
49.266682, 4.064502, 9.09, -2.12, 0.15, 9.10
49.266723, 4.064613, 9.31, -2.04, 0.79, 10.09
49.266723, 4.064613, 9.31, -1.77, 0.31, 8.80
49.266764, 4.064723, 9.04, -1.37, -1.10, 9.57
49.266764, 4.064723, 9.04, -2.33, 0.00, 9.76
49.266803, 4.064825, 8.55, -0.35, -0.51, 8.89
49.266803, 4.064825, 8.55, -1.54, -0.67, 10.39
49.266841, 4.064922, 8.02, -0.57, -1.11, 10.18
49.266841, 4.064922, 8.02, -1.87, 0.19, 10.02
49.266879, 4.065013, 7.70, -1.71, -0.13, 9.97
49.266879, 4.065013, 7.70, -2.03, -0.29, 9.83
49.266915, 4.065100, 7.40, -0.49, -0.35, 9.46
49.266915, 4.065100, 7.40, -0.14, -0.16, 10.98
49.266950, 4.065182, 6.53, 0.70, 1.34, 11.01
49.266950, 4.065182, 6.53, 0.55, -0.30, 11.26
49.266979, 4.065248, 4.65, 0.48, -0.36, 10.76
49.266979, 4.065248, 4.65, 0.38, -0.83, 9.82
49.266999, 4.065294, 3.07, 0.34, -0.55, 9.39
49.266999, 4.065294, 3.07, -0.50, -0.42, 10.71
49.267012, 4.065324, 1.94, -0.64, -0.33, 10.72
49.267012, 4.065324, 1.94, -0.27, -0.55, 9.27
49.267021, 4.065341, 1.33, 0.09, -0.51, 9.42
49.267021, 4.065341, 1.33, -1.05, -0.50, 9.97
49.267021, 4.065341, 0.00, -0.79, -0.34, 9.19
49.267021, 4.065341, 0.00, -0.58, -0.59, 10.17
49.267021, 4.065341, 0.00, -1.58, -0.14, 10.77
49.267021, 4.065341, 0.00, -1.31, -0.35, 10.56
49.267021, 4.065341, 0.00, -1.59, -0.20, 10.30
49.267021, 4.065341, 0.00, -1.61, -0.22, 9.37
49.267021, 4.065341, 0.00, -1.56, -0.57, 10.14
49.267021, 4.065341, 0.00, -1.57, 0.19, 9.45
49.267021, 4.065341, 0.00, -1.81, -0.11, 10.13
49.267021, 4.065341, 0.00, -2.19, -0.12, 10.64
49.267034, 4.065367, 0.98, -1.73, -0.11, 8.82
49.267034, 4.065367, 0.98, -1.96, 0.85, 9.66
49.267041, 4.065388, 1.84, -2.39, -0.14, 9.61
49.267041, 4.065388, 1.84, -2.45, 0.48, 9.40
49.267051, 4.065423, 2.93, -2.60, -0.72, 9.10
49.267051, 4.065423, 2.93, -2.86, -0.20, 9.28
49.267066, 4.065472, 4.12, -2.46, 0.03, 10.38
49.267086, 4.065531, 5.30, -1.37, -0.19, 9.60
49.267086, 4.065531, 5.30, -1.43, -0.39, 9.76
49.267113, 4.065600, 6.08, -2.70, 0.63, 10.57
49.267113, 4.065600, 6.08, -3.51, 0.22, 10.41
49.267143, 4.065677, 7.14, -2.44, -0.42, 8.56
49.267143, 4.065677, 7.14, -3.70, 0.39, 10.68
49.267178, 4.065765, 7.58, -1.30, -0.90, 10.94
49.267178, 4.065765, 7.58, 0.01, -1.51, 8.61
49.267211, 4.065851, 6.72, -1.57, 0.23, 11.11
49.267211, 4.065851, 6.72, -2.11, -0.05, 10.64
49.267242, 4.065932, 6.37, -1.29, -0.47, 10.25
49.267242, 4.065932, 6.37, -2.67, 0.20, 8.46
49.267271, 4.066008, 6.29, -2.53, -0.09, 9.73
49.267271, 4.066008, 6.29, -2.89, 0.58, 8.58
49.267303, 4.066087, 6.83, -2.96, -0.11, 9.65
49.267303, 4.066087, 6.83, -2.95, 0.52, 8.90
49.267338, 4.066176, 7.83, -2.99, -0.51, 9.28
49.267338, 4.066176, 7.83, -1.89, -0.06, 9.26
49.267376, 4.066282, 9.12, -0.39, -0.64, 11.81
49.267376, 4.066282, 9.12, -1.97, 0.65, 10.93
49.267419, 4.066395, 9.38, -2.05, -0.19, 10.45
49.267419, 4.066395, 9.38, -2.55, -0.04, 9.85
49.267462, 4.066511, 9.64, -1.50, -0.64, 9.07
49.267462, 4.066511, 9.64, -1.45, -0.89, 9.50
49.267503, 4.066623, 9.33, -1.84, -0.34, 9.16
49.267503, 4.066623, 9.33, -1.22, -0.74, 9.75
49.267545, 4.066730, 8.92, -1.92, -0.24, 10.31
49.267545, 4.066730, 8.92, -0.58, -1.30, 10.30
49.267585, 4.066833, 8.49, -1.31, 0.02, 9.97
49.267585, 4.066833, 8.49, -1.57, -1.38, 10.34
49.267623, 4.066932, 7.81, -1.53, -0.14, 9.73
49.267623, 4.066932, 7.81, -1.33, 0.04, 10.72
49.267659, 4.067021, 7.25, -1.34, -0.24, 10.86
49.267659, 4.067021, 7.25, -1.28, -0.47, 10.26
49.267690, 4.067105, 6.83, -1.53, -0.30, 9.68
49.267690, 4.067105, 6.83, -1.41, -0.02, 10.16
49.267720, 4.067185, 6.62, -1.03, -0.30, 9.31
49.267720, 4.067185, 6.62, -1.21, -1.13, 10.24
49.267749, 4.067262, 6.23, -0.34, -1.24, 9.04
49.267749, 4.067262, 6.23, -0.89, -0.06, 9.44
49.267774, 4.067332, 5.51, -1.08, -0.41, 10.37
49.267797, 4.067392, 4.51, -0.63, -0.65, 9.82
49.267797, 4.067392, 4.51, -1.45, -0.25, 9.50
49.267816, 4.067442, 3.74, -1.40, -1.04, 10.03
49.267816, 4.067442, 3.74, -1.36, 0.01, 10.44
49.267832, 4.067484, 3.44, -1.45, 0.06, 10.35
49.267832, 4.067484, 3.44, -1.55, 0.29, 10.71
49.267848, 4.067524, 3.27, -2.43, 0.15, 10.01
49.267848, 4.067524, 3.27, -2.37, -0.12, 8.85
49.267865, 4.067564, 3.46, -2.04, -0.35, 11.31
49.267865, 4.067564, 3.46, -1.49, -0.45, 10.89
49.267881, 4.067605, 3.46, -1.14, -0.83, 9.58
49.267881, 4.067605, 3.46, -1.48, -0.90, 10.17
49.267895, 4.067642, 3.32, -1.79, -1.01, 10.45
49.267895, 4.067642, 3.32, -2.07, -0.95, 9.94
49.267910, 4.067683, 3.28, -2.27, -0.72, 10.38
49.267910, 4.067683, 3.28, -1.97, -1.11, 9.97
49.267924, 4.067723, 3.35, 1.22, -1.58, 10.17
49.267924, 4.067723, 3.35, -0.28, -0.72, 10.94
49.267934, 4.067752, 1.70, -0.64, -0.64, 10.15
49.267934, 4.067752, 1.70, -1.33, -0.63, 8.74
49.267934, 4.067752, 0.00, -1.66, -0.71, 10.45
49.267934, 4.067752, 0.00, -1.29, -0.66, 9.12
49.267934, 4.067752, 0.00, -2.32, -0.50, 9.83
49.267934, 4.067752, 0.00, -1.95, -0.49, 9.62
49.267934, 4.067752, 0.00, -1.92, -0.44, 8.64
49.267934, 4.067752, 0.00, -1.83, -0.67, 8.96
49.267934, 4.067752, 0.00, -1.70, -0.28, 9.78
49.267934, 4.067752, 0.00, -2.00, -0.37, 8.77
49.267934, 4.067752, 0.00, -1.91, -0.50, 10.45
49.267934, 4.067752, 0.00, -1.92, -0.48, 10.23
49.267934, 4.067752, 0.00, -1.97, -0.73, 9.56
49.267934, 4.067752, 0.00, -1.68, -0.38, 9.73
49.267934, 4.067752, 0.00, -2.04, -0.75, 9.92
49.267934, 4.067752, 0.00, -1.78, -0.19, 9.65
49.267934, 4.067752, 0.00, -2.51, -0.51, 9.75
49.267934, 4.067752, 0.00, -3.25, -0.15, 9.33
49.267934, 4.067752, 0.00, -2.47, -0.37, 10.24
49.267934, 4.067752, 0.00, -2.44, 0.13, 9.27
49.267944, 4.067777, 1.48, -1.51, -0.29, 9.59
49.267944, 4.067777, 1.48, -1.70, -0.95, 10.70
49.267953, 4.067805, 2.21, -1.74, -0.78, 10.96
49.267953, 4.067805, 2.21, -1.40, -0.37, 9.73
49.267963, 4.067832, 2.10, -1.45, -0.31, 9.23
49.267973, 4.067857, 1.95, -1.84, -0.39, 9.44
49.267973, 4.067857, 1.95, -1.62, -0.73, 10.38
49.267982, 4.067880, 1.57, -1.50, -0.30, 10.34
49.267982, 4.067880, 1.57, -0.99, -0.67, 10.24
49.267988, 4.067897, 1.24, -1.44, -0.17, 10.41
49.267988, 4.067897, 1.24, -1.74, 0.28, 9.96
49.267994, 4.067911, 1.32, -2.64, 0.64, 10.50
49.267994, 4.067911, 1.32, -1.55, -0.23, 9.68
49.267999, 4.067927, 1.27, -1.81, -0.03, 9.41
49.267999, 4.067927, 1.27, -1.91, -0.68, 9.60
49.268004, 4.067941, 1.05, -1.65, -0.30, 9.38
49.268004, 4.067941, 1.05, -1.33, -0.19, 10.44
49.268008, 4.067953, 0.85, -1.73, -0.52, 9.06
49.268008, 4.067953, 0.85, -1.27, -0.69, 9.78
49.268008, 4.067953, 0.00, -0.93, -0.56, 10.57
49.268008, 4.067953, 0.00, -1.98, -0.34, 9.53
49.268008, 4.067953, 0.00, -1.95, -0.22, 10.69
49.268008, 4.067953, 0.00, -2.06, -0.37, 11.03
49.268008, 4.067953, 0.00, -1.66, -0.74, 10.52
49.268008, 4.067953, 0.00, -2.26, -0.11, 10.05
49.268008, 4.067953, 0.00, -1.79, -0.28, 10.24
49.268008, 4.067953, 0.00, -1.92, -0.50, 10.08
49.268008, 4.067953, 0.00, -1.78, -0.59, 9.18
49.268008, 4.067953, 0.00, -1.89, -0.47, 9.46
49.268008, 4.067953, 0.00, -2.05, -0.31, 10.15
49.268008, 4.067953, 0.00, -1.90, -0.41, 10.04
49.268008, 4.067953, 0.00, -2.07, -0.23, 9.21
49.268008, 4.067953, 0.00, -2.23, -0.42, 9.40
49.268008, 4.067953, 0.00, -2.09, 0.13, 9.76
49.268008, 4.067953, 0.00, -2.30, -0.50, 9.99
49.268008, 4.067953, 0.00, -2.53, -0.47, 10.15
49.268008, 4.067953, 0.00, -2.66, 0.22, 9.19
49.268008, 4.067953, 0.00, -2.67, 0.02, 9.15
49.268008, 4.067953, 0.00, -3.35, 0.12, 9.84
49.268019, 4.067977, 1.52, -2.91, -0.83, 10.42
49.268019, 4.067977, 1.52, -2.78, -0.66, 9.26
49.268030, 4.068006, 2.89, -1.63, -0.95, 8.50
49.268030, 4.068006, 2.89, -1.84, -0.91, 9.88
49.268046, 4.068046, 3.21, -1.59, -0.45, 9.67
49.268046, 4.068046, 3.21, -2.98, -0.38, 11.26
49.268062, 4.068087, 2.93, -2.22, 0.10, 10.18
49.268062, 4.068087, 2.93, -3.10, -0.13, 10.23
49.268078, 4.068128, 3.54, -2.40, -0.11, 10.07
49.268095, 4.068174, 4.17, -1.73, -0.11, 9.72
49.268095, 4.068174, 4.17, -1.99, -0.52, 10.58
49.268115, 4.068227, 4.16, -2.68, -0.62, 10.22
49.268115, 4.068227, 4.16, -2.17, -1.31, 10.07
49.268135, 4.068283, 4.50, -0.83, -1.17, 8.18
49.268135, 4.068283, 4.50, -0.45, -0.57, 10.75
49.268154, 4.068333, 4.04, -0.72, -0.32, 9.61
49.268154, 4.068333, 4.04, -0.66, -0.79, 10.33
49.268170, 4.068374, 2.84, 0.22, -0.19, 10.21
49.268170, 4.068374, 2.84, -0.53, -0.40, 10.83
49.268179, 4.068397, 1.25, -1.57, -0.31, 8.77
49.268179, 4.068397, 1.25, -1.73, -0.26, 9.07
49.268179, 4.068397, 0.00, -1.77, -0.10, 10.49
49.268179, 4.068397, 0.00, -0.98, -0.58, 9.77
49.268179, 4.068397, 0.00, -1.54, -0.21, 10.51
49.268179, 4.068397, 0.00, -1.83, -0.05, 9.56
49.268179, 4.068397, 0.00, -3.12, -0.24, 10.06
49.268179, 4.068397, 0.00, -2.46, -0.21, 9.51
49.268179, 4.068397, 0.00, -2.69, -0.05, 9.68
49.268179, 4.068397, 0.00, -2.88, -0.33, 9.56
49.268197, 4.068443, 1.43, -2.76, -0.27, 9.82
49.268197, 4.068443, 1.43, -2.87, 0.17, 9.84
49.268209, 4.068478, 3.16, -3.22, 0.19, 9.47
49.268209, 4.068478, 3.16, -2.04, 0.14, 10.18
49.268225, 4.068528, 4.12, -1.87, -0.53, 9.69
49.268225, 4.068528, 4.12, -2.10, 0.64, 9.22
49.268244, 4.068582, 4.40, -2.55, -0.30, 9.69
49.268244, 4.068582, 4.40, -1.93, 0.23, 10.69
49.268263, 4.068637, 4.39, -2.81, 0.71, 8.97
49.268263, 4.068637, 4.39, -3.56, 0.08, 10.75
49.268287, 4.068702, 5.17, -1.74, -0.49, 9.15
49.268287, 4.068702, 5.17, -0.85, 0.25, 10.04
49.268314, 4.068775, 5.89, -1.02, -0.57, 9.22
49.268314, 4.068775, 5.89, -1.40, 0.36, 9.48
49.268341, 4.068847, 5.64, -0.50, 0.56, 9.67
49.268341, 4.068847, 5.64, -2.14, -0.25, 10.83
49.268365, 4.068912, 5.25, -1.73, 0.15, 10.40
49.268365, 4.068912, 5.25, -1.70, 0.10, 9.26
49.268386, 4.068969, 4.68, -2.04, 0.41, 9.95
49.268386, 4.068969, 4.68, -1.89, -0.09, 8.79
49.268404, 4.069023, 4.68, -2.76, -1.35, 7.28
49.268404, 4.069023, 4.68, -2.63, -0.97, 9.07
49.268425, 4.069081, 4.74, -0.80, 0.11, 9.37
49.268425, 4.069081, 4.74, -0.84, 0.45, 10.42
49.268446, 4.069138, 4.34, -0.65, 0.04, 9.69
49.268465, 4.069189, 3.58, -0.45, -0.55, 9.89
49.268465, 4.069189, 3.58, -1.07, 0.34, 8.87
49.268477, 4.069222, 2.37, -1.32, -0.17, 9.42
49.268477, 4.069222, 2.37, -1.65, -0.07, 10.45
49.268486, 4.069244, 1.93, -1.52, -0.11, 10.41
49.268486, 4.069244, 1.93, -1.10, 0.02, 9.44
49.268493, 4.069264, 1.71, -0.71, -0.34, 9.64
49.268493, 4.069264, 1.71, -1.15, -0.26, 9.81
49.268497, 4.069276, 0.90, -0.80, -0.09, 10.74
49.268497, 4.069276, 0.90, -1.77, 0.06, 10.26
49.268497, 4.069276, 0.00, -1.81, -0.03, 10.54
49.268497, 4.069276, 0.00, -1.68, -0.04, 10.54
49.268497, 4.069276, 0.00, -1.76, -0.14, 10.14
49.268497, 4.069276, 0.00, -1.84, -0.13, 9.91
49.268497, 4.069276, 0.00, -1.82, -0.08, 9.99
49.268497, 4.069276, 0.00, -3.00, 0.36, 9.18
49.268497, 4.069276, 0.00, -2.81, 0.80, 9.76
49.268497, 4.069276, 0.00, -3.37, 0.95, 9.83
49.268497, 4.069276, 0.00, -3.47, 0.81, 10.52
49.268497, 4.069276, 0.00, -1.76, 0.36, 9.61
49.268501, 4.069313, 2.07, -1.66, 0.09, 9.51
49.268501, 4.069313, 2.07, -0.74, -0.34, 10.22
49.268512, 4.069344, 1.96, -0.26, -0.39, 10.54
49.268512, 4.069344, 1.96, -0.66, -0.05, 9.86
49.268512, 4.069344, 0.00, -1.50, 0.02, 10.11
49.268512, 4.069344, 0.00, -1.28, -0.08, 10.09
49.268512, 4.069344, 0.00, -1.89, 0.05, 10.50
49.268512, 4.069344, 0.00, -1.75, 0.26, 9.18
49.268512, 4.069344, 0.00, -1.75, 0.16, 10.97
49.268512, 4.069344, 0.00, -1.13, 0.04, 10.62
49.268512, 4.069344, 0.00, -1.44, 0.19, 9.28
49.268512, 4.069344, 0.00, -2.31, -0.07, 10.08
49.268512, 4.069344, 0.00, -3.02, 0.40, 9.84
49.268512, 4.069344, 0.00, -2.74, 0.88, 9.71
49.268512, 4.069344, 0.00, -2.53, 0.59, 9.96
49.268512, 4.069344, 0.00, -2.45, 0.29, 9.30
49.268512, 4.069344, 0.00, -2.09, -0.69, 11.01
49.268512, 4.069344, 0.00, -1.92, 0.23, 10.12
49.268532, 4.069394, 1.99, -1.02, -0.34, 11.19
49.268532, 4.069394, 1.99, -1.17, -0.57, 11.17
49.268547, 4.069423, 1.55, -0.74, -0.04, 10.11
49.268547, 4.069423, 0.00, -0.63, -0.25, 9.41
49.268547, 4.069423, 0.00, -1.72, 0.33, 8.37
49.268547, 4.069423, 0.00, -1.99, -0.07, 10.81
49.268547, 4.069423, 0.00, -2.15, 0.13, 9.80
49.268547, 4.069423, 0.00, -1.81, 0.18, 10.64
49.268547, 4.069423, 0.00, -1.72, 0.14, 10.06
49.268547, 4.069423, 0.00, -1.69, 0.23, 9.71
49.268547, 4.069423, 0.00, -1.48, 0.01, 10.67
49.268547, 4.069423, 0.00, -1.50, -0.50, 10.00
49.268547, 4.069423, 0.00, -2.55, -0.01, 9.84
49.268547, 4.069423, 0.00, -2.72, 0.86, 10.10
49.268547, 4.069423, 0.00, -2.83, 0.09, 9.35
49.268547, 4.069423, 0.00, -1.31, -0.10, 9.62
49.268547, 4.069423, 0.00, -1.70, -0.02, 9.62
49.268547, 4.069423, 0.00, -1.56, 0.45, 10.44
49.268547, 4.069423, 0.00, -1.72, 0.15, 8.88
49.268547, 4.069423, 0.00, -1.91, -0.13, 10.48
49.268547, 4.069423, 0.00, -1.38, -0.11, 10.48
49.268547, 4.069423, 0.00, -1.25, -0.13, 10.28
49.268547, 4.069423, 0.00, -1.52, 0.11, 9.35
49.268547, 4.069423, 0.00, -1.85, 0.20, 8.76
49.268547, 4.069423, 0.00, -1.74, -0.05, 10.80
49.268547, 4.069423, 0.00, -2.04, 0.26, 10.63
49.268547, 4.069423, 0.00, -2.06, -0.11, 9.97
49.268547, 4.069423, 0.00, -2.85, 0.70, 9.33
49.268547, 4.069423, 0.00, -3.37, 0.51, 10.27
49.268547, 4.069423, 0.00, -2.41, 0.47, 9.11
49.268547, 4.069423, 0.00, -2.74, 0.68, 8.68
49.268573, 4.069481, 2.18, -1.98, -0.20, 10.67
49.268573, 4.069481, 2.18, -1.47, -0.62, 9.95
49.268584, 4.069512, 1.97, -1.79, 0.31, 9.94
49.268584, 4.069512, 1.97, -2.43, 0.45, 9.03
49.268594, 4.069541, 1.65, -3.15, 1.13, 9.82
49.268594, 4.069541, 1.65, -2.10, 0.21, 8.87
49.268604, 4.069570, 2.24, -1.80, 0.07, 7.66
49.268604, 4.069570, 2.24, -1.55, 0.02, 10.18
49.268616, 4.069602, 2.44, -2.36, 0.29, 9.98
49.268616, 4.069602, 2.44, -1.01, 1.05, 10.39
49.268626, 4.069632, 2.18, -1.05, 0.21, 8.88
49.268626, 4.069632, 2.18, -1.78, 0.06, 9.28
49.268634, 4.069656, 1.96, -1.54, 0.09, 8.35
49.268645, 4.069678, 1.73, -2.65, 0.54, 9.87
49.268645, 4.069678, 1.73, -2.12, 0.09, 9.16
49.268656, 4.069704, 2.30, -2.60, 0.04, 10.06
49.268656, 4.069704, 2.30, -2.58, 0.82, 8.69
49.268667, 4.069735, 2.91, -2.64, 0.67, 9.20
49.268667, 4.069735, 2.91, -2.85, 0.73, 8.93
49.268678, 4.069775, 3.32, -2.36, -0.23, 10.28
49.268678, 4.069775, 3.32, -2.19, -0.43, 8.24
49.268687, 4.069819, 3.61, -0.24, -0.38, 9.57
49.268687, 4.069819, 3.61, -0.82, -0.04, 10.22
49.268694, 4.069863, 3.13, -2.16, 0.29, 8.04
49.268694, 4.069863, 3.13, -2.81, 2.67, 9.92
49.268701, 4.069908, 4.14, -1.98, 2.91, 8.96
49.268701, 4.069908, 4.14, -2.57, 2.60, 9.91
49.268709, 4.069969, 5.28, -1.72, 3.21, 9.05
49.268709, 4.069969, 5.28, -0.92, 0.54, 11.30
49.268690, 4.070046, 6.31, -1.56, 0.21, 9.39
49.268690, 4.070046, 6.31, -2.70, -0.78, 10.02
49.268656, 4.070128, 6.87, -3.14, -0.94, 9.80
49.268656, 4.070128, 6.87, -2.83, -1.58, 8.91
49.268622, 4.070219, 7.64, -2.13, -1.60, 8.71
49.268622, 4.070219, 7.64, -1.12, -2.08, 10.23
49.268605, 4.070328, 8.04, -1.45, -1.79, 9.61
49.268605, 4.070328, 8.04, -2.45, -1.70, 9.79
49.268606, 4.070446, 7.77, -0.38, -1.90, 9.31
49.268606, 4.070446, 7.77, -2.13, -1.73, 10.13
49.268613, 4.070555, 7.45, -2.08, -1.52, 9.50
49.268613, 4.070555, 7.45, -2.53, -1.60, 9.80
49.268638, 4.070649, 7.44, -2.73, -0.90, 11.04
49.268638, 4.070649, 7.44, -2.53, -1.57, 8.94
49.268679, 4.070738, 7.92, -2.47, -1.15, 9.14
49.268679, 4.070738, 7.92, -1.91, -0.55, 8.91
49.268737, 4.070805, 8.05, -3.40, -1.40, 8.61
49.268737, 4.070805, 8.05, -1.69, -0.51, 9.44
49.268801, 4.070864, 8.34, -1.40, -1.50, 9.91
49.268801, 4.070864, 8.34, -1.36, -0.07, 9.29
49.268875, 4.070902, 8.77, -1.40, 2.50, 9.85
49.268875, 4.070902, 8.77, -2.07, 2.35, 9.94
49.268958, 4.070929, 8.89, -1.96, 2.46, 10.20
49.268958, 4.070929, 8.89, -3.26, 3.08, 10.80
49.269040, 4.070971, 8.92, -2.24, 2.38, 7.56
49.269118, 4.071045, 9.82, -2.31, 3.21, 9.74
49.269118, 4.071045, 9.82, -2.45, 1.78, 11.15
49.269184, 4.071165, 11.28, -2.95, 0.82, 8.76
49.269184, 4.071165, 11.28, -3.10, 0.90, 9.36
49.269242, 4.071307, 12.09, -2.56, 0.55, 9.83
49.269242, 4.071307, 12.09, -3.04, 0.41, 9.82
49.269302, 4.071462, 13.05, -0.54, -0.37, 10.15
49.269302, 4.071462, 13.05, -1.00, 0.44, 9.62
49.269362, 4.071618, 12.84, -1.70, -0.51, 10.62
49.269362, 4.071618, 12.84, -1.57, -0.58, 10.35
49.269420, 4.071767, 12.62, -1.31, 0.43, 10.97
49.269420, 4.071767, 12.62, -1.47, 0.04, 9.62
49.269481, 4.071916, 12.69, -1.95, -0.59, 10.29
49.269481, 4.071916, 12.69, -2.33, -0.42, 9.92
49.269540, 4.072068, 12.90, -2.02, 0.29, 9.26
49.269540, 4.072068, 12.90, -1.94, -0.60, 9.74
49.269597, 4.072224, 12.95, -2.24, 0.35, 10.36
49.269597, 4.072224, 12.95, -2.44, 0.22, 9.89
49.269654, 4.072377, 13.22, -2.12, 0.42, 9.24
49.269654, 4.072377, 13.22, -2.49, 0.23, 10.12
49.269716, 4.072541, 13.70, -2.42, 0.05, 10.09
49.269716, 4.072541, 13.70, -1.66, -0.45, 9.68
49.269782, 4.072717, 14.22, -1.52, -0.52, 10.61
49.269782, 4.072717, 14.22, -1.93, 0.28, 9.76
49.269846, 4.072890, 14.16, -2.05, 0.03, 9.61
49.269846, 4.072890, 14.16, -1.59, 0.26, 9.12
49.269912, 4.073062, 14.18, -1.24, -0.23, 8.65
49.269912, 4.073062, 14.18, -1.26, -0.50, 9.81
49.269978, 4.073234, 13.85, -1.92, 0.00, 9.78
49.269978, 4.073234, 13.85, -2.47, -0.57, 10.14
49.270042, 4.073405, 13.85, -1.76, 0.55, 9.67
49.270042, 4.073405, 13.85, -0.83, 0.10, 8.34
49.270105, 4.073572, 13.84, -2.59, 0.03, 9.72
49.270105, 4.073572, 13.84, -1.85, -0.16, 8.44
49.270167, 4.073738, 13.99, -1.19, 0.19, 9.65
49.270167, 4.073738, 13.99, -1.06, 0.27, 8.35
49.270232, 4.073906, 13.96, -1.56, 0.68, 8.67
49.270232, 4.073906, 13.96, -1.84, 0.34, 9.79
49.270295, 4.074067, 13.66, -2.10, -0.12, 10.70
49.270295, 4.074067, 13.66, -1.78, 0.40, 9.50
49.270355, 4.074225, 13.62, -2.16, 0.07, 11.54
49.270355, 4.074225, 13.62, -1.99, 0.18, 8.77
49.270415, 4.074385, 13.53, -1.86, 1.20, 10.58
49.270415, 4.074385, 13.53, -2.20, -0.01, 9.46
49.270475, 4.074544, 13.64, -2.10, 0.06, 9.92
49.270538, 4.074706, 13.88, -2.44, -0.31, 9.63
49.270538, 4.074706, 13.88, -1.47, -0.11, 8.18
49.270603, 4.074873, 14.06, -1.95, 0.29, 8.52
49.270603, 4.074873, 14.06, -2.06, -0.04, 10.38
49.270668, 4.075040, 14.18, -2.65, 0.68, 9.95
49.270668, 4.075040, 14.18, -1.74, 0.14, 10.53
49.270732, 4.075210, 14.33, -2.26, 0.75, 9.42
49.270732, 4.075210, 14.33, -2.06, 0.12, 8.49
49.270797, 4.075386, 14.56, -2.07, 0.05, 10.93
49.270797, 4.075386, 14.56, -1.79, 0.11, 9.54
49.270863, 4.075564, 14.70, -2.40, 0.77, 8.99
49.270863, 4.075564, 14.70, -2.10, 0.47, 9.76
49.270927, 4.075744, 14.90, -2.40, 0.27, 9.43
49.270927, 4.075744, 14.90, -2.50, 0.78, 10.70
49.270993, 4.075927, 15.35, -2.15, 0.47, 9.04
49.270993, 4.075927, 15.35, -2.91, 0.32, 9.14
49.271062, 4.076116, 15.93, -2.92, -0.01, 9.96
49.271062, 4.076116, 15.93, -2.65, 0.54, 10.49
49.271133, 4.076311, 16.32, -3.01, 0.06, 7.37
49.271133, 4.076311, 16.32, -2.19, -0.01, 9.22
49.271207, 4.076513, 17.15, -2.24, 0.07, 10.37
49.271207, 4.076513, 17.15, -2.34, 0.77, 11.11
49.271286, 4.076725, 17.50, -2.34, -0.34, 9.44
49.271286, 4.076725, 17.50, -2.85, 0.36, 11.36
49.271365, 4.076940, 18.16, -3.05, -0.71, 10.11
49.271365, 4.076940, 18.16, -1.98, 0.69, 9.87
49.271449, 4.077158, 18.78, -2.75, 0.80, 9.66
49.271449, 4.077158, 18.78, -1.93, 0.63, 9.94
49.271533, 4.077389, 19.24, -2.14, 0.66, 8.20
49.271533, 4.077389, 19.24, -2.36, 0.50, 11.02
49.271618, 4.077625, 19.65, -2.86, 0.09, 10.18
49.271618, 4.077625, 19.65, -2.05, 0.95, 10.21
49.271704, 4.077864, 20.08, -2.29, 0.38, 11.12
49.271704, 4.077864, 20.08, -1.18, -0.55, 9.94
49.271790, 4.078105, 20.31, -0.81, -0.08, 11.20
49.271790, 4.078105, 20.31, -1.37, -0.89, 10.26
49.271880, 4.078350, 19.64, -1.63, -1.14, 8.51
49.271880, 4.078350, 19.64, -1.38, 0.10, 10.04
49.271965, 4.078579, 19.00, -1.41, 0.52, 10.69
49.271965, 4.078579, 19.00, -2.12, -0.83, 7.95
49.272050, 4.078804, 18.71, -2.31, -0.50, 9.54
49.272050, 4.078804, 18.71, -1.24, 0.12, 11.19
49.272132, 4.079024, 18.48, -1.30, 0.64, 9.31
49.272216, 4.079241, 18.35, -2.11, -0.98, 10.39
49.272216, 4.079241, 18.35, -1.98, -0.46, 8.86
49.272300, 4.079452, 18.03, -1.32, 0.53, 9.97
49.272300, 4.079452, 18.03, -2.26, -0.16, 10.29
49.272379, 4.079664, 17.87, -1.36, -0.29, 9.45
49.272379, 4.079664, 17.87, -1.79, -0.06, 10.15
49.272461, 4.079878, 17.93, -1.72, 0.26, 9.10
49.272461, 4.079878, 17.93, -2.92, 0.27, 10.48
49.272542, 4.080091, 18.00, -2.34, -0.49, 5.82
49.272542, 4.080091, 18.00, -1.76, 0.61, 9.22
49.272621, 4.080308, 18.25, -1.70, -0.95, 10.55
49.272621, 4.080308, 18.25, -1.96, -0.68, 10.93
49.272700, 4.080528, 18.35, -2.04, -0.36, 8.17
49.272700, 4.080528, 18.35, -2.41, 0.41, 9.72
49.272785, 4.080748, 18.54, -1.97, 0.02, 11.04
49.272785, 4.080748, 18.54, -2.40, -0.28, 8.42
49.272870, 4.080969, 18.77, -1.85, 0.79, 10.04
49.272870, 4.080969, 18.77, -1.76, -0.45, 7.68
49.272956, 4.081190, 18.88, -2.30, -0.11, 9.93
49.272956, 4.081190, 18.88, -2.73, -0.42, 8.72
49.273049, 4.081412, 18.85, -2.80, -0.69, 10.03
49.273049, 4.081412, 18.85, -1.65, -0.13, 8.19
49.273135, 4.081634, 18.90, -2.31, -0.38, 9.06
49.273135, 4.081634, 18.90, -1.62, -0.92, 9.68
49.273219, 4.081861, 18.90, -1.92, -0.87, 11.13
49.273219, 4.081861, 18.90, -1.00, -0.42, 9.56
49.273303, 4.082083, 18.15, -1.24, -0.31, 9.62
49.273303, 4.082083, 18.15, -1.17, -0.23, 9.78
49.273386, 4.082296, 17.41, -1.52, -0.24, 10.43
49.273386, 4.082296, 17.41, -1.22, -0.17, 9.16
49.273460, 4.082499, 16.67, -2.62, 0.05, 9.09
49.273460, 4.082499, 16.67, -1.34, -0.30, 10.63
49.273530, 4.082696, 16.34, -1.52, -0.30, 9.55
49.273530, 4.082696, 16.34, -1.39, -0.22, 9.06
49.273598, 4.082892, 15.74, -1.68, -0.97, 9.82
49.273598, 4.082892, 15.74, -0.82, -0.45, 8.60
49.273666, 4.083070, 14.85, -0.65, -0.17, 9.76
49.273666, 4.083070, 14.85, -0.10, -0.83, 11.63
49.273730, 4.083242, 14.00, -0.28, -0.59, 10.67
49.273730, 4.083242, 14.00, -1.77, 0.07, 9.89
49.273796, 4.083399, 12.20, -0.70, -0.32, 9.30
49.273796, 4.083399, 12.20, -1.49, -0.72, 10.73
49.273844, 4.083533, 11.29, -1.96, -0.69, 10.32
49.273892, 4.083657, 10.74, -0.69, -0.75, 9.25
49.273892, 4.083657, 10.74, -1.65, 0.11, 9.86
49.273945, 4.083771, 9.81, -0.83, -0.40, 10.17
49.273945, 4.083771, 9.81, -1.08, -0.48, 9.30
49.273993, 4.083876, 8.79, 0.45, -0.72, 9.69
49.273993, 4.083876, 8.79, -1.19, 0.14, 9.57
49.274034, 4.083965, 7.12, -1.35, 0.25, 10.42
49.274034, 4.083965, 7.12, -1.65, -0.28, 8.72
49.274066, 4.084038, 6.35, -1.44, 0.09, 11.58
49.274066, 4.084038, 6.35, -1.42, 0.54, 10.18
49.274090, 4.084113, 5.65, -1.58, 0.21, 9.52
49.274090, 4.084113, 5.65, -1.47, 2.21, 8.99
49.274114, 4.084182, 5.28, -1.40, 2.60, 8.33
49.274114, 4.084182, 5.28, -0.91, 2.83, 8.26
49.274130, 4.084256, 5.87, -3.08, 1.85, 9.86
49.274130, 4.084256, 5.87, -2.93, -0.02, 9.74
49.274130, 4.084350, 7.06, -1.85, -1.47, 8.61
49.274130, 4.084350, 7.06, -2.16, -0.99, 9.70
49.274122, 4.084454, 7.16, -2.83, -2.09, 10.12
49.274122, 4.084454, 7.16, -2.72, -1.87, 9.95
49.274128, 4.084553, 7.67, -1.87, -1.24, 9.50
49.274128, 4.084553, 7.67, -2.97, -1.77, 10.42
49.274154, 4.084649, 7.45, -3.27, -2.49, 10.15
49.274154, 4.084649, 7.45, -3.37, -3.12, 9.22
49.274197, 4.084735, 8.04, -2.42, -1.48, 9.13
49.274197, 4.084735, 8.04, -3.14, -1.23, 8.98
49.274262, 4.084796, 8.50, -2.94, 0.58, 10.29
49.274262, 4.084796, 8.50, -1.96, 1.11, 10.20
49.274339, 4.084840, 8.75, -0.71, 3.06, 8.55
49.274339, 4.084840, 8.75, -1.74, 4.04, 10.38
49.274411, 4.084893, 9.05, -2.41, 2.75, 8.33
49.274411, 4.084893, 9.05, -2.77, 2.00, 9.83
49.274467, 4.084989, 9.78, -1.65, 0.75, 9.50
49.274467, 4.084989, 9.78, -1.14, 1.12, 9.25
49.274510, 4.085111, 10.10, -3.36, 1.06, 8.61
49.274510, 4.085111, 10.10, -2.71, 0.54, 10.21
49.274545, 4.085248, 10.69, -3.40, 0.10, 9.77
49.274545, 4.085248, 10.69, -2.66, -0.20, 8.69
49.274580, 4.085392, 11.68, -3.37, -0.50, 10.45
49.274620, 4.085546, 12.74, -2.53, -0.05, 8.68
49.274620, 4.085546, 12.74, -3.58, 0.24, 11.42
49.274670, 4.085709, 13.61, -2.56, 0.16, 8.63
49.274670, 4.085709, 13.61, -2.91, -0.43, 8.26
49.274732, 4.085886, 14.61, -3.03, -0.03, 9.70
49.274732, 4.085886, 14.61, -1.43, -0.21, 12.19
49.274795, 4.086064, 14.56, -3.20, -0.59, 9.44
49.274795, 4.086064, 14.56, -1.83, -0.12, 8.15
49.274858, 4.086242, 15.06, -2.57, -0.03, 10.22
49.274858, 4.086242, 15.06, -3.34, -0.23, 8.16
49.274925, 4.086424, 15.59, -2.28, -0.24, 8.97
49.274925, 4.086424, 15.59, -3.16, -0.46, 9.12
49.274996, 4.086607, 16.18, -2.83, 0.76, 10.24
49.274996, 4.086607, 16.18, -2.36, 0.82, 9.35
49.275076, 4.086795, 16.58, -2.80, 0.44, 9.39
49.275076, 4.086795, 16.58, -2.67, 0.44, 8.21
49.275155, 4.086989, 17.13, -3.46, 1.09, 9.76
49.275155, 4.086989, 17.13, -2.65, 0.46, 10.13
49.275232, 4.087200, 17.70, -3.01, -0.50, 9.70
49.275232, 4.087200, 17.70, -1.84, -0.09, 10.62
49.275307, 4.087423, 18.26, -3.50, -0.70, 9.36
49.275307, 4.087423, 18.26, -2.40, -0.05, 10.28
49.275387, 4.087648, 18.86, -3.25, 0.11, 9.84
49.275387, 4.087648, 18.86, -2.89, -0.01, 10.62
49.275475, 4.087874, 19.30, -2.37, 0.23, 7.67
49.275475, 4.087874, 19.30, -2.04, 0.20, 8.89
49.275565, 4.088109, 19.86, -1.96, -0.49, 10.85
49.275565, 4.088109, 19.86, -2.39, -0.07, 10.18
49.275657, 4.088348, 20.42, -2.71, 0.05, 10.17
49.275657, 4.088348, 20.42, -2.86, -1.00, 9.98
49.275751, 4.088592, 20.90, -1.89, 0.47, 9.28
49.275751, 4.088592, 20.90, -1.98, 1.11, 8.88
49.275850, 4.088847, 21.43, -1.75, 0.93, 8.35
49.275850, 4.088847, 21.43, -2.53, 0.67, 9.86
49.275950, 4.089101, 21.90, -2.01, 0.62, 9.19
49.275950, 4.089101, 21.90, -0.74, -0.79, 9.63
49.276058, 4.089365, 22.48, -1.02, -0.82, 8.78
49.276058, 4.089365, 22.48, -0.30, -0.12, 8.02
49.276156, 4.089621, 21.94, -2.67, 0.39, 9.53
49.276156, 4.089621, 21.94, -1.24, 0.20, 10.75
49.276265, 4.089883, 21.69, -2.20, 0.78, 9.44
49.276265, 4.089883, 21.69, -1.88, 1.34, 5.95
49.276365, 4.090143, 21.89, -1.94, 0.15, 8.93
49.276464, 4.090408, 22.27, -2.77, 0.01, 10.41
49.276464, 4.090408, 22.27, -2.57, 0.91, 9.64
49.276565, 4.090679, 22.53, -2.25, -0.10, 9.96
49.276565, 4.090679, 22.53, -2.55, -0.37, 9.53
49.276663, 4.090951, 22.85, -1.47, 0.25, 11.03
49.276663, 4.090951, 22.85, -1.36, 0.46, 9.61
49.276765, 4.091230, 23.08, -2.61, 0.42, 8.94
49.276765, 4.091230, 23.08, -1.80, -0.24, 9.98
49.276871, 4.091508, 23.10, -1.27, -0.02, 9.90
49.276871, 4.091508, 23.10, -2.23, 0.22, 11.05
49.276971, 4.091778, 22.69, -1.28, -0.01, 9.32
49.276971, 4.091778, 22.69, -1.81, 0.65, 9.10
49.277078, 4.092053, 22.81, -2.20, -0.57, 10.02
49.277078, 4.092053, 22.81, -2.67, -0.98, 10.87
49.277185, 4.092321, 23.08, -2.00, -0.40, 8.86
49.277185, 4.092321, 23.08, -1.94, -0.42, 10.23
49.277289, 4.092597, 23.12, -2.35, 0.43, 8.92
49.277289, 4.092597, 23.12, -1.62, 0.71, 9.89
49.277389, 4.092874, 23.44, -2.45, 0.25, 9.31
49.277389, 4.092874, 23.44, -1.27, 0.90, 8.58
49.277494, 4.093154, 23.64, -1.88, 0.52, 9.56
49.277494, 4.093154, 23.64, -2.60, 0.06, 10.01
49.277600, 4.093433, 23.82, -2.49, 0.19, 9.52
49.277600, 4.093433, 23.82, -2.20, 0.08, 10.41
49.277704, 4.093717, 24.06, -1.88, 0.41, 9.66
49.277704, 4.093717, 24.06, -2.29, -0.42, 9.91
49.277811, 4.094005, 24.22, -2.05, 0.38, 10.18
49.277811, 4.094005, 24.22, -1.48, 1.24, 9.32
49.277926, 4.094293, 24.46, -1.95, -0.43, 10.82
49.277926, 4.094293, 24.46, -1.90, -0.51, 9.16
49.278037, 4.094581, 24.60, -0.34, 0.22, 9.77
49.278037, 4.094581, 24.60, -1.00, -0.79, 10.18
49.278140, 4.094871, 24.17, -1.51, -0.60, 9.29
49.278140, 4.094871, 24.17, -2.39, 0.18, 9.83
49.278250, 4.095157, 23.89, -2.02, 0.77, 10.28
49.278250, 4.095157, 23.89, -2.29, 0.03, 9.25
49.278356, 4.095442, 23.93, -2.35, 0.68, 9.05
49.278356, 4.095442, 23.93, -1.36, 0.82, 9.03
49.278461, 4.095732, 24.15, -1.95, 0.48, 10.82
49.278567, 4.096018, 24.35, -2.24, -0.43, 9.71
49.278567, 4.096018, 24.35, -1.43, 0.62, 10.03
49.278567, 4.096018, 24.35, -1.67, -0.15, 8.56
49.278677, 4.096309, 24.49, -1.94, 0.25, 9.30
49.278785, 4.096604, 24.57, -1.90, 0.76, 9.43
49.278785, 4.096604, 24.57, -1.96, -0.68, 10.66
49.278891, 4.096902, 24.53, -1.06, -1.03, 11.55
49.278891, 4.096902, 24.53, -0.77, 0.04, 10.44
49.278998, 4.097192, 24.04, -2.55, -0.43, 10.31
49.278998, 4.097192, 24.04, -1.50, 0.48, 9.75
49.279110, 4.097481, 23.93, -1.90, 0.73, 10.37
49.279110, 4.097481, 23.93, -1.38, -1.13, 10.13
49.279222, 4.097766, 23.94, -2.02, -0.61, 8.99
49.279222, 4.097766, 23.94, -2.63, 0.46, 10.13
49.279331, 4.098056, 24.02, -1.99, 0.77, 9.00
49.279331, 4.098056, 24.02, -1.44, -0.19, 8.18
49.279440, 4.098345, 24.08, -1.92, -1.13, 10.31
49.279440, 4.098345, 24.08, -1.47, -0.85, 8.92
49.279547, 4.098633, 24.04, -1.29, 0.65, 8.73
49.279547, 4.098633, 24.04, -2.33, 0.20, 9.73
49.279653, 4.098920, 23.96, -1.52, -0.69, 9.29
49.279653, 4.098920, 23.96, -1.86, 0.08, 11.01
49.279760, 4.099204, 23.88, -1.83, 1.07, 9.32
49.279760, 4.099204, 23.88, -2.33, 0.60, 10.24
49.279867, 4.099489, 23.79, -1.87, 0.23, 10.86
49.279867, 4.099489, 23.79, -1.65, -0.13, 8.73
49.279970, 4.099774, 23.74, -1.02, -1.20, 11.20
49.279970, 4.099774, 23.74, -1.53, -0.69, 8.22
49.280075, 4.100058, 23.68, -2.63, 0.49, 10.19
49.280075, 4.100058, 23.68, -1.62, 0.66, 9.24
49.280183, 4.100341, 23.73, -1.47, 0.80, 9.48
49.280183, 4.100341, 23.73, -1.21, 0.36, 8.75
49.280281, 4.100625, 23.77, -1.98, -0.22, 10.19
49.280281, 4.100625, 23.77, -1.90, 0.13, 10.40
49.280383, 4.100907, 23.85, -1.94, -0.75, 10.69
49.280383, 4.100907, 23.85, -1.46, -0.20, 9.83
49.280483, 4.101195, 23.91, -1.05, -0.37, 10.52
49.280483, 4.101195, 23.91, -1.57, -0.02, 11.09
49.280586, 4.101480, 23.18, -1.38, 0.26, 10.20
49.280586, 4.101480, 23.18, -0.74, -0.16, 9.13
49.280684, 4.101756, 22.62, -0.41, -0.53, 8.78
49.280684, 4.101756, 22.62, 0.16, -0.92, 9.10
49.280783, 4.102022, 21.88, 0.42, 0.21, 10.20
49.280877, 4.102274, 20.26, 0.02, -1.15, 9.32
49.280877, 4.102274, 20.26, 1.30, -0.14, 8.78
49.280964, 4.102505, 18.22, 1.35, -0.69, 9.53
49.280964, 4.102505, 18.22, 1.26, 0.23, 10.18
49.281042, 4.102702, 15.16, 0.65, -0.24, 10.39
49.281042, 4.102702, 15.16, 1.53, -0.28, 10.35
49.281108, 4.102862, 12.40, 1.80, -1.67, 9.58
49.281108, 4.102862, 12.40, -0.62, -0.19, 10.28
49.281159, 4.102991, 10.01, -0.40, -0.19, 10.71
49.281159, 4.102991, 10.01, 1.02, -0.76, 10.35
49.281194, 4.103099, 8.07, 0.13, -0.91, 9.36
49.281194, 4.103099, 8.07, 0.11, -0.34, 9.73
49.281223, 4.103181, 6.07, -1.53, -0.19, 9.14
49.281223, 4.103181, 6.07, -0.99, 0.43, 9.83
49.281249, 4.103248, 5.91, -1.13, 0.11, 10.96
49.281249, 4.103248, 5.91, -1.18, 0.20, 10.67
49.281274, 4.103314, 5.82, -1.27, 0.19, 9.95
49.281274, 4.103314, 5.82, -0.82, 0.63, 9.80
49.281298, 4.103379, 5.60, -1.77, -0.12, 9.94
49.281298, 4.103379, 5.60, -1.32, 0.11, 11.41
49.281323, 4.103445, 5.54, -1.26, -0.09, 10.11
49.281323, 4.103445, 5.54, -2.21, -0.30, 9.62
49.281346, 4.103515, 5.32, -2.52, 0.14, 9.49
49.281346, 4.103515, 5.32, -2.42, 0.41, 9.82
49.281372, 4.103584, 5.76, -2.96, 0.69, 9.51
49.281372, 4.103584, 5.76, -1.25, 0.40, 9.29
49.281402, 4.103657, 6.44, -1.58, 1.05, 10.96
49.281402, 4.103657, 6.44, -2.34, 0.61, 9.45
49.281431, 4.103735, 6.19, -1.07, -1.18, 9.86
49.281431, 4.103735, 6.19, -1.67, 0.06, 9.47
49.281459, 4.103809, 5.98, -1.73, 0.05, 10.11
49.281459, 4.103809, 5.98, -1.09, -0.34, 8.79
49.281484, 4.103882, 5.85, -1.07, 0.33, 10.03
49.281484, 4.103882, 5.85, -0.99, -1.02, 10.62
49.281509, 4.103951, 5.58, -0.98, -0.80, 9.60
49.281509, 4.103951, 5.58, -1.08, 0.37, 9.03
49.281531, 4.104020, 5.24, -0.72, -0.24, 10.13
49.281531, 4.104020, 5.24, -2.04, 0.20, 9.89
49.281552, 4.104076, 4.89, -1.09, 0.12, 10.30
49.281552, 4.104076, 4.89, -1.34, -0.13, 9.76
49.281571, 4.104130, 4.62, -1.41, -0.24, 9.79
49.281571, 4.104130, 4.62, -1.17, 0.18, 10.42
49.281591, 4.104183, 4.34, -1.20, 0.09, 8.99
49.281608, 4.104230, 4.12, -1.28, 0.15, 9.93
49.281608, 4.104230, 4.12, -1.71, -0.16, 9.40
49.281620, 4.104283, 4.09, -1.25, 0.34, 9.05
49.281620, 4.104283, 4.09, -1.12, -0.92, 10.20
49.281639, 4.104329, 3.75, -0.63, -0.50, 9.30
49.281639, 4.104329, 3.75, -0.40, -0.48, 8.97
49.281651, 4.104366, 2.60, 0.29, -0.04, 9.75
49.281651, 4.104366, 2.60, -0.43, -0.32, 8.66
49.281651, 4.104366, 0.00, -0.86, 0.06, 10.82
49.281651, 4.104366, 0.00, -0.88, -0.23, 10.00
49.281651, 4.104366, 0.00, -0.79, -0.29, 10.61
49.281651, 4.104366, 0.00, -1.68, -0.02, 10.75
49.281651, 4.104366, 0.00, -1.47, 0.06, 8.86
49.281651, 4.104366, 0.00, -1.47, -0.05, 10.61
49.281651, 4.104366, 0.00, -1.66, 0.26, 8.56
49.281651, 4.104366, 0.00, -1.14, -0.11, 8.89
49.281651, 4.104366, 0.00, -1.93, 0.42, 9.40
49.281651, 4.104366, 0.00, -1.92, 0.24, 10.59
49.281651, 4.104366, 0.00, -1.52, -0.10, 9.45
49.281651, 4.104366, 0.00, -1.22, -0.19, 10.10
49.281651, 4.104366, 0.00, -2.27, -0.03, 9.76
49.281651, 4.104366, 0.00, -2.60, 0.09, 9.81
49.281651, 4.104366, 0.00, -2.54, 0.95, 9.60
49.281651, 4.104366, 0.00, -3.31, -0.30, 9.86
49.281651, 4.104366, 0.00, -2.61, 0.05, 9.06
49.281651, 4.104366, 0.00, -1.32, 0.04, 9.11
49.281680, 4.104443, 3.00, -2.81, 0.35, 9.46
49.281680, 4.104443, 3.00, -2.32, 0.05, 9.56
49.281696, 4.104487, 4.16, -1.90, 0.45, 10.50
49.281696, 4.104487, 4.16, -1.60, 0.01, 9.26
49.281718, 4.104544, 4.61, -1.62, 0.02, 10.35
49.281718, 4.104544, 4.61, -1.52, 0.20, 9.47
49.281740, 4.104602, 4.55, -1.93, 0.15, 9.67
49.281740, 4.104602, 4.55, -2.03, 0.40, 10.02
49.281761, 4.104668, 5.09, -3.27, 1.21, 9.98
49.281761, 4.104668, 5.09, -2.63, 0.57, 9.50
49.281785, 4.104732, 5.76, -2.73, 0.55, 10.58
49.281812, 4.104806, 6.53, -2.34, -0.22, 9.27
49.281812, 4.104806, 6.53, -1.85, 0.03, 8.91
49.281842, 4.104889, 7.23, -2.08, 0.74, 10.20
49.281842, 4.104889, 7.23, -2.12, 0.31, 10.12
49.281876, 4.104977, 7.81, -2.17, 0.15, 8.94
49.281876, 4.104977, 7.81, -1.85, 0.97, 8.86
49.281910, 4.105071, 8.06, -1.53, 0.22, 8.88
49.281910, 4.105071, 8.06, -1.94, -0.09, 9.19
49.281943, 4.105172, 8.40, -1.95, 0.32, 10.25
49.281943, 4.105172, 8.40, -1.91, 0.89, 9.59
49.281979, 4.105275, 8.16, -1.49, -0.50, 10.83
49.281979, 4.105275, 8.16, -0.95, 0.62, 9.34
49.282012, 4.105369, 8.03, -1.03, -0.00, 9.19
49.282012, 4.105369, 8.03, -1.41, -0.66, 10.35
49.282048, 4.105465, 7.74, -0.49, -0.81, 10.58
49.282048, 4.105465, 7.74, -1.72, -0.52, 10.63
49.282081, 4.105552, 6.98, -1.03, -0.51, 10.25
49.282081, 4.105552, 6.98, -0.99, -0.25, 9.41
49.282111, 4.105634, 6.43, -0.94, -0.52, 10.52
49.282111, 4.105634, 6.43, -1.48, -0.57, 11.03
49.282139, 4.105709, 6.19, -1.25, -0.38, 10.39
49.282139, 4.105709, 6.19, -0.99, -0.23, 10.59
49.282166, 4.105777, 6.03, -1.92, 0.71, 9.61
49.282166, 4.105777, 6.03, -2.23, 0.35, 9.68
49.282190, 4.105853, 5.98, -2.26, -0.05, 9.67
49.282190, 4.105853, 5.98, -2.84, -0.19, 11.33
49.282216, 4.105929, 6.43, -2.26, -0.18, 10.17
49.282216, 4.105929, 6.43, -2.32, 0.01, 10.32
49.282243, 4.106012, 6.83, -2.72, 0.17, 10.79
49.282243, 4.106012, 6.83, -2.02, 0.02, 9.40
49.282270, 4.106093, 6.82, -1.32, 0.54, 10.11
49.282270, 4.106093, 6.82, -2.18, 0.63, 9.45
49.282299, 4.106178, 6.77, -2.81, 0.91, 9.90
49.282299, 4.106178, 6.77, -3.15, 0.85, 10.03
49.282327, 4.106270, 7.37, -3.16, 0.16, 9.83
49.282327, 4.106270, 7.37, -2.45, 0.21, 9.23
49.282356, 4.106373, 8.46, -1.85, -0.00, 10.95
49.282356, 4.106373, 8.46, -1.72, 2.42, 9.46
49.282383, 4.106491, 8.75, -1.74, 2.65, 10.88
49.282383, 4.106491, 8.75, -1.70, 2.39, 10.94
49.282405, 4.106611, 9.09, -2.21, 1.87, 10.21
49.282405, 4.106611, 9.09, -0.65, 2.12, 9.96
49.282407, 4.106749, 10.01, -0.35, 2.53, 10.77
49.282383, 4.106886, 9.85, -0.19, 3.36, 7.97
49.282383, 4.106886, 9.85, -1.86, 3.88, 10.34
49.282332, 4.106999, 10.29, -2.08, 3.37, 8.33
49.282332, 4.106999, 10.29, -1.71, 2.28, 8.67
49.282253, 4.107095, 11.48, -2.13, 1.72, 9.65
49.282253, 4.107095, 11.48, -2.78, 0.16, 8.58
49.282151, 4.107172, 12.53, -2.73, 0.87, 9.12
49.282151, 4.107172, 12.53, -2.50, 1.30, 10.35
49.282041, 4.107257, 13.29, -2.46, 1.66, 10.44
49.282041, 4.107257, 13.29, -2.43, 1.55, 10.45
49.281924, 4.107334, 13.71, -2.48, 2.09, 10.04
49.281924, 4.107334, 13.71, -2.01, 2.58, 9.28
49.281797, 4.107397, 14.41, -3.77, 0.93, 11.04
49.281797, 4.107397, 14.41, -1.87, 0.84, 9.50
49.281664, 4.107434, 14.87, -2.77, 0.61, 10.25
49.281664, 4.107434, 14.87, -1.61, -0.42, 9.90
49.281527, 4.107464, 14.94, -1.39, -0.57, 9.86
49.281527, 4.107464, 14.94, -2.73, 0.29, 8.57
49.281393, 4.107495, 14.58, -2.44, 0.62, 8.66
49.281393, 4.107495, 14.58, -2.48, 0.11, 9.63
49.281263, 4.107527, 14.57, -3.15, 0.21, 9.00
49.281263, 4.107527, 14.57, -2.21, -0.31, 8.50
49.281132, 4.107559, 14.61, -2.51, -0.78, 9.27
49.281132, 4.107559, 14.61, -2.75, -0.49, 9.55
49.281004, 4.107596, 14.72, -2.56, -0.34, 8.90
49.281004, 4.107596, 14.72, -2.36, -0.18, 9.33
49.280875, 4.107637, 15.04, -2.21, 2.45, 8.00
49.280875, 4.107637, 15.04, -0.70, -0.00, 7.43
49.280742, 4.107685, 15.21, -2.14, 0.18, 8.94
49.280742, 4.107685, 15.21, -2.53, -0.08, 8.78
49.280606, 4.107729, 15.40, -2.26, 0.56, 11.52
49.280606, 4.107729, 15.40, -2.39, 0.43, 10.88
49.280467, 4.107767, 15.60, -2.46, 1.47, 12.08
49.280467, 4.107767, 15.60, -3.16, 0.32, 7.55
49.280327, 4.107805, 15.77, -2.48, 0.62, 12.88
49.280327, 4.107805, 15.77, -2.57, 0.43, 10.41
49.280185, 4.107843, 16.04, -1.80, -0.25, 9.69
49.280185, 4.107843, 16.04, -1.90, -0.37, 10.10
49.280043, 4.107881, 15.83, -2.62, 0.23, 10.82
49.280043, 4.107881, 15.83, -1.94, 0.55, 8.33
49.279903, 4.107911, 15.88, -2.70, -0.54, 9.24
49.279903, 4.107911, 15.88, -2.34, 0.25, 9.97
49.279761, 4.107943, 16.19, -2.45, 0.24, 10.04
49.279614, 4.107973, 16.55, -2.60, -0.70, 10.86
49.279614, 4.107973, 16.55, -2.49, 0.34, 9.36
49.279462, 4.107996, 16.95, -2.52, 0.15, 10.94
49.279462, 4.107996, 16.95, -0.89, 0.16, 9.01
49.279308, 4.108015, 16.73, -1.90, -0.14, 11.50
49.279308, 4.108015, 16.73, -1.91, 0.23, 10.12
49.279155, 4.108027, 16.54, -1.72, -0.03, 10.11
49.279155, 4.108027, 16.54, -1.15, 0.94, 10.29
49.279004, 4.108031, 15.86, -1.30, 0.55, 10.01
49.279004, 4.108031, 15.86, -1.15, -0.05, 9.94
49.278862, 4.108026, 15.15, -0.33, -0.80, 10.40
49.278862, 4.108026, 15.15, 0.11, -0.48, 9.99
49.278734, 4.108013, 13.71, -0.35, 0.12, 9.37
49.278734, 4.108013, 13.71, -0.77, 1.16, 10.48
49.278621, 4.107998, 12.47, -0.29, 1.37, 9.42
49.278621, 4.107998, 12.47, -0.67, 1.77, 11.07
49.278521, 4.107976, 11.26, 0.32, 2.10, 9.72
49.278521, 4.107976, 11.26, -0.61, 2.33, 10.75
49.278432, 4.107922, 9.97, -0.52, 2.36, 10.73
49.278432, 4.107922, 9.97, -0.58, 2.64, 9.80
49.278363, 4.107838, 9.85, 0.40, 1.51, 10.14
49.278363, 4.107838, 9.85, -1.20, 2.28, 8.32
49.278311, 4.107717, 9.90, -1.42, 2.74, 10.69
49.278311, 4.107717, 9.90, -1.63, 3.44, 10.23
49.278282, 4.107581, 10.66, -1.19, 2.72, 9.26
49.278282, 4.107581, 10.66, -1.03, 2.38, 10.39
49.278271, 4.107422, 11.36, -1.64, 1.99, 9.96
49.278271, 4.107422, 11.36, -1.42, 1.79, 10.00
49.278283, 4.107253, 12.36, -1.73, 2.49, 11.55
49.278283, 4.107253, 12.36, -1.65, 2.64, 9.96
49.278319, 4.107083, 13.05, -1.59, 1.94, 10.76
49.278319, 4.107083, 13.05, -1.06, 1.25, 9.72
49.278373, 4.106914, 13.76, -0.53, 1.24, 9.80
49.278373, 4.106914, 13.76, -0.51, 1.69, 10.40
49.278447, 4.106757, 13.84, -1.59, 2.13, 10.05
49.278447, 4.106757, 13.84, -0.73, 1.55, 9.90
49.278530, 4.106609, 13.83, -0.52, 1.26, 9.50
49.278530, 4.106609, 13.83, -0.95, 1.23, 8.81
49.278629, 4.106483, 13.72, -0.94, 1.13, 7.35
49.278629, 4.106483, 13.72, -0.45, 0.97, 10.63
49.278736, 4.106381, 13.73, -1.01, 0.73, 11.25
49.278850, 4.106286, 13.69, -0.99, 0.92, 10.54
49.278850, 4.106286, 13.69, -1.69, 0.28, 9.30
49.278961, 4.106201, 13.54, -1.23, 0.19, 11.34
49.278961, 4.106201, 13.54, -1.09, 0.59, 9.90
49.279069, 4.106122, 13.62, -1.02, 0.29, 8.96
49.279069, 4.106122, 13.62, -1.42, 0.39, 10.53
49.279183, 4.106049, 13.56, -1.04, 0.20, 12.00
49.279183, 4.106049, 13.56, -1.27, 0.25, 8.48
49.279298, 4.105982, 13.62, -0.40, 1.20, 10.82
49.279298, 4.105982, 13.62, -0.70, 1.84, 10.77
49.279420, 4.105928, 13.34, -0.58, 2.09, 10.39
49.279420, 4.105928, 13.34, -0.73, 3.87, 9.97
49.279546, 4.105897, 13.41, -0.35, 3.17, 9.21
49.279546, 4.105897, 13.41, -1.00, 3.29, 10.66
49.279681, 4.105912, 13.96, -0.59, 4.14, 9.83
49.279681, 4.105912, 13.96, -2.03, 3.90, 9.54
49.279814, 4.105972, 14.50, -1.75, 4.26, 9.54
49.279814, 4.105972, 14.50, -0.99, 4.11, 10.98
49.279934, 4.106085, 15.28, -2.08, 3.91, 10.29
49.279934, 4.106085, 15.28, -2.54, 2.59, 10.71
49.280032, 4.106261, 16.42, -2.81, 2.09, 10.00
49.280032, 4.106261, 16.42, -2.29, 1.46, 9.14
49.280124, 4.106477, 17.31, -2.32, 0.97, 9.35
49.280124, 4.106477, 17.31, -1.12, 0.26, 10.35
49.280202, 4.106704, 18.58, -1.41, -0.79, 10.65
49.280202, 4.106704, 18.58, -2.33, 0.64, 8.98
49.280280, 4.106932, 18.46, -2.55, 0.96, 9.61
49.280280, 4.106932, 18.46, -2.30, 0.96, 8.66
49.280357, 4.107166, 19.34, -2.48, -0.52, 9.51
49.280357, 4.107166, 19.34, -3.05, -0.70, 9.82
49.280434, 4.107410, 20.30, -2.46, 0.41, 9.76
49.280434, 4.107410, 20.30, -1.88, 0.69, 9.12
49.280519, 4.107661, 21.15, -2.16, -0.68, 10.59
49.280519, 4.107661, 21.15, -1.27, 0.74, 9.32
49.280609, 4.107920, 21.31, -1.04, -1.92, 10.27
49.280609, 4.107920, 21.31, 0.32, -1.02, 8.57
49.280697, 4.108177, 20.27, -0.19, -0.36, 10.32
49.280697, 4.108177, 20.27, -0.02, -0.54, 9.82
49.280775, 4.108416, 18.47, 0.16, -1.03, 10.32
49.280775, 4.108416, 18.47, -1.64, 0.17, 10.45
49.280847, 4.108636, 17.45, -1.40, -1.12, 8.42
49.280915, 4.108842, 17.05, -0.80, -0.42, 9.42
49.280915, 4.108842, 17.05, -2.54, 0.74, 8.68
49.280981, 4.109049, 17.41, -2.79, -0.90, 8.82
49.280981, 4.109049, 17.41, -3.20, -0.80, 10.49
49.281052, 4.109265, 18.39, -3.06, -2.15, 8.70
49.281052, 4.109265, 18.39, -2.36, -0.77, 8.86
49.281131, 4.109494, 19.43, -2.71, 0.67, 9.24
49.281131, 4.109494, 19.43, -2.34, -0.01, 11.17
49.281222, 4.109733, 20.40, -3.06, 0.45, 10.90
49.281222, 4.109733, 20.40, -2.31, 0.35, 8.64
49.281321, 4.109982, 21.32, -1.92, 0.56, 9.43
49.281321, 4.109982, 21.32, -1.92, 0.67, 10.59
49.281420, 4.110244, 22.34, -2.06, 1.08, 10.36
49.281420, 4.110244, 22.34, -2.87, -0.35, 10.07
49.281518, 4.110525, 23.29, -2.14, 0.43, 10.02
49.281518, 4.110525, 23.29, -2.35, 0.03, 10.61
49.281616, 4.110819, 24.15, -1.79, 0.58, 9.38
49.281616, 4.110819, 24.15, -2.74, -0.57, 10.51
49.281716, 4.111119, 25.12, -2.80, -0.12, 9.68
49.281716, 4.111119, 25.12, -2.97, 0.05, 10.61
49.281816, 4.111430, 25.98, -3.02, -0.31, 10.40
49.281816, 4.111430, 25.98, -1.67, -0.41, 9.81
49.281927, 4.111754, 27.01, -2.12, -1.42, 9.84
49.281927, 4.111754, 27.01, -2.40, -0.31, 11.33
49.282045, 4.112084, 27.19, -0.11, -0.15, 10.73
49.282045, 4.112084, 27.19, -1.80, -0.67, 8.33
49.282166, 4.112407, 26.92, -1.32, 1.48, 9.70
49.282166, 4.112407, 26.92, -2.65, -0.39, 8.73
49.282279, 4.112740, 27.43, -2.15, -1.06, 10.58
49.282279, 4.112740, 27.43, -1.05, 1.27, 9.04
49.282397, 4.113075, 27.90, -2.23, 0.17, 9.12
49.282397, 4.113075, 27.90, -1.26, 0.11, 12.19
49.282516, 4.113417, 28.51, -0.94, 0.65, 9.60
49.282516, 4.113417, 28.51, -0.51, 0.54, 11.20
49.282635, 4.113767, 28.92, -0.61, -1.14, 10.07
49.282635, 4.113767, 28.92, -1.21, -1.44, 11.95
49.282755, 4.114117, 28.54, -1.02, -1.53, 9.32
49.282755, 4.114117, 28.54, -0.87, -0.57, 11.04
49.282877, 4.114460, 28.24, -1.06, -0.19, 9.37
49.282877, 4.114460, 28.24, -1.38, -0.99, 9.44
49.283000, 4.114797, 28.10, -2.08, -0.05, 8.88
49.283124, 4.115132, 28.31, -2.39, -0.25, 7.77
49.283124, 4.115132, 28.31, -1.98, -1.20, 8.93
49.283256, 4.115470, 28.76, -2.14, 0.60, 10.46
49.283256, 4.115470, 28.76, -2.52, 0.33, 8.58
49.283390, 4.115807, 29.18, -1.39, 0.19, 10.87
49.283390, 4.115807, 29.18, -2.35, -1.24, 11.30
49.283527, 4.116154, 29.65, -2.87, 0.14, 9.84
49.283527, 4.116154, 29.65, -1.24, -0.11, 10.02
49.283669, 4.116500, 30.02, -1.87, -0.08, 10.14
49.283669, 4.116500, 30.02, -1.58, 0.12, 10.89
49.283822, 4.116849, 30.45, -1.74, -0.11, 10.84
49.283822, 4.116849, 30.45, -0.54, -1.40, 10.97
49.283974, 4.117200, 30.30, -1.32, 0.36, 7.81
49.283974, 4.117200, 30.30, -0.32, -0.64, 10.40
49.284129, 4.117546, 29.85, -1.81, -0.14, 10.11
49.284129, 4.117546, 29.85, -1.46, -0.01, 10.76
49.284283, 4.117884, 29.78, -2.11, -1.45, 11.07
49.284283, 4.117884, 29.78, -1.35, -0.74, 8.13
49.284439, 4.118215, 29.90, -0.73, -0.31, 10.38
49.284439, 4.118215, 29.90, -1.66, -0.59, 11.13
49.284594, 4.118546, 29.55, -2.15, -0.30, 8.83
49.284594, 4.118546, 29.55, -1.59, -0.65, 9.81
49.284751, 4.118871, 29.49, -1.94, -1.06, 11.15
49.284751, 4.118871, 29.49, -1.41, -0.83, 7.08
49.284912, 4.119192, 29.42, -1.69, -0.01, 11.29
49.284912, 4.119192, 29.42, -2.30, -0.63, 10.80
49.285077, 4.119514, 29.70, -1.95, -1.13, 9.20
49.285077, 4.119514, 29.70, -1.25, -0.16, 10.86
49.285249, 4.119840, 30.00, -2.50, -0.52, 10.66
49.285249, 4.119840, 30.00, -1.53, 0.06, 8.77
49.285422, 4.120164, 30.31, -1.01, -0.68, 9.34
49.285422, 4.120164, 30.31, 0.34, 0.22, 11.58
49.285599, 4.120485, 29.95, -2.00, -0.47, 9.78
49.285599, 4.120485, 29.95, -2.08, -0.45, 9.89
49.285775, 4.120799, 29.57, -1.88, -0.45, 11.92
49.285775, 4.120799, 29.57, -1.60, -1.24, 8.84
49.285951, 4.121100, 29.84, -1.74, -0.37, 11.99
49.285951, 4.121100, 29.84, -1.93, -0.61, 10.48
49.286132, 4.121405, 29.95, -2.23, -0.16, 8.23
49.286132, 4.121405, 29.95, -2.40, -0.17, 11.54
49.286317, 4.121714, 29.99, -2.61, 0.00, 9.35
49.286317, 4.121714, 29.99, -1.84, -0.34, 10.25
49.286508, 4.122018, 30.20, -1.21, -0.15, 8.40
49.286508, 4.122018, 30.20, -1.21, -1.76, 10.44
49.286702, 4.122317, 30.07, -2.02, -0.95, 8.93
49.286896, 4.122612, 29.99, -1.64, -0.37, 11.30
49.286896, 4.122612, 29.99, -2.61, -0.17, 9.27
49.287090, 4.122883, 29.79, -0.90, 0.60, 8.47
49.287090, 4.122883, 29.79, -0.67, -1.59, 10.37
49.287283, 4.123160, 29.24, -2.26, 0.02, 9.64
49.287283, 4.123160, 29.24, -3.10, -0.17, 8.00
49.287475, 4.123429, 29.23, -1.45, -0.23, 10.60
49.287475, 4.123429, 29.23, -2.01, -1.38, 11.74
49.287670, 4.123702, 29.39, -2.18, -1.70, 11.29
49.287670, 4.123702, 29.39, -2.38, -0.91, 9.17
49.287871, 4.123970, 29.72, -1.40, -0.43, 10.17
49.287871, 4.123970, 29.72, -1.75, -0.90, 10.76
49.288072, 4.124241, 30.02, -1.30, -0.02, 9.98
49.288072, 4.124241, 30.02, -1.67, 0.08, 10.35
49.288282, 4.124503, 30.18, -1.58, -0.28, 9.49
49.288282, 4.124503, 30.18, -1.12, -0.98, 10.45
49.288492, 4.124764, 30.16, -1.90, -0.04, 8.83
49.288492, 4.124764, 30.16, -1.98, -0.99, 9.90
49.288706, 4.125015, 30.15, -1.27, -0.37, 9.39
49.288706, 4.125015, 30.15, -1.90, -0.57, 10.52
49.288922, 4.125267, 30.06, -1.20, -0.70, 9.40
49.288922, 4.125267, 30.06, -1.19, -1.29, 9.57
49.289134, 4.125521, 29.93, -1.72, -0.60, 6.11
49.289134, 4.125521, 29.93, -0.76, -0.21, 9.61
49.289341, 4.125754, 29.80, -2.16, 0.23, 7.92
49.289341, 4.125754, 29.80, -2.46, -0.72, 11.09
49.289558, 4.125986, 29.70, -1.30, -0.30, 10.57
49.289558, 4.125986, 29.70, -2.28, 0.19, 11.31
49.289777, 4.126218, 29.74, -1.68, -0.34, 9.01
49.289777, 4.126218, 29.74, -1.49, -0.87, 11.34
49.289990, 4.126450, 29.57, -1.46, -0.07, 8.41
49.289990, 4.126450, 29.57, -1.77, -1.00, 10.23
49.290204, 4.126680, 29.41, -1.20, -0.66, 9.92
49.290204, 4.126680, 29.41, -2.49, -0.33, 10.90
49.290430, 4.126905, 29.61, -2.39, 0.60, 10.52
49.290430, 4.126905, 29.61, -1.54, -0.21, 9.13
49.290658, 4.127129, 29.64, -2.12, -0.63, 9.38
49.290658, 4.127129, 29.64, -1.48, 0.33, 11.44
49.290887, 4.127345, 29.75, -1.77, -0.74, 9.73
49.290887, 4.127345, 29.75, -2.17, 0.28, 9.44
49.291116, 4.127568, 29.82, -1.89, -0.26, 8.41
49.291347, 4.127779, 29.94, -1.58, -0.46, 10.30
49.291347, 4.127779, 29.94, -1.92, -0.12, 12.33
49.291580, 4.127986, 30.03, -1.41, -1.22, 10.40
49.291580, 4.127986, 30.03, -1.78, 0.12, 7.35
49.291820, 4.128188, 30.13, -2.27, -0.31, 9.10
49.291820, 4.128188, 30.13, -2.12, -0.58, 7.78
49.292062, 4.128381, 30.11, -1.78, -0.22, 9.12
49.292062, 4.128381, 30.11, -2.08, 0.12, 8.25
49.292297, 4.128573, 30.16, -1.06, -0.11, 8.64
49.292297, 4.128573, 30.16, -1.92, 0.08, 8.68
49.292534, 4.128765, 30.18, -2.02, -0.79, 10.36
49.292534, 4.128765, 30.18, -2.28, -0.60, 9.05
49.292775, 4.128947, 30.08, -1.58, -1.22, 9.43
49.292775, 4.128947, 30.08, -1.89, -0.65, 9.53
49.293017, 4.129123, 29.99, -1.28, -0.54, 10.69
49.293017, 4.129123, 29.99, -0.81, -1.21, 10.13
49.293252, 4.129285, 29.52, -1.67, -0.36, 8.79
49.293252, 4.129285, 29.52, -1.77, 0.03, 9.15
49.293489, 4.129453, 28.80, -2.29, 0.00, 8.73
49.293489, 4.129453, 28.80, -1.60, 0.57, 11.79
49.293731, 4.129620, 28.78, -1.53, -0.19, 10.84
49.293731, 4.129620, 28.78, -2.15, 0.51, 8.94
49.293966, 4.129777, 28.74, -1.54, 0.77, 8.55
49.293966, 4.129777, 28.74, -1.20, 0.79, 10.96
49.294200, 4.129939, 28.80, -2.08, 0.23, 11.31
49.294200, 4.129939, 28.80, -0.96, -1.46, 10.71
49.294437, 4.130107, 28.82, -2.20, -0.06, 7.77
49.294437, 4.130107, 28.82, -2.57, 0.79, 9.05
49.294672, 4.130274, 29.14, -1.89, -0.85, 8.27
49.294672, 4.130274, 29.14, -1.85, -0.07, 11.80
49.294911, 4.130444, 29.35, -1.79, -1.57, 10.69
49.294911, 4.130444, 29.35, -2.12, 0.23, 8.46
49.295157, 4.130608, 29.44, -1.96, 0.01, 8.70
49.295157, 4.130608, 29.44, -0.89, 0.87, 9.03
49.295403, 4.130771, 29.58, -2.61, -1.33, 8.27
49.295403, 4.130771, 29.58, -1.95, -0.31, 8.92
49.295643, 4.130934, 29.59, -1.18, 1.80, 12.25
49.295643, 4.130934, 29.59, -1.97, -0.51, 9.51
49.295884, 4.131101, 29.64, -2.07, 0.28, 7.85
49.295884, 4.131101, 29.64, -2.10, 0.74, 11.73
49.296123, 4.131266, 29.60, -1.64, -1.11, 10.34
49.296365, 4.131430, 29.49, -1.05, -0.17, 10.18
49.296365, 4.131430, 29.49, -1.85, 0.26, 9.83
49.296603, 4.131597, 29.47, -1.33, 0.17, 11.67
49.296603, 4.131597, 29.47, -1.16, -0.91, 10.36
49.296843, 4.131763, 29.42, -2.21, -1.12, 11.99
49.296843, 4.131763, 29.42, -2.91, 0.31, 6.63
49.297094, 4.131929, 29.33, -0.82, 0.46, 9.96
49.297094, 4.131929, 29.33, -1.67, -0.95, 10.30
49.297337, 4.132091, 29.34, -1.71, 0.42, 10.19
49.297337, 4.132091, 29.34, -1.53, 0.06, 8.61
49.297578, 4.132261, 29.28, -1.68, 0.59, 8.82
49.297578, 4.132261, 29.28, -1.51, -1.42, 9.52
49.297816, 4.132422, 29.45, -2.40, 0.48, 11.04
49.297816, 4.132422, 29.45, -2.20, 0.15, 10.15
49.298061, 4.132583, 29.42, -2.53, 0.03, 8.79
49.298061, 4.132583, 29.42, -1.62, 0.24, 10.51
49.298303, 4.132743, 29.48, -1.32, 0.67, 11.06
49.298303, 4.132743, 29.48, -2.07, 0.26, 10.62
49.298548, 4.132911, 29.63, -2.60, -0.93, 9.00
49.298548, 4.132911, 29.63, -1.33, 1.14, 9.55
49.298794, 4.133075, 29.66, -1.59, 0.07, 10.35
49.298794, 4.133075, 29.66, -1.47, -0.43, 9.66
49.299035, 4.133241, 29.56, -1.36, 1.02, 9.15
49.299035, 4.133241, 29.56, -1.40, 1.31, 9.56
49.299275, 4.133407, 29.51, -2.20, -1.93, 8.53
49.299275, 4.133407, 29.51, -1.54, -0.09, 8.99
49.299514, 4.133571, 29.54, -1.64, 1.36, 9.86
49.299514, 4.133571, 29.54, -1.60, -0.24, 10.62
49.299756, 4.133736, 29.67, -1.55, 1.76, 9.79
49.299756, 4.133736, 29.67, -1.80, -0.25, 9.32
49.299997, 4.133908, 29.79, -1.34, -1.21, 10.62
49.299997, 4.133908, 29.79, -1.35, 0.60, 9.50
49.300239, 4.134086, 29.87, -0.67, 0.28, 11.19
49.300239, 4.134086, 29.87, -0.95, -0.17, 9.82
49.300474, 4.134268, 29.46, -1.04, 0.09, 9.25
49.300474, 4.134268, 29.46, -2.35, -0.46, 9.77
49.300706, 4.134455, 29.23, -1.47, 0.65, 8.08
49.300706, 4.134455, 29.23, -1.37, -0.28, 9.52
49.300935, 4.134636, 29.19, -0.76, 0.48, 10.72
49.300935, 4.134636, 29.19, -1.32, 0.15, 9.65
49.301171, 4.134829, 29.11, -1.92, 0.78, 8.64
49.301171, 4.134829, 29.11, -1.80, 0.57, 9.50
49.301403, 4.135026, 29.07, -1.29, 0.79, 8.25
49.301636, 4.135226, 29.06, -1.55, 0.17, 8.26
49.301636, 4.135226, 29.06, -1.62, 0.72, 11.42
49.301857, 4.135436, 29.00, -1.70, -0.30, 8.87
49.301857, 4.135436, 29.00, -1.83, 1.04, 8.77
49.302080, 4.135650, 29.24, -1.56, 0.79, 8.46
49.302080, 4.135650, 29.24, -2.14, 0.53, 9.40
49.302303, 4.135866, 29.39, -0.72, 0.18, 10.29
49.302303, 4.135866, 29.39, -1.43, -0.32, 11.14
49.302518, 4.136096, 29.61, -1.88, 0.99, 9.29
49.302518, 4.136096, 29.61, -1.29, 1.03, 8.99
49.302738, 4.136328, 29.60, -1.79, -0.86, 10.09
49.302738, 4.136328, 29.60, -1.76, 1.36, 9.13
49.302953, 4.136566, 29.44, -1.34, 0.87, 10.35
49.302953, 4.136566, 29.44, -0.21, 0.95, 9.05
49.303167, 4.136801, 28.90, -0.84, -0.13, 10.82
49.303167, 4.136801, 28.90, -0.59, 0.35, 10.24
49.303378, 4.137035, 28.53, -1.37, 0.18, 10.10
49.303378, 4.137035, 28.53, -1.39, 0.60, 11.33
49.303582, 4.137269, 28.39, -1.62, 0.69, 10.23
49.303582, 4.137269, 28.39, -1.70, -0.13, 9.73
49.303779, 4.137504, 28.35, -1.54, 0.15, 10.43
49.303779, 4.137504, 28.35, -2.04, -0.62, 7.97
49.303975, 4.137747, 28.45, -2.16, 0.75, 8.91
49.303975, 4.137747, 28.45, -2.63, -0.05, 9.85
49.304171, 4.137995, 28.63, -2.18, 0.85, 8.99
49.304171, 4.137995, 28.63, -1.98, 0.02, 6.92
49.304367, 4.138244, 28.87, -1.20, -0.05, 11.73
49.304367, 4.138244, 28.87, -1.85, -0.86, 11.37
49.304570, 4.138490, 29.08, -1.42, 0.19, 8.54
49.304570, 4.138490, 29.08, -1.46, 0.45, 9.68
49.304774, 4.138736, 29.26, -2.28, 0.16, 8.84
49.304774, 4.138736, 29.26, -0.89, 0.09, 11.17
49.304976, 4.138988, 29.44, -2.36, -1.01, 11.31
49.304976, 4.138988, 29.44, -1.61, -0.00, 9.58
49.305180, 4.139244, 29.34, -1.69, 0.11, 9.56
49.305180, 4.139244, 29.34, -1.92, -0.73, 9.94
49.305385, 4.139496, 28.74, -1.84, -0.30, 8.41
49.305385, 4.139496, 28.74, -1.57, -0.11, 11.19
49.305589, 4.139740, 28.59, -3.00, 0.18, 8.85
49.305589, 4.139740, 28.59, -2.11, -0.03, 7.47
49.305788, 4.139988, 28.46, -2.26, 0.24, 8.37
49.305788, 4.139988, 28.46, -2.34, 0.37, 11.21
49.305998, 4.140231, 28.52, -2.02, -0.19, 9.48
49.305998, 4.140231, 28.52, -2.29, 0.49, 10.42
49.306202, 4.140477, 28.65, -1.69, 0.03, 9.13
49.306401, 4.140722, 28.66, -1.89, -0.33, 9.11
49.306401, 4.140722, 28.66, -1.51, -0.86, 9.73
49.306605, 4.140965, 28.58, -1.79, 0.20, 10.26
49.306605, 4.140965, 28.58, -2.03, -0.38, 10.63
49.306806, 4.141208, 28.67, -1.89, -0.17, 9.12
49.306806, 4.141208, 28.67, -2.30, -0.24, 11.20
49.307005, 4.141453, 28.80, -1.09, 0.23, 10.61
49.307005, 4.141453, 28.80, -1.65, 0.58, 10.20
49.307204, 4.141702, 28.83, -1.06, -0.25, 9.48
49.307204, 4.141702, 28.83, -1.51, -0.83, 7.43
49.307401, 4.141951, 28.36, -1.32, -0.07, 10.12
49.307401, 4.141951, 28.36, -1.26, 0.31, 12.08
49.307605, 4.142185, 28.25, -1.55, -0.09, 10.24
49.307605, 4.142185, 28.25, -0.82, 0.38, 8.82
49.307807, 4.142423, 28.38, -2.06, -0.41, 8.79
49.307807, 4.142423, 28.38, -2.30, 1.19, 9.32
49.308012, 4.142663, 28.63, -2.09, 1.02, 11.70
49.308012, 4.142663, 28.63, -1.06, 0.52, 9.88
49.308214, 4.142914, 28.87, -1.64, -0.26, 9.70
49.308214, 4.142914, 28.87, -2.22, -0.46, 11.50
49.308418, 4.143157, 28.88, -2.34, -2.12, 10.30
49.308418, 4.143157, 28.88, -1.80, -0.97, 10.12
49.308625, 4.143400, 28.87, -2.20, -0.68, 10.92
49.308625, 4.143400, 28.87, -1.37, -0.07, 6.59
49.308831, 4.143650, 29.01, -0.92, -0.07, 7.75
49.308831, 4.143650, 29.01, -0.87, 0.13, 9.58
49.309032, 4.143894, 28.58, -1.32, -0.50, 11.11
49.309032, 4.143894, 28.58, -1.24, -0.14, 8.97
49.309224, 4.144141, 27.92, -0.53, -1.06, 11.48
49.309224, 4.144141, 27.92, -1.01, -0.45, 12.18
49.309415, 4.144382, 27.43, -1.72, 0.33, 6.41
49.309415, 4.144382, 27.43, -1.47, -0.39, 7.50
49.309606, 4.144619, 27.24, -1.76, -0.18, 8.59
49.309606, 4.144619, 27.24, -1.58, 0.01, 8.52
49.309800, 4.144862, 27.26, -0.89, 0.01, 10.69
49.309800, 4.144862, 27.26, -2.02, -0.18, 5.01
49.309990, 4.145104, 27.49, -1.59, -1.03, 12.63
49.309990, 4.145104, 27.49, -1.06, -0.66, 11.43
49.310186, 4.145340, 27.39, -0.83, 0.38, 8.65
49.310376, 4.145573, 26.94, -1.41, -0.52, 11.85
49.310376, 4.145573, 26.94, -2.00, -0.25, 7.85
49.310562, 4.145807, 27.11, -2.20, -0.79, 10.80
49.310562, 4.145807, 27.11, -1.54, 0.55, 7.46
49.310752, 4.146038, 27.31, -2.25, -0.66, 8.72
49.310752, 4.146038, 27.31, -2.26, 0.00, 11.31
49.310945, 4.146271, 27.52, -1.38, 0.06, 9.55
49.310945, 4.146271, 27.52, -1.25, -0.62, 9.84
49.311135, 4.146508, 27.18, -0.57, -0.01, 8.94
49.311135, 4.146508, 27.18, -1.57, 0.11, 10.26
49.311324, 4.146732, 27.04, -2.11, 0.44, 8.14
49.311324, 4.146732, 27.04, -1.97, 0.02, 10.57
49.311510, 4.146961, 27.25, -2.09, -0.08, 8.25
49.311510, 4.146961, 27.25, -2.59, -0.49, 8.63
49.311702, 4.147197, 27.58, -2.25, -0.21, 5.24
49.311702, 4.147197, 27.58, -2.18, 0.35, 10.12
49.311902, 4.147435, 27.75, -0.92, 0.45, 10.22
49.311902, 4.147435, 27.75, -2.19, -0.12, 8.49
49.312095, 4.147674, 27.48, -2.03, -0.36, 10.28
49.312095, 4.147674, 27.48, -0.18, 1.21, 10.11
49.312288, 4.147909, 27.53, -1.86, -0.01, 8.67
49.312288, 4.147909, 27.53, -1.77, 0.09, 9.08
49.312480, 4.148140, 27.68, -1.72, -0.52, 9.06
49.312480, 4.148140, 27.68, -1.88, 0.23, 10.06
49.312673, 4.148377, 27.80, -1.91, 0.24, 8.72
49.312673, 4.148377, 27.80, -1.28, 0.27, 8.28
49.312870, 4.148615, 27.98, -1.76, 0.58, 6.58
49.312870, 4.148615, 27.98, -3.24, 0.22, 11.77
49.313070, 4.148855, 28.17, -1.57, 0.19, 11.11
49.313070, 4.148855, 28.17, -2.60, -0.29, 9.81
49.313270, 4.149098, 28.34, -2.01, -0.11, 11.15
49.313270, 4.149098, 28.34, -1.69, -0.50, 10.89
49.313474, 4.149346, 28.56, -2.07, -0.50, 10.81
49.313474, 4.149346, 28.56, -1.61, 0.27, 10.34
49.313678, 4.149591, 28.76, -3.37, 0.67, 9.93
49.313678, 4.149591, 28.76, -2.01, 0.36, 10.18
49.313881, 4.149840, 29.06, -1.81, -0.62, 9.30
49.313881, 4.149840, 29.06, -2.63, 1.24, 9.75
49.314083, 4.150092, 29.45, -1.16, -0.15, 10.89
49.314083, 4.150092, 29.45, -1.16, 0.11, 11.84
49.314282, 4.150345, 29.43, -1.92, 0.41, 8.52
49.314282, 4.150345, 29.43, -0.71, -0.27, 7.60
49.314484, 4.150596, 28.95, -1.94, 0.34, 8.49
49.314692, 4.150842, 28.64, -1.11, 0.53, 9.43
49.314692, 4.150842, 28.64, -1.86, 0.37, 10.54
49.314896, 4.151087, 28.56, -0.99, -0.33, 9.08
49.314896, 4.151087, 28.56, -2.00, 0.43, 9.50
49.315101, 4.151335, 28.11, -2.33, -0.21, 9.53
49.315101, 4.151335, 28.11, -2.97, 0.23, 9.23
49.315300, 4.151577, 28.30, -1.56, 0.03, 11.31
49.315300, 4.151577, 28.30, -1.27, -0.90, 8.82
49.315507, 4.151815, 28.32, -1.37, -1.27, 11.07
49.315507, 4.151815, 28.32, -1.91, -0.47, 10.54
49.315708, 4.152057, 28.22, -0.92, -0.34, 11.32
49.315708, 4.152057, 28.22, -1.25, 0.99, 9.82
49.315907, 4.152300, 28.24, -2.18, -0.13, 10.12
49.315907, 4.152300, 28.24, -1.67, 0.58, 6.84
49.316106, 4.152541, 28.22, -1.20, -1.06, 8.49
49.316106, 4.152541, 28.22, -1.21, 0.13, 9.47
49.316302, 4.152782, 28.08, -1.58, 0.13, 10.73
49.316302, 4.152782, 28.08, -1.99, -0.45, 10.40
49.316500, 4.153023, 28.17, -1.36, -0.50, 11.12
49.316500, 4.153023, 28.17, -1.65, -0.39, 10.76
49.316698, 4.153270, 28.25, -0.70, 0.01, 9.48
49.316698, 4.153270, 28.25, -2.13, 0.42, 6.81
49.316892, 4.153520, 28.30, -1.79, 0.58, 8.60
49.316892, 4.153520, 28.30, -1.57, -0.30, 8.14
49.317087, 4.153758, 28.12, -1.32, 0.31, 11.80
49.317087, 4.153758, 28.12, -1.34, 0.35, 10.74
49.317279, 4.153995, 28.01, -1.70, -0.72, 11.80
49.317279, 4.153995, 28.01, -2.57, -1.44, 16.72
49.317472, 4.154235, 27.79, -1.97, -0.58, 8.30
49.317472, 4.154235, 27.79, -1.76, 0.73, 10.52
49.317671, 4.154473, 27.59, -1.28, -0.26, 9.69
49.317671, 4.154473, 27.59, -1.81, 0.24, 9.97
49.317864, 4.154712, 27.61, -2.24, 0.25, 10.59
49.317864, 4.154712, 27.61, -1.29, -0.83, 8.26
49.318057, 4.154949, 27.57, -1.80, 0.55, 8.50
49.318057, 4.154949, 27.57, -1.26, -0.81, 9.41
49.318243, 4.155183, 27.55, -2.12, -0.23, 9.64
49.318243, 4.155183, 27.55, -0.94, 0.20, 10.34
49.318434, 4.155422, 27.50, -2.21, -1.19, 10.14
49.318434, 4.155422, 27.50, -2.70, 1.51, 11.10
49.318629, 4.155662, 27.47, -0.77, 0.03, 11.15
49.318818, 4.155896, 27.56, -2.49, 1.30, 8.57
49.318818, 4.155896, 27.56, -0.54, 0.90, 11.47
49.319011, 4.156126, 27.11, -1.07, 0.08, 9.59
49.319011, 4.156126, 27.11, -2.32, 0.88, 10.37
49.319199, 4.156360, 26.97, -1.16, 0.31, 10.33
49.319199, 4.156360, 26.97, -2.12, 1.08, 10.80
49.319388, 4.156589, 27.09, -0.85, -0.34, 11.09
49.319388, 4.156589, 27.09, -3.05, 0.89, 8.87
49.319587, 4.156821, 27.20, -1.91, 0.05, 10.26
49.319587, 4.156821, 27.20, -1.82, 0.64, 8.50
49.319779, 4.157051, 27.40, -2.44, -0.92, 9.21
49.319779, 4.157051, 27.40, -1.28, 0.11, 9.71
49.319974, 4.157283, 27.93, -1.81, -0.75, 10.68
49.319974, 4.157283, 27.93, -2.32, -0.30, 9.62
49.320168, 4.157524, 28.30, -2.03, -0.72, 10.34
49.320168, 4.157524, 28.30, -1.81, 0.09, 8.35
49.320372, 4.157766, 28.60, -1.97, 0.25, 10.64
49.320372, 4.157766, 28.60, -2.24, -0.10, 11.89
49.320585, 4.158005, 29.04, -2.08, 1.42, 9.92
49.320585, 4.158005, 29.04, -2.27, 0.44, 7.96
49.320793, 4.158249, 29.51, -1.20, 1.36, 9.58
49.320793, 4.158249, 29.51, -1.49, -0.19, 11.47
49.321002, 4.158491, 29.74, -1.83, 0.45, 9.98
49.321002, 4.158491, 29.74, -1.72, 1.16, 11.21
49.321210, 4.158740, 29.86, -1.63, 0.46, 10.55
49.321210, 4.158740, 29.86, -0.91, 0.75, 11.22
49.321420, 4.158996, 29.83, -1.81, -1.00, 10.18
49.321420, 4.158996, 29.83, -2.70, 0.48, 8.37
49.321631, 4.159250, 29.67, -1.20, 1.10, 9.51
49.321631, 4.159250, 29.67, -1.34, 0.58, 9.50
49.321842, 4.159503, 29.56, -1.50, -0.45, 8.53
49.321842, 4.159503, 29.56, -1.46, 1.59, 11.19
49.322051, 4.159754, 29.49, -1.02, 0.93, 9.22
49.322051, 4.159754, 29.49, -1.83, -0.52, 11.33
49.322260, 4.160004, 29.42, -1.94, 1.07, 9.98
49.322260, 4.160004, 29.42, -1.93, 0.90, 8.44
49.322465, 4.160255, 29.24, -1.26, 1.38, 11.03
49.322465, 4.160255, 29.24, -2.30, 0.45, 11.10
49.322671, 4.160508, 29.33, -1.57, 1.16, 10.18
49.322671, 4.160508, 29.33, -1.96, 0.11, 9.53
49.322879, 4.160760, 29.40, -1.78, 0.13, 9.91
49.323087, 4.161015, 29.41, -2.11, -0.86, 9.60
49.323087, 4.161015, 29.41, -1.77, 0.85, 11.36
49.323294, 4.161269, 29.36, -1.99, 0.56, 9.82
49.323294, 4.161269, 29.36, -1.09, 0.61, 9.42
49.323501, 4.161517, 29.29, -1.59, -0.53, 12.36
49.323501, 4.161517, 29.29, -2.25, -0.31, 10.82
49.323706, 4.161765, 29.09, -2.93, 0.89, 8.92
49.323706, 4.161765, 29.09, -1.84, 0.30, 8.56
49.323910, 4.162015, 29.04, -1.13, 0.03, 9.76
49.323910, 4.162015, 29.04, -1.21, 1.00, 9.67
49.324113, 4.162265, 29.02, -1.64, 0.00, 10.35
49.324113, 4.162265, 29.02, -1.18, 1.26, 9.79
49.324317, 4.162517, 28.75, -2.07, -0.01, 11.52
49.324317, 4.162517, 28.75, -1.17, 0.20, 10.35
49.324518, 4.162762, 28.67, -2.67, -0.49, 9.16
49.324518, 4.162762, 28.67, -2.22, -0.21, 9.97
49.324721, 4.163006, 28.79, -2.02, 0.76, 9.48
49.324721, 4.163006, 28.79, -0.94, 0.62, 9.91
49.324925, 4.163252, 28.72, -1.66, 1.13, 9.50
49.324925, 4.163252, 28.72, -2.43, 1.17, 9.37
49.325132, 4.163497, 28.76, -1.06, 1.22, 10.53
49.325132, 4.163497, 28.76, -1.80, 0.81, 8.57
49.325337, 4.163747, 28.91, -1.92, 0.08, 9.68
49.325337, 4.163747, 28.91, -2.84, 0.23, 10.38
49.325544, 4.163998, 29.17, -3.59, -0.35, 9.25
49.325544, 4.163998, 29.17, -2.14, 0.28, 8.66
49.325751, 4.164244, 29.36, -0.85, 0.36, 10.30
49.325751, 4.164244, 29.36, -1.17, 0.47, 11.21
49.325960, 4.164494, 29.31, -1.93, -1.35, 11.16
49.325960, 4.164494, 29.31, -2.05, 0.16, 7.42
49.326166, 4.164742, 29.40, -0.50, -0.04, 9.07
49.326166, 4.164742, 29.40, -1.42, -0.32, 9.69
49.326374, 4.164990, 29.46, -1.91, 0.82, 6.84
49.326374, 4.164990, 29.46, -1.61, 0.55, 8.62
49.326584, 4.165239, 29.58, -1.88, 0.30, 8.25
49.326584, 4.165239, 29.58, -2.09, -0.05, 9.55
49.326791, 4.165486, 29.69, -0.75, 0.26, 11.18
49.326791, 4.165486, 29.69, -2.03, 0.19, 10.80
49.326999, 4.165740, 29.83, -1.56, 0.89, 8.30
49.326999, 4.165740, 29.83, -0.83, 0.22, 9.09
49.327210, 4.165998, 29.85, -0.25, 0.81, 10.11
49.327414, 4.166252, 29.47, -0.83, 0.95, 10.12
49.327414, 4.166252, 29.47, -1.70, -0.39, 9.69
49.327617, 4.166502, 28.83, -1.58, 0.83, 8.56
49.327617, 4.166502, 28.83, -1.15, -0.46, 8.41
49.327812, 4.166757, 28.33, -2.15, -1.34, 10.39
49.327812, 4.166757, 28.33, -2.69, -0.23, 8.62
49.328007, 4.167010, 28.04, -1.46, -0.67, 8.29
49.328007, 4.167010, 28.04, -1.53, -0.66, 10.48
49.328204, 4.167248, 28.06, -0.89, -0.55, 10.75
49.328204, 4.167248, 28.06, -0.66, -0.59, 11.70
49.328400, 4.167486, 27.88, -2.20, -0.39, 10.23
49.328400, 4.167486, 27.88, -1.64, -0.09, 11.53
49.328595, 4.167725, 27.79, -1.89, 0.35, 8.77
49.328595, 4.167725, 27.79, -0.17, -0.96, 8.49
49.328794, 4.167960, 27.74, -1.94, -0.57, 9.50
49.328794, 4.167960, 27.74, -1.00, 0.65, 10.30
49.328992, 4.168201, 27.75, -1.65, -0.91, 11.84
49.328992, 4.168201, 27.75, -1.33, 0.56, 11.18
49.329193, 4.168442, 28.00, -1.73, -1.41, 9.26
49.329193, 4.168442, 28.00, -1.71, -0.47, 6.21
49.329393, 4.168682, 28.09, -1.28, -0.77, 7.06
49.329393, 4.168682, 28.09, -2.04, -1.72, 10.06
49.329586, 4.168924, 28.14, -1.41, -0.90, 7.35
49.329586, 4.168924, 28.14, -1.58, -2.21, 6.32
49.329787, 4.169165, 28.08, -0.83, 1.27, 9.63
49.329787, 4.169165, 28.08, -1.27, -0.34, 9.71
49.329990, 4.169410, 28.04, -1.94, -0.24, 9.39
49.329990, 4.169410, 28.04, -1.52, -0.51, 9.68
49.330184, 4.169647, 27.83, -2.52, -0.41, 10.71
49.330184, 4.169647, 27.83, -1.50, 0.75, 9.79
49.330378, 4.169882, 27.81, -2.51, -0.11, 9.69
49.330378, 4.169882, 27.81, -1.84, -1.55, 11.01
49.330572, 4.170118, 27.76, -1.74, 0.39, 8.66
49.330572, 4.170118, 27.76, -2.56, -0.76, 6.88
49.330770, 4.170354, 27.77, -2.23, 1.18, 13.34
49.330770, 4.170354, 27.77, -3.37, -0.44, 11.15
49.330963, 4.170593, 27.90, -1.87, -0.05, 8.22
49.330963, 4.170593, 27.90, -1.71, 0.72, 10.66
49.331160, 4.170838, 28.21, -2.32, -0.51, 10.50
49.331160, 4.170838, 28.21, -2.58, -0.72, 8.71
49.331356, 4.171080, 28.55, -1.52, 0.47, 10.47
49.331356, 4.171080, 28.55, -2.57, 0.25, 11.38
49.331557, 4.171328, 28.56, -1.58, -0.17, 10.38
49.331758, 4.171577, 28.57, -1.99, -0.67, 10.43
49.331758, 4.171577, 28.57, -2.15, 0.35, 9.92
49.331959, 4.171819, 28.64, -1.47, -0.59, 9.55
49.331959, 4.171819, 28.64, -1.80, 0.62, 10.23
49.332163, 4.172064, 28.58, -2.02, 0.32, 10.00
49.332163, 4.172064, 28.58, -2.31, -0.31, 8.96
49.332366, 4.172312, 28.65, -1.48, -0.36, 12.26
49.332366, 4.172312, 28.65, -2.85, -0.69, 10.06
49.332571, 4.172558, 28.63, -1.99, -0.35, 10.51
49.332571, 4.172558, 28.63, -2.47, 0.25, 10.18
49.332771, 4.172800, 28.71, -1.76, 0.31, 9.05
49.332771, 4.172800, 28.71, -1.81, 0.18, 10.09
49.332970, 4.173049, 28.77, -2.39, 1.01, 9.57
49.332970, 4.173049, 28.77, -2.02, 1.20, 9.34
49.333169, 4.173293, 28.82, -2.26, 1.02, 10.15
49.333169, 4.173293, 28.82, -1.99, 0.48, 9.39
49.333372, 4.173539, 28.86, -1.52, -1.23, 9.28
49.333372, 4.173539, 28.86, -1.81, -0.78, 10.07
49.333576, 4.173786, 28.96, -1.38, -0.12, 10.11
49.333576, 4.173786, 28.96, -2.04, -0.71, 11.22
49.333782, 4.174030, 28.98, -2.21, -0.47, 10.57
49.333782, 4.174030, 28.98, -2.02, 0.59, 9.44
49.333988, 4.174275, 29.08, -1.86, 1.34, 10.33
49.333988, 4.174275, 29.08, -1.94, -0.65, 10.35
49.334194, 4.174523, 29.16, -1.91, -0.09, 10.04
49.334194, 4.174523, 29.16, -1.82, -0.67, 9.85
49.334399, 4.174776, 29.19, -2.53, 0.23, 7.81
49.334399, 4.174776, 29.19, -1.96, 1.22, 10.23
49.334607, 4.175029, 29.45, -1.48, 0.30, 8.39
49.334607, 4.175029, 29.45, -1.62, -0.25, 9.66
49.334815, 4.175280, 29.38, -1.35, -0.57, 8.59
49.334815, 4.175280, 29.38, -1.22, 0.11, 9.70
49.335026, 4.175529, 29.11, -1.42, -0.54, 9.78
49.335026, 4.175529, 29.11, -0.74, -0.90, 11.31
49.335233, 4.175773, 28.71, -0.66, -0.59, 10.61
49.335233, 4.175773, 28.71, -1.78, 0.48, 10.30
49.335437, 4.176014, 28.39, -1.95, 0.54, 8.87
49.335437, 4.176014, 28.39, -1.84, -0.29, 8.61
49.335637, 4.176252, 28.20, -1.68, -0.45, 6.07
49.335637, 4.176252, 28.20, -1.37, 0.58, 9.98
49.335837, 4.176492, 28.37, -2.07, -0.47, 8.49
49.336042, 4.176737, 28.42, -1.38, 0.47, 9.55
49.336042, 4.176737, 28.42, -2.57, 0.05, 10.82
49.336243, 4.176978, 28.53, -1.95, 0.14, 9.83
49.336243, 4.176978, 28.53, -2.28, -0.43, 9.11
49.336445, 4.177222, 28.60, -1.23, 1.00, 11.06
49.336445, 4.177222, 28.60, -2.03, -0.27, 8.32
49.336645, 4.177468, 28.60, -2.41, -0.68, 10.36
49.336645, 4.177468, 28.60, -1.84, 0.19, 9.62
49.336843, 4.177710, 28.51, -2.90, 0.75, 10.64
49.336843, 4.177710, 28.51, -1.03, 0.37, 11.59
49.337043, 4.177953, 28.35, -2.15, 0.40, 10.35
49.337043, 4.177953, 28.35, -1.52, -0.72, 11.65
49.337240, 4.178192, 28.07, -2.00, 0.02, 7.86
49.337240, 4.178192, 28.07, -2.14, 0.91, 10.06
49.337437, 4.178432, 27.95, -1.90, -0.48, 10.72
49.337437, 4.178432, 27.95, -2.26, 0.20, 9.38
49.337634, 4.178672, 27.87, -1.02, 0.67, 9.20
49.337634, 4.178672, 27.87, -1.43, -0.96, 8.11
49.337833, 4.178906, 27.73, -1.66, -0.80, 8.95
49.337833, 4.178906, 27.73, -2.13, -0.85, 9.57
49.338025, 4.179142, 27.61, -2.11, -0.39, 10.08
49.338025, 4.179142, 27.61, -0.33, 1.65, 8.35
49.338220, 4.179382, 27.60, -1.71, -0.47, 7.62
49.338220, 4.179382, 27.60, -1.52, 0.22, 9.47
49.338420, 4.179618, 27.63, -1.43, -0.83, 10.47
49.338420, 4.179618, 27.63, -1.77, 0.94, 9.57
49.338616, 4.179849, 27.75, -1.89, 0.43, 8.88
49.338616, 4.179849, 27.75, -0.85, 0.59, 9.83
49.338812, 4.180085, 27.88, -1.33, 0.74, 8.62
49.338812, 4.180085, 27.88, -0.29, 2.25, 2.47
49.339007, 4.180322, 27.94, -0.69, -2.30, 11.51
49.339007, 4.180322, 27.94, -2.04, 0.48, 8.56
49.339204, 4.180561, 27.89, 0.41, -0.61, 7.65
49.339204, 4.180561, 27.89, -0.73, 0.23, 10.84
49.339400, 4.180791, 27.99, -2.23, -0.68, 9.47
49.339400, 4.180791, 27.99, -1.52, 0.40, 10.68
49.339598, 4.181030, 27.87, -1.26, -0.72, 10.00
49.339598, 4.181030, 27.87, -1.85, 0.92, 8.59
49.339793, 4.181261, 27.82, -1.85, -1.03, 9.31
49.339793, 4.181261, 27.82, -0.83, -0.32, 9.56
49.339986, 4.181490, 27.98, -1.12, 0.61, 11.02
49.339986, 4.181490, 27.98, -1.81, -0.98, 7.08
49.340184, 4.181733, 28.19, -1.49, -0.24, 9.09
49.340382, 4.181977, 28.35, -1.70, 0.08, 9.33
49.340382, 4.181977, 28.35, -1.42, -0.29, 8.10
49.340584, 4.182221, 28.56, -2.25, -0.34, 10.56
49.340584, 4.182221, 28.56, -2.61, 0.37, 11.87
49.340784, 4.182463, 28.72, -2.05, 0.30, 9.57
49.340784, 4.182463, 28.72, -1.27, -0.88, 8.37
49.340988, 4.182712, 29.13, -0.74, -0.06, 10.17
49.340988, 4.182712, 29.13, -1.79, -0.62, 10.11
49.341193, 4.182963, 29.20, -2.31, 0.16, 10.47
49.341193, 4.182963, 29.20, -1.52, 0.28, 11.06
49.341397, 4.183210, 29.22, -0.73, -0.23, 8.48
49.341397, 4.183210, 29.22, -0.99, -0.25, 10.79
49.341604, 4.183456, 29.29, -1.27, -1.11, 9.17
49.341604, 4.183456, 29.29, -1.24, 0.73, 8.96
49.341810, 4.183707, 29.33, -2.38, 0.25, 7.68
49.341810, 4.183707, 29.33, -0.79, 0.39, 9.80
49.342020, 4.183961, 29.53, -1.65, -0.50, 8.22
49.342020, 4.183961, 29.53, -1.47, -0.26, 8.73
49.342228, 4.184217, 29.65, -1.35, 0.13, 11.03
49.342228, 4.184217, 29.65, -0.58, 1.14, 10.76
49.342438, 4.184471, 29.75, -1.90, 0.58, 8.46
49.342438, 4.184471, 29.75, -2.08, 0.09, 11.18
49.342648, 4.184726, 29.79, -1.31, -0.27, 9.60
49.342648, 4.184726, 29.79, -0.73, 0.17, 8.62
49.342857, 4.184981, 29.84, -1.24, -0.43, 9.83
49.342857, 4.184981, 29.84, -0.38, -0.57, 7.78
49.343066, 4.185246, 29.35, -0.95, 0.03, 8.45
49.343066, 4.185246, 29.35, -1.72, 0.91, 7.71
49.343278, 4.185494, 28.78, -1.72, -0.87, 10.02
49.343278, 4.185494, 28.78, -2.28, -0.15, 10.63
49.343478, 4.185735, 28.48, -1.23, 0.14, 9.05
49.343478, 4.185735, 28.48, -2.32, -0.48, 9.50
49.343678, 4.185975, 28.35, -2.10, 0.83, 9.11
49.343678, 4.185975, 28.35, -2.27, -0.19, 10.42
49.343879, 4.186219, 28.33, -1.04, -0.09, 9.44
49.343879, 4.186219, 28.33, -1.66, 0.71, 9.85
49.344077, 4.186460, 28.39, -1.71, -0.33, 9.27
49.344077, 4.186460, 28.39, -1.55, -0.36, 9.43
49.344276, 4.186704, 28.58, -0.86, -0.14, 10.33
49.344276, 4.186704, 28.58, -1.41, 0.35, 9.81
49.344475, 4.186952, 28.78, -2.41, 0.23, 9.48
49.344676, 4.187198, 29.03, -2.20, 0.26, 8.37
49.344676, 4.187198, 29.03, -2.19, 0.18, 8.88
49.344880, 4.187446, 29.02, -1.29, -0.34, 10.44
49.344880, 4.187446, 29.02, -2.15, -0.59, 9.06
49.345085, 4.187699, 29.41, -1.51, -0.22, 10.34
49.345085, 4.187699, 29.41, -2.16, 0.14, 9.66
49.345293, 4.187949, 29.64, -1.13, 0.16, 10.68
49.345293, 4.187949, 29.64, -1.52, -0.27, 10.45
49.345504, 4.188205, 29.80, -0.09, 0.72, 10.34
49.345504, 4.188205, 29.80, -0.73, -0.97, 10.46
49.345709, 4.188457, 29.69, -0.59, -1.10, 10.21
49.345709, 4.188457, 29.69, -0.43, 0.22, 9.28
49.345909, 4.188708, 28.80, -1.89, 0.11, 8.62
49.345909, 4.188708, 28.80, -2.09, 0.60, 9.39
49.346112, 4.188958, 28.85, -2.84, 0.27, 9.37
49.346112, 4.188958, 28.85, -1.84, 0.34, 9.99
49.346317, 4.189205, 28.97, -1.11, 1.04, 9.65
49.346317, 4.189205, 28.97, -1.09, 0.57, 10.23
49.346519, 4.189453, 28.90, -1.00, 0.19, 9.62
49.346519, 4.189453, 28.90, -1.26, -0.12, 9.23
49.346716, 4.189708, 28.69, -0.68, 1.28, 9.39
49.346716, 4.189708, 28.69, -1.59, 0.71, 10.74
49.346911, 4.189967, 28.53, -2.60, 0.30, 11.13
49.346911, 4.189967, 28.53, -1.59, 0.20, 10.12
49.347103, 4.190234, 28.62, -1.59, 0.47, 8.67
49.347103, 4.190234, 28.62, -1.23, 1.47, 9.16
49.347295, 4.190499, 28.73, -1.69, 0.73, 9.81
49.347295, 4.190499, 28.73, -1.60, 0.67, 11.17
49.347475, 4.190782, 28.69, -1.11, 1.34, 9.97
49.347475, 4.190782, 28.69, -1.48, 1.06, 7.88
49.347650, 4.191080, 28.60, -1.16, 1.93, 9.37
49.347650, 4.191080, 28.60, -0.95, 2.11, 9.33
49.347811, 4.191388, 28.55, -1.81, 1.58, 8.69
49.347811, 4.191388, 28.55, -0.42, 1.57, 11.08
49.347964, 4.191707, 28.35, -1.53, 1.19, 10.07
49.347964, 4.191707, 28.35, -1.01, 1.42, 9.36
49.348104, 4.192042, 28.21, -1.19, 0.26, 10.08
49.348104, 4.192042, 28.21, -1.29, 1.12, 9.51
49.348233, 4.192383, 28.10, -1.14, 0.98, 9.15
49.348233, 4.192383, 28.10, -1.96, 0.93, 9.22
49.348355, 4.192725, 27.81, -0.34, 1.00, 10.50
49.348355, 4.192725, 27.81, -1.49, 0.66, 11.10
49.348468, 4.193064, 27.49, -2.01, 1.01, 9.99
49.348468, 4.193064, 27.49, -1.23, 1.94, 10.13
49.348566, 4.193408, 27.62, -1.66, 0.45, 9.73
49.348651, 4.193765, 27.85, -1.70, 1.25, 11.02
49.348651, 4.193765, 27.85, -1.44, 0.29, 9.31
49.348725, 4.194135, 28.18, -1.48, 0.90, 11.55
49.348725, 4.194135, 28.18, -2.00, 0.71, 9.89
49.348797, 4.194514, 28.23, -1.74, 0.92, 11.78
49.348797, 4.194514, 28.23, -0.94, 1.73, 9.80
49.348863, 4.194896, 28.32, -1.71, 0.78, 11.72
49.348863, 4.194896, 28.32, -0.82, 0.86, 10.26
49.348924, 4.195270, 28.22, -1.63, 0.17, 9.30
49.348924, 4.195270, 28.22, -0.68, 0.26, 11.60
49.348974, 4.195655, 28.19, -1.18, -0.10, 8.09
49.348974, 4.195655, 28.19, -1.33, 0.29, 10.15
49.349015, 4.196041, 28.35, -1.67, 1.52, 11.45
49.349015, 4.196041, 28.35, -2.04, -0.22, 10.29
49.349049, 4.196432, 28.64, -2.05, -0.56, 9.07
49.349049, 4.196432, 28.64, -1.26, 0.29, 11.43
49.349088, 4.196826, 28.89, -1.27, -0.08, 12.28
49.349088, 4.196826, 28.89, -1.49, -0.23, 11.46
49.349124, 4.197218, 29.13, -1.58, -1.41, 10.49
49.349124, 4.197218, 29.13, -2.37, -1.01, 7.53
49.349164, 4.197616, 29.16, -1.89, 0.02, 9.33
49.349164, 4.197616, 29.16, -1.92, -1.26, 8.50
49.349211, 4.198010, 29.20, -1.57, -1.88, 6.40
49.349211, 4.198010, 29.20, -1.96, 0.04, 10.52
49.349266, 4.198404, 29.09, -1.62, -0.97, 10.56
49.349266, 4.198404, 29.09, -2.49, -1.94, 9.51
49.349326, 4.198799, 29.05, -2.12, -0.18, 8.78
49.349326, 4.198799, 29.05, -1.68, -0.02, 10.74
49.349395, 4.199177, 29.01, -1.86, -0.66, 11.16
49.349395, 4.199177, 29.01, -2.00, -1.66, 10.41
49.349471, 4.199554, 29.12, -2.03, -0.51, 8.95
49.349471, 4.199554, 29.12, -2.61, -1.45, 9.23
49.349570, 4.199919, 29.23, -1.45, -0.24, 9.50
49.349570, 4.199919, 29.23, -1.56, -0.63, 9.96
49.349679, 4.200282, 29.25, -2.28, -2.08, 10.01
49.349679, 4.200282, 29.25, -2.08, -0.24, 10.10
49.349793, 4.200642, 29.27, -1.81, -1.66, 9.94
49.349793, 4.200642, 29.27, -0.65, 0.09, 9.85
49.349910, 4.201000, 29.32, -2.17, -0.93, 10.46
49.349910, 4.201000, 29.32, -2.36, -0.36, 10.17
49.350036, 4.201358, 29.45, -2.05, -0.59, 10.82
49.350036, 4.201358, 29.45, -1.54, -2.47, 10.93
49.350179, 4.201705, 29.51, -1.25, -2.13, 10.51
49.350342, 4.202036, 28.93, -1.05, -0.82, 10.04
49.350342, 4.202036, 28.93, -2.01, -0.19, 8.57
49.350507, 4.202345, 28.51, -2.68, 0.41, 9.96
49.350507, 4.202345, 28.51, -1.52, -0.91, 9.47
49.350678, 4.202637, 28.47, -1.27, -0.12, 9.36
49.350678, 4.202637, 28.47, -1.55, -0.62, 9.31
49.350853, 4.202916, 28.44, 0.90, -0.67, 11.54
49.350853, 4.202916, 28.44, -2.04, -0.74, 10.67
49.351039, 4.203207, 28.50, -1.70, -1.13, 10.91
49.351039, 4.203207, 28.50, -1.68, 0.59, 9.24
49.351228, 4.203467, 28.47, -1.69, -0.09, 10.50
49.351228, 4.203467, 28.47, -1.12, -0.90, 8.23
49.351421, 4.203708, 28.50, -1.72, 0.22, 10.15
49.351421, 4.203708, 28.50, -1.89, 0.05, 10.62
49.351622, 4.203938, 28.57, -1.17, 0.08, 10.12
49.351622, 4.203938, 28.57, -1.99, -0.94, 11.09
49.351827, 4.204160, 28.43, -1.83, 0.26, 9.66
49.351827, 4.204160, 28.43, -2.10, -0.38, 10.31
49.352040, 4.204376, 28.61, -1.53, -0.52, 10.09
49.352040, 4.204376, 28.61, -1.70, -1.01, 8.77
49.352258, 4.204579, 28.53, -2.28, -0.32, 9.23
49.352258, 4.204579, 28.53, -2.31, -1.15, 10.68
49.352485, 4.204762, 28.47, -1.80, -0.24, 10.04
49.352485, 4.204762, 28.47, -1.83, 0.60, 7.95
49.352717, 4.204926, 28.27, -0.83, -0.07, 11.60
49.352717, 4.204926, 28.27, -1.18, -0.72, 9.55
49.352952, 4.205078, 27.90, -1.80, -1.18, 9.60
49.352952, 4.205078, 27.90, -2.40, -0.07, 9.88
49.353185, 4.205214, 27.75, -2.52, -1.05, 9.29
49.353185, 4.205214, 27.75, -2.41, -0.45, 8.65
49.353414, 4.205354, 27.78, -2.73, -1.36, 9.62
49.353414, 4.205354, 27.78, -2.11, -0.33, 11.11
49.353649, 4.205483, 27.94, -2.06, -0.05, 8.23
49.353649, 4.205483, 27.94, -2.00, -0.36, 8.71
49.353892, 4.205609, 28.18, -2.81, -0.57, 8.89
49.353892, 4.205609, 28.18, -2.35, 1.31, 11.31
49.354139, 4.205728, 28.39, -2.43, 0.72, 10.07
49.354139, 4.205728, 28.39, -1.94, 0.30, 9.25
49.354386, 4.205847, 28.71, -1.58, 0.27, 8.57
49.354631, 4.205964, 28.43, -1.64, 0.79, 9.74
49.354631, 4.205964, 28.43, -1.53, 0.32, 9.25
49.354871, 4.206086, 28.33, -2.37, 0.57, 6.44
49.354871, 4.206086, 28.33, -2.57, -0.67, 9.13
49.355113, 4.206216, 28.45, -1.41, -0.76, 11.61
49.355113, 4.206216, 28.45, -1.09, -1.23, 12.44
49.355353, 4.206343, 28.00, -1.81, -0.92, 9.10
49.355353, 4.206343, 28.00, -1.38, -0.90, 9.64
49.355591, 4.206462, 27.90, -1.25, -0.23, 10.49
49.355591, 4.206462, 27.90, -2.81, -1.54, 10.79
49.355832, 4.206578, 28.12, -1.66, 0.21, 11.09
49.355832, 4.206578, 28.12, -1.60, 0.30, 9.99
49.356072, 4.206680, 28.36, -1.20, -0.62, 8.08
49.356072, 4.206680, 28.36, -2.66, -0.55, 9.56
49.356311, 4.206782, 28.62, -2.51, -0.37, 9.48
49.356311, 4.206782, 28.62, -1.86, -0.12, 9.03
49.356564, 4.206897, 28.88, -2.23, -0.25, 8.36
49.356564, 4.206897, 28.88, -2.02, -0.05, 9.97
49.356815, 4.207004, 28.97, -1.37, 0.07, 10.66
49.356815, 4.207004, 28.97, -2.11, -0.97, 10.21
49.357066, 4.207100, 29.21, -0.03, -0.92, 11.24
49.357066, 4.207100, 29.21, -1.55, -0.83, 10.76
49.357322, 4.207195, 28.81, -1.44, -0.03, 8.49
49.357322, 4.207195, 28.81, -1.11, 0.67, 11.49
49.357569, 4.207287, 28.67, -2.33, -0.45, 12.00
49.357569, 4.207287, 28.67, -2.18, 0.48, 10.62
49.357822, 4.207385, 28.81, -1.30, -0.76, 10.20
49.357822, 4.207385, 28.81, -1.18, -0.40, 8.04
49.358080, 4.207469, 28.51, -2.14, -0.26, 10.09
