Location-lat,Location-long,Speed,Accelerometer-X,Accelerometer-Y,Accelerometer-Z
49.557837,3.81181,34.11,-0.2,-0.05,9.03
49.557837,3.81181,34.11,-0.06,0.18,8.91
49.557916,3.81136,33.97,-0.58,0.48,10.64
49.557916,3.81136,33.97,-1.6,-0.32,9.56
49.557994,3.81091,33.41,-1.16,0.27,9.96
49.557994,3.81091,33.41,-2.16,-1.93,9.95
49.558075,3.810465,33.12,-1.47,0.14,9.8
49.558075,3.810465,33.12,-1.66,-0.7,9.48
49.558157,3.810024,32.92,-1.19,-0.81,8.67
49.558157,3.810024,32.92,-0.48,-0.32,9.97
49.55824,3.809594,32.85,-2.52,-0.68,10.54
49.55824,3.809594,32.85,-3.5,-1.45,10.28
49.55832,3.809159,32.81,-0.83,-0.14,8.87
49.55832,3.809159,32.81,-1.37,0.41,9.64
49.558403,3.808728,32.81,-1.44,0.18,9.06
49.558403,3.808728,32.81,-1.12,-0.22,9.38
49.558488,3.808299,32.67,-0.09,0.75,10.61
49.558488,3.808299,32.67,-1.63,-0.4,10.04
49.558568,3.80787,32.59,-1.97,-0.11,9.28
49.558568,3.80787,32.59,-1.59,-0.16,9.62
49.558656,3.807443,32.57,-1.23,0.38,9.53
49.558656,3.807443,32.57,-0.62,0.16,10.43
49.558745,3.807015,32.61,-2.21,-1.1,10.19
49.558745,3.807015,32.61,-1.74,-0.15,9.36
49.558836,3.806587,32.6,-1.63,0.28,10.49
49.558836,3.806587,32.6,-0.39,0.85,10.66
49.558926,3.806157,32.63,-1.72,-0.36,9.86
49.558926,3.806157,32.63,-1.66,-0.5,10.95
49.559018,3.805728,32.64,-1.01,0.05,10.55
49.559018,3.805728,32.64,-1.11,0.94,11.0
49.559113,3.8053,32.62,-0.68,0.45,10.16
49.559113,3.8053,32.62,-2.29,-1.31,10.07
49.559207,3.804873,32.6,-1.23,0.57,9.56
49.559207,3.804873,32.6,-0.93,0.66,9.72
49.559305,3.804448,32.57,-0.37,1.28,10.31
49.559305,3.804448,32.57,-1.52,-0.46,10.41
49.5594,3.804018,32.58,-1.58,0.49,11.03
49.5594,3.804018,32.58,-1.22,0.37,10.53
49.559499,3.803593,32.62,-1.13,0.76,10.94
49.559499,3.803593,32.62,-2.15,-0.94,10.35
49.559601,3.803168,32.63,-2.67,-1.31,10.16
49.559707,3.802747,32.65,-0.94,0.58,10.51
49.559707,3.802747,32.65,-1.58,-0.11,10.05
49.559813,3.802323,32.62,-1.14,1.01,10.96
49.559813,3.802323,32.62,-2.52,-0.79,10.08
49.559917,3.801901,32.65,-2.55,-0.81,9.87
49.559917,3.801901,32.65,-1.2,0.35,10.15
49.56002,3.801477,32.63,-1.52,0.51,9.96
49.56002,3.801477,32.63,-2.13,0.37,10.37
49.560123,3.801054,32.64,-2.41,-1.0,9.11
49.560123,3.801054,32.64,-1.13,0.23,8.78
49.560227,3.800632,32.62,-1.33,0.69,11.1
49.560227,3.800632,32.62,0.03,0.49,9.94
49.560331,3.800211,32.67,-2.0,-0.68,11.4
49.560331,3.800211,32.67,-1.37,-0.4,10.56
49.560438,3.799789,32.67,-1.69,-0.57,10.14
49.560438,3.799789,32.67,-1.93,-0.88,10.31
49.560542,3.799366,32.68,-2.16,-0.21,9.52
49.560542,3.799366,32.68,-1.35,-0.03,9.85
49.560645,3.798943,32.69,-1.69,0.32,10.08
49.560645,3.798943,32.69,-0.93,0.25,10.4
49.560748,3.798522,32.7,-1.86,-1.13,10.0
49.560748,3.798522,32.7,-1.43,-0.55,9.48
49.560854,3.798098,32.7,-0.27,-0.33,10.52
49.560854,3.798098,32.7,-1.01,-0.47,9.58
49.560959,3.797674,32.76,-0.61,0.47,11.26
49.560959,3.797674,32.76,-0.13,0.85,10.37
49.561061,3.797248,32.8,-1.02,-0.43,9.9
49.561061,3.797248,32.8,-2.22,-1.48,9.54
49.56116,3.796821,32.8,-1.02,0.62,10.24
49.56116,3.796821,32.8,-1.08,0.17,8.86
49.561257,3.796393,32.81,-1.68,-1.24,9.16
49.561257,3.796393,32.81,-1.13,0.39,11.22
49.561352,3.795966,32.83,-0.51,0.75,11.17
49.561352,3.795966,32.83,-0.89,0.6,10.68
49.561448,3.795537,32.77,-1.04,-0.21,8.82
49.561448,3.795537,32.77,-1.81,-0.26,9.13
49.561544,3.795108,32.81,-1.12,0.94,11.3
49.561544,3.795108,32.81,-0.74,0.39,10.09
49.561639,3.794678,32.73,-1.02,-0.58,10.22
49.561639,3.794678,32.73,-0.35,1.6,11.62
49.561733,3.794251,32.74,-2.49,-1.48,9.16
49.561823,3.793822,32.7,-1.62,0.37,9.64
49.561823,3.793822,32.7,-1.77,-0.13,10.33
49.561912,3.79339,32.62,-1.13,0.19,11.3
49.561912,3.79339,32.62,-2.08,-1.12,11.13
49.561996,3.792957,32.54,-2.72,-1.74,11.22
49.561996,3.792957,32.54,-1.55,0.89,9.93
49.562079,3.792524,32.5,-1.17,0.79,11.47
49.562079,3.792524,32.5,-1.41,0.63,12.22
49.562161,3.792094,32.4,-1.75,-0.44,9.62
49.562161,3.792094,32.4,-1.33,-0.54,9.03
49.562243,3.791668,32.37,-2.28,-0.91,10.49
49.562243,3.791668,32.37,-1.86,0.08,9.11
49.562318,3.791235,32.35,-0.68,0.52,11.07
49.562318,3.791235,32.35,-1.16,0.07,10.45
49.562395,3.790805,32.31,-0.9,0.2,10.3
49.562395,3.790805,32.31,-2.24,-2.17,9.36
49.562471,3.790375,32.25,-2.11,-1.31,9.68
49.562471,3.790375,32.25,-1.64,-1.75,10.07
49.562545,3.789945,32.2,-1.28,-0.29,10.77
49.562545,3.789945,32.2,-0.18,0.42,10.9
49.562616,3.789516,32.12,-1.09,-0.48,10.21
49.562616,3.789516,32.12,-1.1,-1.02,8.86
49.562683,3.789085,32.16,-0.67,-0.06,10.96
49.562683,3.789085,32.16,-0.32,0.48,10.33
49.562751,3.788653,31.99,-1.25,0.57,10.02
49.562751,3.788653,31.99,-1.86,0.36,10.18
49.562815,3.788223,32.01,-0.77,-0.59,10.9
49.562815,3.788223,32.01,-2.23,-0.43,10.69
49.562878,3.787791,32.0,-2.15,-1.53,10.36
49.562878,3.787791,32.0,-1.69,-1.82,9.51
49.562938,3.787356,32.07,-1.47,-1.38,9.63
49.562938,3.787356,32.07,-1.63,-1.59,9.25
49.562997,3.78692,32.1,-1.43,0.07,10.22
49.562997,3.78692,32.1,-1.91,-0.95,9.4
49.563053,3.786484,32.15,-1.65,-0.32,9.74
49.563053,3.786484,32.15,-1.21,0.95,10.62
49.563102,3.786044,32.14,-2.11,0.07,10.06
49.563102,3.786044,32.14,-1.48,-0.19,9.56
49.56315,3.785605,32.19,-1.63,-1.21,9.96
49.56315,3.785605,32.19,-1.22,-0.28,10.49
49.563202,3.785168,32.18,-1.75,-0.56,11.29
49.563252,3.78473,32.13,-1.06,-0.76,10.08
49.563252,3.78473,32.13,-2.32,-1.02,9.84
49.563297,3.784302,31.94,-0.64,-0.2,8.63
49.563297,3.784302,31.94,-1.44,0.37,8.55
49.563345,3.783866,32.07,-1.66,-0.68,9.45
49.563345,3.783866,32.07,-1.14,-0.52,9.13
49.563396,3.783426,32.07,-1.97,-0.4,8.91
49.563396,3.783426,32.07,-1.84,-0.73,9.13
49.563442,3.782988,32.12,-0.99,0.46,9.83
49.563442,3.782988,32.12,-1.76,-0.05,9.9
49.563481,3.782542,32.2,-1.59,-1.22,10.26
49.563481,3.782542,32.2,-2.8,-0.89,10.65
49.563523,3.782097,32.23,-1.92,-0.97,10.44
49.563523,3.782097,32.23,-0.86,-0.55,10.24
49.563562,3.781657,32.35,-0.55,-0.11,9.89
49.563562,3.781657,32.35,-0.87,-0.11,8.72
49.563597,3.781216,32.4,-1.17,-0.21,10.52
49.563597,3.781216,32.4,-2.45,-1.54,10.64
49.563631,3.780773,32.4,-1.52,-1.32,10.5
49.563631,3.780773,32.4,-0.86,0.19,9.38
49.563661,3.780327,32.47,-0.16,0.06,10.38
49.563661,3.780327,32.47,-2.47,-1.07,10.35
49.563692,3.77988,32.54,-1.52,-0.59,10.32
49.563692,3.77988,32.54,-2.33,-1.28,8.83
49.563722,3.779429,32.58,-0.56,-0.15,9.81
49.563722,3.779429,32.58,0.3,-0.07,9.78
49.563751,3.778976,32.66,-1.58,-1.18,9.42
49.563751,3.778976,32.66,-1.9,-0.47,9.77
49.563775,3.778522,32.71,-1.04,-0.03,10.02
49.563775,3.778522,32.71,-0.91,0.99,10.15
49.563798,3.778071,32.78,-2.34,-1.69,9.05
49.563798,3.778071,32.78,-1.38,-0.94,9.38
49.56382,3.777616,32.88,0.46,-0.75,10.23
49.56382,3.777616,32.88,-2.61,-0.11,10.38
49.563837,3.777165,32.91,-1.33,0.24,9.09
49.563837,3.777165,32.91,-0.46,-0.84,9.75
49.563851,3.776713,32.99,-1.92,-1.75,10.71
49.563851,3.776713,32.99,-1.21,-0.35,10.34
49.563866,3.776256,33.11,-1.06,0.23,10.83
49.563866,3.776256,33.11,-2.04,0.15,9.57
49.563878,3.775799,33.2,-0.4,1.16,10.37
49.563878,3.775799,33.2,-1.96,-0.48,9.2
49.563887,3.775338,33.34,-1.65,-1.06,10.13
49.563896,3.774876,33.41,-3.49,-1.4,9.47
49.563896,3.774876,33.41,-0.9,-0.18,8.6
49.563902,3.774416,33.53,-2.38,-1.25,11.13
49.563902,3.774416,33.53,-1.36,-1.13,8.91
49.563901,3.773958,33.59,-2.27,-0.89,9.61
49.563901,3.773958,33.59,-0.94,-1.33,11.21
49.563894,3.773497,33.55,-2.83,-2.36,9.47
49.563894,3.773497,33.55,-0.71,-1.31,8.97
49.563888,3.773034,33.47,-1.9,-1.47,10.56
49.563888,3.773034,33.47,-1.51,0.38,9.17
49.563882,3.772571,33.36,-2.4,-0.82,8.62
49.563882,3.772571,33.36,-1.3,-0.53,8.8
49.563875,3.772111,33.25,-1.12,-0.12,10.82
49.563875,3.772111,33.25,-2.3,-1.7,9.87
49.563864,3.771656,32.95,-1.47,-0.45,10.01
49.563864,3.771656,32.95,-1.91,-0.46,10.64
49.563852,3.771205,32.84,-2.63,0.09,10.83
49.563852,3.771205,32.84,-1.82,0.13,9.33
49.563842,3.770753,32.67,-0.59,0.27,9.76
49.563842,3.770753,32.67,-1.05,0.53,11.11
49.563831,3.7703,32.57,-2.41,-0.51,11.63
49.563831,3.7703,32.57,-1.32,0.83,9.8
49.563821,3.76985,32.38,-1.82,-0.51,9.61
49.563821,3.76985,32.38,-1.7,-0.57,9.73
49.563811,3.769403,32.33,-0.85,-0.05,10.3
49.563811,3.769403,32.33,-2.32,-1.07,9.73
49.563805,3.768957,32.26,-1.75,-0.49,9.33
49.563805,3.768957,32.26,-0.99,-0.25,9.9
49.563798,3.768513,32.21,-0.25,0.68,9.3
49.563798,3.768513,32.21,-1.62,-1.52,9.2
49.563794,3.768067,32.18,-0.84,-0.24,10.24
49.563794,3.768067,32.18,-1.54,-1.29,9.13
49.563787,3.767625,32.06,-1.14,0.02,10.27
49.563787,3.767625,32.06,-1.77,-0.57,9.26
49.563777,3.767182,32.07,-0.47,0.76,10.99
49.563777,3.767182,32.07,-1.96,-0.1,10.9
49.563762,3.766739,32.1,-1.64,0.33,10.1
49.563762,3.766739,32.1,0.11,-0.67,10.39
49.563746,3.766295,32.06,-0.72,0.01,10.07
49.563746,3.766295,32.06,-1.82,-1.03,9.66
49.56373,3.765853,32.09,-1.51,-0.41,10.38
49.563712,3.765409,32.12,-2.4,-0.94,9.5
49.563712,3.765409,32.12,-3.35,-0.18,7.56
49.563695,3.764965,32.22,-1.8,0.23,9.54
49.563695,3.764965,32.22,-2.86,0.45,9.53
49.563673,3.764516,32.46,-0.53,0.04,9.48
49.563673,3.764516,32.46,-1.55,-0.88,8.49
49.563655,3.764068,32.33,-1.78,-0.27,10.18
49.563655,3.764068,32.33,-1.38,-0.93,9.73
49.56364,3.763624,32.2,-1.35,-0.19,9.0
49.56364,3.763624,32.2,-1.27,-0.71,8.63
49.563622,3.763183,31.92,-0.71,0.44,9.54
49.563622,3.763183,31.92,-1.2,-0.15,9.78
49.563606,3.762744,31.75,-1.81,-0.36,9.98
49.563606,3.762744,31.75,-1.79,-0.23,9.89
49.563588,3.762305,31.75,-1.81,-0.01,10.42
49.563588,3.762305,31.75,-1.87,-0.24,9.57
49.563571,3.761865,31.8,-1.62,-0.98,10.16
49.563571,3.761865,31.8,-1.69,-0.58,10.14
49.563558,3.761423,31.72,-1.55,0.0,9.59
49.563558,3.761423,31.72,-3.28,-1.84,10.37
49.563541,3.760986,31.62,-1.57,0.07,9.89
49.563541,3.760986,31.62,-0.95,-1.15,9.35
49.563524,3.76055,31.61,-0.99,2.2,10.97
49.563524,3.76055,31.61,-0.88,0.45,9.5
49.563507,3.760116,31.2,-0.89,0.74,9.91
49.563507,3.760116,31.2,-1.08,-0.06,10.68
49.563491,3.759689,30.77,-1.73,-0.38,11.42
49.563491,3.759689,30.77,-1.25,-0.26,9.33
49.563475,3.759264,30.45,-1.45,-0.23,10.11
49.563475,3.759264,30.45,-1.43,-0.34,9.46
49.56346,3.758849,29.85,0.0,-0.85,9.72
49.56346,3.758849,29.85,-1.32,0.97,9.34
49.563447,3.75844,29.43,-1.52,0.76,9.07
49.563447,3.75844,29.43,-2.65,-1.39,10.97
49.563438,3.758036,29.17,-1.59,-0.57,10.27
49.563438,3.758036,29.17,-2.21,-1.07,9.9
49.563427,3.757629,29.49,-2.49,0.04,9.54
49.563427,3.757629,29.49,-2.22,-0.46,9.49
49.563415,3.757222,29.93,-2.6,0.46,10.78
49.563415,3.757222,29.93,-1.49,1.44,10.72
49.563397,3.756806,30.48,-0.87,0.22,8.81
49.563377,3.756383,30.89,-2.05,-0.67,9.93
49.563377,3.756383,30.89,-1.61,1.71,9.12
49.563363,3.755953,31.42,-2.13,0.42,10.39
49.563363,3.755953,31.42,-1.03,-0.12,9.73
49.56336,3.755518,31.8,-1.65,-0.81,8.85
49.56336,3.755518,31.8,-0.87,0.56,9.73
49.563357,3.755078,32.25,-1.68,0.15,9.8
49.563357,3.755078,32.25,-2.85,-0.16,9.72
49.563347,3.754627,32.67,-2.88,-1.08,9.02
49.563347,3.754627,32.67,-2.22,0.28,9.27
49.563343,3.754173,32.98,-1.37,0.52,10.32
49.563343,3.754173,32.98,-3.55,-0.34,10.4
49.563346,3.753716,33.39,-2.2,-0.59,9.6
49.563346,3.753716,33.39,-1.64,-0.59,9.8
49.563349,3.753252,33.61,-2.07,0.05,10.18
49.563349,3.753252,33.61,-1.01,-0.24,9.39
49.563353,3.752783,33.67,0.41,1.33,10.21
49.563353,3.752783,33.67,-0.81,0.05,9.26
49.563358,3.752317,33.47,-3.17,-1.36,9.2
49.563358,3.752317,33.47,-0.91,1.35,10.14
49.563363,3.751855,33.47,-1.71,0.09,9.92
49.563363,3.751855,33.47,-1.37,-0.19,8.75
49.563374,3.751391,33.44,0.4,1.43,9.73
49.563374,3.751391,33.44,-1.72,0.02,10.21
49.563386,3.75093,33.48,-2.2,-0.47,9.67
49.563386,3.75093,33.48,-1.54,-0.44,9.84
49.563401,3.750468,33.51,-1.92,-0.25,9.61
49.563401,3.750468,33.51,-1.13,-0.12,8.04
49.563418,3.750004,33.45,-2.39,0.07,9.96
49.563418,3.750004,33.45,-1.04,-0.22,9.39
49.563439,3.749538,33.47,-1.75,0.2,9.59
49.563439,3.749538,33.47,-0.46,1.02,9.82
49.563466,3.749077,33.41,-2.94,-0.62,10.39
49.563466,3.749077,33.41,-1.87,0.42,9.99
49.563495,3.74862,33.36,-0.99,0.23,8.91
49.563495,3.74862,33.36,-1.41,1.19,9.72
49.563526,3.748163,33.3,-1.46,-0.8,10.65
49.563526,3.748163,33.3,-1.92,-0.29,9.0
49.563559,3.747707,33.3,-0.49,0.6,10.85
49.563559,3.747707,33.3,-0.82,-0.53,10.34
49.563596,3.747253,33.36,-1.11,-0.61,9.26
49.563628,3.746795,33.37,-2.95,-1.04,9.65
49.563628,3.746795,33.37,-2.32,-0.54,9.94
49.563665,3.746339,33.41,-1.65,-0.38,9.96
49.563665,3.746339,33.41,-2.16,-0.77,9.86
49.563699,3.745881,33.42,-0.89,0.3,11.0
49.563699,3.745881,33.42,-1.19,0.9,11.16
49.563733,3.745424,33.36,-1.34,-0.53,9.5
49.563733,3.745424,33.36,-1.59,-0.52,9.24
49.56377,3.744965,33.35,-0.62,0.9,10.5
49.56377,3.744965,33.35,-0.95,-0.32,9.39
49.563811,3.744512,33.41,-0.83,-0.49,8.46
49.563811,3.744512,33.41,-2.38,-0.04,9.07
49.563851,3.74406,33.41,-1.78,-0.91,9.23
49.563851,3.74406,33.41,-1.03,-0.14,9.96
49.563891,3.743602,33.38,-2.53,-0.56,9.02
49.563891,3.743602,33.38,-1.05,-0.05,9.43
49.563935,3.74314,33.3,-2.32,0.0,11.05
49.563935,3.74314,33.3,-0.96,1.24,10.17
49.563983,3.742687,33.32,-2.36,0.8,9.62
49.563983,3.742687,33.32,-0.94,0.76,10.5
49.564034,3.742232,33.34,-3.33,-1.68,10.46
49.564034,3.742232,33.34,-1.62,-0.18,10.34
49.564089,3.741777,33.46,-1.57,-0.65,10.18
49.564089,3.741777,33.46,-0.94,-0.54,9.68
49.564147,3.741325,33.45,-1.93,-0.53,9.72
49.564147,3.741325,33.45,-0.65,0.5,9.88
49.564203,3.74087,33.47,-1.36,-0.59,8.5
49.564203,3.74087,33.47,-0.24,0.32,9.46
49.564261,3.740415,33.49,-2.15,-0.11,10.42
49.564261,3.740415,33.49,-1.07,0.78,9.01
49.564321,3.739961,33.47,-2.47,0.23,10.69
49.564321,3.739961,33.47,-1.24,0.25,10.4
49.564382,3.739508,33.51,0.15,1.58,10.27
49.564382,3.739508,33.51,-1.61,0.17,8.35
49.564445,3.739055,33.53,-2.82,-0.06,9.4
49.564445,3.739055,33.53,-1.78,0.55,11.29
49.564514,3.7386,33.57,-1.92,-0.63,10.46
49.564514,3.7386,33.57,-1.81,-0.09,10.47
49.564583,3.73815,33.62,-1.24,0.31,10.14
49.564583,3.73815,33.62,-1.64,-1.05,9.69
49.564652,3.737697,33.59,-2.05,-0.37,9.62
49.564652,3.737697,33.59,-1.18,0.57,10.05
49.564725,3.737247,33.59,-3.17,-0.94,9.7
49.564801,3.736797,33.58,-0.45,1.95,11.72
49.564801,3.736797,33.58,-2.52,-1.13,9.22
49.564879,3.736348,33.66,0.23,1.19,10.33
49.564879,3.736348,33.66,-1.22,0.49,8.98
49.564955,3.735903,33.24,1.12,0.38,11.23
49.564955,3.735903,33.24,-1.78,-0.64,10.07
49.565033,3.735464,32.63,-1.51,0.6,10.41
49.565033,3.735464,32.63,-1.99,-0.64,9.81
49.565112,3.735034,32.25,-1.07,0.53,9.16
49.565112,3.735034,32.25,-1.72,0.12,10.99
49.56519,3.734608,32.07,-1.39,0.02,8.86
49.56519,3.734608,32.07,-0.87,0.57,10.86
49.565269,3.734182,32.09,-2.6,0.4,9.78
49.565269,3.734182,32.09,-2.46,-0.25,10.64
49.565353,3.733757,32.23,-0.71,-0.76,8.96
49.565353,3.733757,32.23,-1.2,-0.57,10.09
49.565442,3.73333,32.35,-1.68,0.69,9.98
49.565442,3.73333,32.35,-1.34,0.68,10.27
49.565528,3.732903,32.32,-1.67,-0.4,10.02
49.565528,3.732903,32.32,-2.54,0.09,9.52
49.565614,3.732473,32.46,-1.76,-0.09,9.95
49.565614,3.732473,32.46,-1.46,-0.56,9.89
49.565705,3.732044,32.71,-1.15,0.51,8.56
49.565705,3.732044,32.71,-1.75,-0.46,10.63
49.5658,3.731613,32.93,-2.23,-0.24,10.24
49.5658,3.731613,32.93,-1.01,-0.52,9.52
49.565896,3.731179,33.09,-1.76,-0.28,9.68
49.565896,3.731179,33.09,-1.62,-0.34,9.34
49.565995,3.730746,33.29,-0.07,1.08,10.63
49.565995,3.730746,33.29,-2.08,0.25,10.54
49.566093,3.730314,33.29,-0.68,0.21,10.61
49.566093,3.730314,33.29,-0.01,0.46,9.92
49.566197,3.729886,32.72,-2.1,-0.91,9.3
49.566197,3.729886,32.72,-1.19,0.46,9.1
49.566301,3.729467,32.35,-2.01,0.81,9.34
49.566301,3.729467,32.35,-2.21,-0.19,9.71
49.566405,3.729052,32.28,-1.89,0.3,9.05
49.566405,3.729052,32.28,-2.15,-0.53,10.39
49.566513,3.728638,32.51,-2.72,-0.81,9.38
49.566624,3.72822,32.6,-2.3,-0.19,9.62
49.566624,3.72822,32.6,-1.02,-0.28,8.58
49.566735,3.727802,32.71,-1.58,-0.36,8.53
49.566735,3.727802,32.71,-2.43,-1.25,9.35
49.566849,3.727384,32.75,-1.23,0.56,9.6
49.566849,3.727384,32.75,-0.4,0.88,11.48
49.566965,3.726969,32.84,-2.62,-1.59,10.41
49.566965,3.726969,32.84,-1.17,-0.52,10.47
49.567079,3.726555,32.89,-1.12,-0.25,9.74
49.567079,3.726555,32.89,-1.71,-0.47,9.26
49.567197,3.726137,32.97,-1.32,0.27,9.71
49.567197,3.726137,32.97,-1.68,-0.87,9.34
49.567319,3.72572,32.97,-1.85,-0.86,9.99
49.567319,3.72572,32.97,-2.26,-0.51,10.07
49.56744,3.725302,32.93,-1.78,-0.51,9.86
49.56744,3.725302,32.93,-0.63,0.43,8.73
49.567563,3.724889,32.86,-2.41,0.07,10.15
49.567563,3.724889,32.86,-2.29,0.45,8.55
49.56769,3.724481,32.77,-0.62,0.43,9.48
49.56769,3.724481,32.77,-0.54,-1.16,9.68
49.567819,3.724075,32.75,-1.87,-0.55,10.46
49.567819,3.724075,32.75,-0.68,-0.03,9.9
49.567946,3.723668,32.64,-1.83,-0.8,10.12
49.567946,3.723668,32.64,-1.63,-1.02,10.23
49.568075,3.723264,32.54,-1.65,-0.62,10.39
49.568075,3.723264,32.54,-1.51,-0.87,9.97
49.568205,3.722864,32.53,-2.06,-0.34,10.53
49.568205,3.722864,32.53,-2.21,-0.79,9.97
49.56834,3.722463,32.61,-1.54,-0.23,9.22
49.56834,3.722463,32.61,-1.47,0.6,8.83
49.568476,3.722062,32.66,-0.91,0.58,11.21
49.568476,3.722062,32.66,-1.94,-0.43,10.09
49.568607,3.721657,32.77,-1.58,-0.69,10.78
49.568607,3.721657,32.77,-0.5,-0.08,10.0
49.568749,3.721247,32.85,-2.34,-0.58,9.05
49.568749,3.721247,32.85,-3.23,-1.37,10.86
49.568893,3.720846,32.93,-1.3,-0.18,8.08
49.568893,3.720846,32.93,-1.89,-0.87,8.48
49.569039,3.720445,32.98,-2.42,-1.11,10.24
49.569039,3.720445,32.98,-0.93,-0.08,10.4
49.569187,3.720046,33.12,-1.7,-0.28,9.75
49.569332,3.719647,33.29,-1.34,0.54,9.57
49.569332,3.719647,33.29,-0.68,-0.32,9.57
49.569481,3.719248,33.4,-1.9,0.02,10.02
49.569481,3.719248,33.4,-1.68,-0.13,10.94
49.56963,3.718853,33.3,-1.61,-0.58,9.05
49.56963,3.718853,33.3,-1.17,1.0,11.89
49.569779,3.718456,33.37,-3.09,-0.92,9.84
49.569779,3.718456,33.37,-0.4,0.68,10.5
49.569932,3.718059,33.42,-1.97,-0.56,9.79
49.569932,3.718059,33.42,-1.5,0.73,9.87
49.570088,3.717664,33.44,-2.39,0.1,10.21
49.570088,3.717664,33.44,-0.76,-0.07,10.12
49.570251,3.71727,33.49,-0.32,0.89,10.65
49.570251,3.71727,33.49,-0.75,0.54,10.01
49.570417,3.716881,33.51,-2.46,-0.8,8.99
49.570417,3.716881,33.51,-1.59,-0.33,8.97
49.570581,3.716494,33.54,-0.82,-0.01,9.03
49.570581,3.716494,33.54,-1.5,-0.52,8.57
49.570745,3.716106,33.57,-1.38,1.25,11.07
49.570745,3.716106,33.57,-2.23,0.13,9.92
49.570911,3.715715,33.59,-3.82,-1.05,8.9
49.570911,3.715715,33.59,-1.72,0.23,10.24
49.57108,3.715326,33.64,-2.81,-0.13,10.09
49.57108,3.715326,33.64,-0.41,1.16,11.25
49.57125,3.714935,33.67,-2.55,-0.46,10.66
49.57125,3.714935,33.67,-1.13,0.94,11.25
49.571425,3.714554,33.77,-0.22,0.94,9.46
49.571425,3.714554,33.77,-1.54,0.16,9.38
49.571599,3.714174,33.78,-1.74,0.23,8.65
49.571599,3.714174,33.78,-2.46,-0.85,10.43
49.571775,3.713795,33.73,-1.66,0.29,9.35
49.571775,3.713795,33.73,-1.63,-0.28,9.63
49.571952,3.713419,33.7,-1.35,0.54,9.34
49.571952,3.713419,33.7,-0.57,-0.51,9.45
49.572131,3.713047,33.67,-2.17,-0.23,9.11
49.572131,3.713047,33.67,-0.02,-0.52,9.2
49.572311,3.712674,33.68,-0.81,0.43,10.38
49.572311,3.712674,33.68,-2.29,-0.51,8.71
49.572493,3.712302,33.79,-0.87,1.03,9.99
49.572493,3.712302,33.79,-2.6,-0.85,9.38
49.572676,3.711937,33.83,-1.13,0.76,11.24
49.572676,3.711937,33.83,-2.19,-1.29,9.81
49.572863,3.711562,33.86,-0.45,0.52,9.96
49.573049,3.711192,33.99,-0.79,-0.34,10.23
49.573049,3.711192,33.99,-2.04,-0.47,9.52
49.573237,3.710822,33.86,-0.86,-0.02,11.08
49.573237,3.710822,33.86,-1.86,-0.79,10.78
49.573423,3.710455,33.68,-1.32,1.29,10.79
49.573423,3.710455,33.68,-1.34,0.45,9.78
49.573612,3.710086,33.68,-0.47,0.82,11.08
49.573612,3.710086,33.68,-1.68,0.44,9.49
49.573801,3.709721,33.66,-2.04,-0.87,10.1
49.573801,3.709721,33.66,-2.07,0.8,10.32
49.573993,3.709364,33.59,-1.35,-0.66,10.35
49.573993,3.709364,33.59,-0.66,-0.35,9.51
49.574186,3.709001,33.27,-1.09,-0.05,11.6
49.574186,3.709001,33.27,-1.43,0.61,10.2
49.574378,3.708645,33.19,-1.16,0.95,11.37
49.574378,3.708645,33.19,-1.31,-0.58,8.9
49.574568,3.708291,33.17,-1.33,0.0,9.39
49.574568,3.708291,33.17,-0.9,0.17,11.12
49.574755,3.707936,33.16,-2.38,-1.01,9.97
49.574755,3.707936,33.16,-2.99,-1.25,10.25
49.574944,3.707583,33.09,-1.92,-0.68,8.8
49.574944,3.707583,33.09,-1.14,-0.98,10.37
49.575132,3.707233,32.93,-1.31,-0.71,10.11
49.575132,3.707233,32.93,-2.01,-1.21,10.29
49.57532,3.706883,32.77,-0.73,0.37,9.3
49.57532,3.706883,32.77,-0.8,0.14,9.06
49.575506,3.706538,32.7,0.29,0.45,10.74
49.575506,3.706538,32.7,-1.24,0.19,10.58
49.57569,3.706193,32.31,-0.66,-0.01,8.96
49.57569,3.706193,32.31,-1.22,-0.52,10.79
49.575875,3.705854,32.15,-1.48,-0.5,9.29
49.575875,3.705854,32.15,-1.53,0.29,8.84
49.57606,3.705517,32.12,-1.82,0.52,9.93
49.57606,3.705517,32.12,-1.33,-0.58,8.78
49.576248,3.705177,31.99,-1.75,-1.15,9.62
49.576248,3.705177,31.99,-1.21,0.58,11.66
49.576435,3.704838,31.91,-1.17,-0.13,8.34
49.576435,3.704838,31.91,-1.29,-0.31,9.11
49.576617,3.704501,31.8,-1.62,-0.83,8.9
49.576617,3.704501,31.8,-1.75,-0.22,9.85
49.576801,3.704166,31.73,-1.64,0.47,9.2
49.576984,3.70383,31.72,-1.33,-0.25,8.67
49.576984,3.70383,31.72,-3.03,-1.38,9.8
49.577167,3.703493,31.67,-1.76,-0.84,9.73
49.577167,3.703493,31.67,-1.95,0.27,11.09
49.577348,3.703159,31.58,-1.94,-1.56,10.13
49.577348,3.703159,31.58,-2.16,-0.3,10.65
49.577525,3.702823,31.6,-2.17,-0.36,10.86
49.577525,3.702823,31.6,-0.92,-1.37,9.76
49.577703,3.702485,31.58,-0.54,0.66,11.16
49.577703,3.702485,31.58,-1.46,-0.74,9.77
49.577883,3.702148,31.55,-1.07,0.34,10.03
49.577883,3.702148,31.55,-1.72,-0.13,10.08
49.578064,3.701812,31.55,-1.01,1.16,11.34
49.578064,3.701812,31.55,-1.08,0.27,9.09
49.578244,3.701474,31.55,-1.5,-0.66,9.15
49.578244,3.701474,31.55,-2.09,-1.17,8.78
49.578428,3.701138,31.59,-1.25,0.41,10.04
49.578428,3.701138,31.59,-2.8,0.19,10.15
49.578613,3.700804,31.67,-2.08,-0.55,9.1
49.578613,3.700804,31.67,-1.38,-0.77,9.06
49.578796,3.700468,31.79,-1.33,-0.24,11.42
49.578796,3.700468,31.79,-2.02,-0.45,9.94
49.578976,3.700128,31.87,-1.57,-0.07,9.23
49.578976,3.700128,31.87,-1.33,0.05,9.77
49.579163,3.699789,32.07,-2.73,-0.28,9.18
49.579163,3.699789,32.07,-2.09,0.35,9.43
49.579347,3.699448,32.27,-1.47,0.87,10.07
49.579347,3.699448,32.27,-0.51,0.23,9.75
49.579534,3.699104,32.49,-2.26,-0.69,9.17
49.579534,3.699104,32.49,-1.48,-0.51,8.48
49.579726,3.698762,32.63,-2.1,-1.15,8.79
49.579726,3.698762,32.63,-1.34,-0.11,8.61
49.579911,3.698416,32.65,-1.91,-0.38,10.65
49.579911,3.698416,32.65,-2.87,-1.2,9.89
49.580098,3.698068,32.84,-0.71,0.67,9.93
49.580098,3.698068,32.84,-2.15,-0.66,10.47
49.580286,3.69772,32.9,-2.97,-1.4,10.12
49.580286,3.69772,32.9,-1.46,0.85,9.38
49.580475,3.697368,33.0,-1.93,-1.39,10.1
49.580665,3.697015,33.02,-1.18,0.15,9.8
49.580665,3.697015,33.02,-1.54,-0.55,9.65
49.580852,3.696665,33.06,-2.74,-0.25,10.5
49.580852,3.696665,33.06,-1.15,0.25,8.67
49.581039,3.69631,33.09,-0.43,-0.03,9.26
49.581039,3.69631,33.09,-2.22,-0.45,9.81
49.581229,3.695957,33.12,-1.54,0.42,10.56
49.581229,3.695957,33.12,-1.92,-0.12,9.94
49.58142,3.695603,33.16,-2.04,-0.31,8.14
49.58142,3.695603,33.16,-2.06,0.03,7.6
49.581615,3.695248,33.26,-3.07,-0.62,11.4
49.581615,3.695248,33.26,-0.09,1.11,10.23
49.581812,3.694895,33.38,-1.95,-1.56,8.68
49.581812,3.694895,33.38,-1.61,-0.42,9.29
49.582005,3.694536,33.46,-2.87,-0.96,10.34
49.582005,3.694536,33.46,-1.37,0.83,11.23
49.582201,3.694181,33.53,-1.92,-0.76,9.46
49.582201,3.694181,33.53,-1.21,-0.34,9.71
49.582391,3.693824,33.29,-1.57,-0.2,10.71
49.582391,3.693824,33.29,-0.11,-0.79,9.73
49.582578,3.693475,32.74,-0.2,-0.51,8.98
49.582578,3.693475,32.74,-1.63,-1.05,9.17
49.582766,3.693132,32.58,-0.78,0.34,10.37
49.582766,3.693132,32.58,-1.44,0.13,9.94
49.582956,3.69279,32.65,-1.19,0.74,10.64
49.582956,3.69279,32.65,-2.82,-1.2,9.91
49.583145,3.692444,32.67,-0.74,0.75,9.73
49.583145,3.692444,32.67,-1.43,0.53,9.73
49.583332,3.692095,32.78,-1.22,0.82,9.81
49.583332,3.692095,32.78,-1.35,-0.45,10.01
49.583526,3.691747,32.83,-1.09,-0.09,9.12
49.583526,3.691747,32.83,-1.55,1.04,10.01
49.58372,3.691398,33.0,-1.49,0.48,10.12
49.58372,3.691398,33.0,-1.62,0.18,8.92
49.58391,3.691053,33.07,-2.16,-0.38,8.2
49.58391,3.691053,33.07,-1.29,0.26,9.1
49.5841,3.690703,33.12,-1.06,-0.64,9.46
49.5841,3.690703,33.12,-3.0,-1.71,11.25
49.584293,3.690353,33.21,-1.65,-0.18,8.5
49.584293,3.690353,33.21,-1.04,1.06,8.9
49.584487,3.690002,33.29,-1.4,1.33,10.25
49.584684,3.689657,33.32,-2.13,0.36,9.35
49.584684,3.689657,33.32,-1.49,0.19,9.89
49.584882,3.689307,33.47,0.12,1.48,10.76
49.584882,3.689307,33.47,-1.66,0.21,9.64
49.585082,3.688959,33.49,-0.89,-0.74,9.02
49.585082,3.688959,33.49,-1.72,-0.72,9.98
49.58528,3.688612,33.57,-1.94,-0.05,9.22
49.58528,3.688612,33.57,-2.47,-0.64,11.09
49.585481,3.688264,33.6,-0.23,1.04,10.38
49.585481,3.688264,33.6,-2.66,-0.23,10.34
49.585687,3.687914,33.61,-0.46,0.85,10.42
49.585687,3.687914,33.61,-0.89,0.38,9.44
49.585892,3.687568,33.66,-2.29,-0.65,10.64
49.585892,3.687568,33.66,-1.3,0.07,9.47
49.586096,3.687221,33.65,-2.45,-0.92,10.9
49.586096,3.687221,33.65,-0.37,0.48,9.16
49.586299,3.686877,33.8,-2.57,-0.57,10.88
49.586299,3.686877,33.8,-0.88,1.1,10.16
49.586502,3.686536,33.81,-1.08,-0.72,8.9
49.586502,3.686536,33.81,-1.47,0.23,10.08
49.586708,3.686191,33.83,-1.08,-0.54,9.65
49.586708,3.686191,33.83,-1.57,0.65,12.08
49.586918,3.685848,33.71,-0.69,-0.14,10.37
49.586918,3.685848,33.71,-1.19,-1.14,8.97
49.587129,3.685511,33.08,-0.4,0.29,9.53
49.587129,3.685511,33.08,-1.61,-0.03,11.13
49.587336,3.685182,32.6,-1.35,-0.81,9.87
49.587336,3.685182,32.6,-1.42,0.24,11.55
49.587535,3.684859,32.33,-1.24,-0.07,9.5
49.587535,3.684859,32.33,-1.09,0.34,8.38
49.587735,3.684537,32.3,-0.29,-0.11,10.05
49.587735,3.684537,32.3,-1.33,0.11,9.49
49.587936,3.684218,32.18,-1.98,-0.46,9.43
49.587936,3.684218,32.18,-1.76,-0.44,8.29
49.588138,3.683899,32.18,-0.78,-0.77,10.84
49.588138,3.683899,32.18,-0.95,-1.08,10.33
49.58834,3.683583,31.79,-0.91,-0.29,10.44
49.58834,3.683583,31.79,-1.04,-0.6,10.09
49.588539,3.683273,31.27,-2.22,0.11,9.36
49.588539,3.683273,31.27,-1.33,0.31,10.77
49.588737,3.682967,31.27,-1.59,-1.19,8.9
49.588935,3.682659,31.34,-1.6,0.8,9.71
49.588935,3.682659,31.34,-1.86,-0.33,10.18
49.589135,3.682352,31.66,-2.25,0.53,10.57
49.589135,3.682352,31.66,-1.74,0.36,9.88
49.58934,3.682044,31.99,-1.79,-0.4,9.68
49.58934,3.682044,31.99,-2.88,-0.45,10.11
49.589549,3.681737,32.42,-2.39,0.28,10.58
49.589549,3.681737,32.42,-1.93,-0.9,10.29
49.58976,3.681427,32.57,-1.78,-0.51,8.9
49.58976,3.681427,32.57,-1.14,0.12,9.68
49.589971,3.681111,32.82,-2.42,-0.05,10.08
49.589971,3.681111,32.82,-2.93,-1.19,8.6
49.590182,3.680791,33.11,-1.35,0.57,10.41
49.590182,3.680791,33.11,-2.11,-0.78,10.68
49.590397,3.68047,33.25,-0.59,0.35,9.99
49.590397,3.68047,33.25,-2.08,-0.93,9.32
49.590613,3.680152,33.3,-1.45,-0.94,8.06
49.590613,3.680152,33.3,-2.33,-1.21,9.88
49.59083,3.679835,33.41,-1.79,0.3,9.37
49.59083,3.679835,33.41,-2.04,0.56,10.18
49.591049,3.679516,33.54,-0.33,-0.69,8.34
49.591049,3.679516,33.54,-0.26,0.57,9.63
49.59127,3.6792,33.57,-1.2,0.36,9.96
49.59127,3.6792,33.57,-2.23,-0.36,10.91
49.591488,3.678882,33.6,-2.39,-0.2,9.08
49.591488,3.678882,33.6,-1.77,-0.55,10.89
49.591709,3.678569,33.32,-0.92,-0.73,8.33
49.591709,3.678569,33.32,0.45,1.2,10.86
49.59193,3.67826,33.13,-1.92,-1.24,9.37
49.59193,3.67826,33.13,-1.18,0.04,8.95
49.592148,3.677955,32.6,-1.08,-0.46,9.15
49.592148,3.677955,32.6,-1.15,0.57,9.91
49.592365,3.677652,32.63,-1.58,-0.72,11.49
49.592365,3.677652,32.63,-1.13,-0.11,9.82
49.592584,3.677352,32.67,-1.18,-0.66,9.54
49.592584,3.677352,32.67,-2.67,-0.37,9.68
49.592806,3.677054,32.71,-1.41,0.14,9.39
49.592806,3.677054,32.71,-1.6,1.04,9.82
49.593025,3.676752,32.7,-1.24,0.6,10.52
49.593025,3.676752,32.7,-1.77,-1.43,9.19
49.593244,3.676451,32.71,-2.16,-0.54,9.26
49.593244,3.676451,32.71,-0.77,-0.26,9.09
49.593463,3.67615,32.76,-0.56,0.53,10.06
49.593463,3.67615,32.76,-2.07,0.54,10.54
49.593683,3.675849,32.76,-1.34,-0.23,10.13
49.593906,3.675551,32.9,-1.79,-0.69,9.78
49.593906,3.675551,32.9,-1.98,0.33,10.22
49.594129,3.675252,32.95,-1.87,-0.14,9.41
49.594129,3.675252,32.95,-1.59,-0.45,8.7
49.594353,3.674953,33.02,-1.7,-0.57,9.97
49.594353,3.674953,33.02,-1.32,-0.07,9.73
49.594577,3.674652,33.06,-0.76,0.62,10.32
49.594577,3.674652,33.06,-1.97,0.37,10.67
49.594801,3.674351,33.11,-1.24,-0.65,8.34
49.594801,3.674351,33.11,-0.27,0.49,10.46
49.595024,3.674048,33.15,-2.39,-1.14,11.1
49.595024,3.674048,33.15,-0.89,0.87,10.87
49.595249,3.673747,33.18,-1.87,-0.87,9.38
49.595249,3.673747,33.18,-1.1,-0.44,9.26
49.595474,3.673444,33.25,-2.17,-0.86,10.04
49.595474,3.673444,33.25,-1.63,-1.11,10.41
49.595701,3.673141,33.31,-0.91,-0.27,9.4
49.595701,3.673141,33.31,-1.63,-0.85,9.89
49.595928,3.67284,33.38,-0.57,-0.09,10.51
49.595928,3.67284,33.38,-2.38,-0.6,10.07
49.596155,3.672537,33.41,-0.38,0.88,10.39
49.596155,3.672537,33.41,-1.89,-0.83,9.47
49.596382,3.672233,33.4,-1.51,-0.36,10.57
49.596382,3.672233,33.4,-2.55,-0.91,9.71
49.596606,3.671925,33.4,-0.23,0.77,10.85
49.596606,3.671925,33.4,-3.29,-1.2,9.54
49.596832,3.671621,33.44,-1.25,-0.85,9.63
49.596832,3.671621,33.44,-1.83,-0.33,10.22
49.597056,3.671314,33.45,-0.71,-0.63,8.86
49.597056,3.671314,33.45,-2.04,-0.08,9.79
49.597283,3.671011,33.5,-0.67,0.49,10.42
49.597283,3.671011,33.5,-2.41,-0.43,10.68
49.597509,3.670706,33.5,-0.65,-0.82,9.6
49.597509,3.670706,33.5,-2.13,-1.45,9.41
49.597735,3.670399,33.57,-1.36,-0.27,9.99
49.597735,3.670399,33.57,-2.01,-0.08,9.74
49.597962,3.670094,33.6,-0.93,1.16,11.32
49.597962,3.670094,33.6,-1.04,0.84,10.86
49.598191,3.669791,33.63,-1.11,0.57,10.94
49.598191,3.669791,33.63,-1.49,0.28,9.63
49.59842,3.669486,33.79,-0.2,0.12,10.71
49.59842,3.669486,33.79,-2.56,-0.23,9.23
49.598649,3.669178,33.71,-2.04,-1.43,9.93
49.598876,3.66887,33.69,-0.98,0.68,10.31
49.598876,3.66887,33.69,-2.84,-1.17,9.87
49.599103,3.668559,33.81,-0.76,0.4,10.5
49.599103,3.668559,33.81,-2.31,-1.03,9.97
49.59933,3.668247,33.85,0.29,1.18,10.52
49.59933,3.668247,33.85,-1.08,-1.06,9.05
49.599558,3.667934,33.9,-2.55,-0.47,9.52
49.599558,3.667934,33.9,-0.99,-0.39,10.58
49.599787,3.667624,33.91,-1.43,-0.4,9.82
49.599787,3.667624,33.91,0.05,0.28,9.56
49.600016,3.667313,33.73,-1.7,-0.45,8.92
49.600016,3.667313,33.73,-0.73,0.35,10.51
49.600239,3.667003,33.17,-1.92,-0.65,9.9
49.600239,3.667003,33.17,-1.26,-0.09,10.49
49.600462,3.666697,33.14,-2.04,-1.1,9.75
49.600462,3.666697,33.14,-1.37,0.21,9.99
49.600684,3.666392,33.07,-0.98,-0.39,10.2
49.600684,3.666392,33.07,-1.78,-0.15,9.96
49.60091,3.666088,33.12,-1.45,-0.95,9.72
49.60091,3.666088,33.12,-2.02,-0.45,8.82
49.601131,3.665778,33.14,-1.79,0.52,10.11
49.601131,3.665778,33.14,-1.4,0.65,11.42
49.601352,3.665469,33.16,-1.79,-1.51,10.31
49.601352,3.665469,33.16,-1.34,-0.41,10.12
49.601569,3.665157,33.15,-1.52,0.18,8.3
49.601569,3.665157,33.15,-1.62,0.56,9.92
49.601785,3.664844,33.19,-0.61,-0.22,10.42
49.601785,3.664844,33.19,-2.27,-1.09,8.75
49.602002,3.664532,33.15,-2.18,-0.79,9.59
49.602002,3.664532,33.15,-2.11,-1.19,8.7
49.602219,3.66422,33.15,-1.92,-1.73,10.43
49.602219,3.66422,33.15,-0.8,0.91,11.27
49.602439,3.663909,33.12,-2.14,-0.7,8.78
49.602439,3.663909,33.12,-1.24,-1.12,9.45
49.602659,3.663598,33.12,-1.1,-0.81,9.85
49.602659,3.663598,33.12,-1.67,0.4,10.72
49.602875,3.663285,33.1,-1.49,0.15,10.22
49.602875,3.663285,33.1,-1.63,-0.49,9.0
49.603096,3.662971,33.11,-1.16,0.13,9.73
49.603096,3.662971,33.11,-1.77,-0.06,10.3
49.603312,3.662658,33.11,-3.44,-1.39,10.25
49.603312,3.662658,33.11,-1.13,-0.79,8.87
49.603532,3.662345,33.07,-2.34,-0.6,8.92
49.603532,3.662345,33.07,-0.36,0.36,9.51
49.603746,3.662031,33.02,-1.95,-0.17,10.12
49.603958,3.661715,33.03,-2.26,-1.21,9.81
49.603958,3.661715,33.03,-2.45,-1.47,9.71
49.604172,3.661402,33.02,-1.22,-0.45,9.63
49.604172,3.661402,33.02,-2.45,-0.79,9.69
49.604387,3.661083,32.94,-1.37,-0.49,10.07
49.604387,3.661083,32.94,-0.86,-0.4,10.39
49.604596,3.660768,32.92,-2.62,-1.12,10.69
49.604596,3.660768,32.92,-2.81,-1.47,10.1
49.604809,3.660451,32.93,-1.25,0.39,10.86
49.604809,3.660451,32.93,-2.88,-0.13,10.36
49.605025,3.660135,33.02,-2.59,-0.3,9.54
49.605025,3.660135,33.02,-0.77,0.06,9.32
49.605239,3.659817,33.07,-2.18,-1.05,9.73
49.605239,3.659817,33.07,-1.88,0.36,9.5
49.605457,3.6595,33.18,-1.08,0.73,9.43
49.605457,3.6595,33.18,-0.89,0.04,9.63
49.605674,3.659179,33.26,-2.09,-0.89,9.96
49.605674,3.659179,33.26,-2.08,-0.56,10.07
49.60589,3.658856,33.31,-1.42,0.18,10.42
49.60589,3.658856,33.31,-1.86,-0.27,10.13
49.606101,3.658534,33.34,-1.43,-0.51,9.8
49.606101,3.658534,33.34,-1.85,-1.02,8.94
49.606313,3.658214,33.34,-0.51,-0.51,9.84
49.606313,3.658214,33.34,-1.45,0.01,9.32
49.606529,3.657892,33.42,-0.75,0.5,8.61
49.606529,3.657892,33.42,-2.75,-1.14,9.28
49.606744,3.657562,33.5,-0.83,-0.71,9.48
49.606744,3.657562,33.5,-1.78,-0.19,10.67
49.606957,3.657236,33.56,-1.77,-0.43,8.83
49.606957,3.657236,33.56,-2.76,-1.13,9.3
49.607172,3.656912,33.52,-0.58,0.57,10.21
49.607172,3.656912,33.52,-2.17,-1.03,9.63
49.607388,3.656585,33.61,-1.35,0.11,10.26
49.607388,3.656585,33.61,-2.15,-0.55,9.17
49.607602,3.656255,33.66,-1.81,-0.07,10.34
49.607602,3.656255,33.66,-0.91,0.39,9.84
49.607817,3.655923,33.77,-2.45,-0.1,9.98
49.607817,3.655923,33.77,-1.6,0.06,10.52
49.608031,3.655596,33.84,-2.36,-0.46,9.94
49.608031,3.655596,33.84,-0.58,0.8,10.42
49.608247,3.655265,33.81,-0.27,-0.19,9.21
49.608462,3.654937,33.88,-2.16,-1.19,9.25
49.608462,3.654937,33.88,-1.4,-0.58,9.17
49.608682,3.654605,33.89,-1.79,-0.17,8.89
49.608682,3.654605,33.89,-2.29,-0.24,11.25
49.608899,3.654271,33.88,-0.24,1.0,11.22
49.608899,3.654271,33.88,-2.4,-0.96,10.75
49.609113,3.65394,33.79,-1.51,-0.82,9.36
49.609113,3.65394,33.79,-2.29,-1.07,9.7
49.609327,3.653608,33.83,-1.75,-0.19,9.74
49.609327,3.653608,33.83,-0.72,1.02,10.11
49.60954,3.653277,33.94,-2.15,-0.43,10.81
49.60954,3.653277,33.94,-1.6,0.76,9.9
49.609756,3.65295,33.93,-1.28,-0.72,9.24
49.609756,3.65295,33.93,-2.71,-1.22,9.76
49.609975,3.652621,33.95,-0.43,0.4,10.71
49.609975,3.652621,33.95,-1.36,0.14,8.98
49.610192,3.652291,34.01,-2.47,-1.51,9.55
49.610192,3.652291,34.01,-1.2,-0.71,9.69
49.610409,3.651958,33.96,-0.65,0.31,10.13
49.610409,3.651958,33.96,-1.06,0.37,10.67
49.610622,3.651625,33.45,-1.01,-1.28,8.37
49.610622,3.651625,33.45,-0.42,0.6,10.78
49.610823,3.651294,32.92,-2.13,-1.07,11.15
49.610823,3.651294,32.92,-1.64,-0.97,9.54
49.611018,3.650966,32.77,-1.34,-0.87,10.36
49.611018,3.650966,32.77,-2.3,-0.81,9.47
49.611218,3.650636,32.77,-1.65,1.18,9.4
49.611218,3.650636,32.77,-0.99,0.15,9.24
49.611419,3.650303,33.03,-2.28,-0.11,9.51
49.611419,3.650303,33.03,-1.1,-0.33,8.6
49.611626,3.649974,33.17,-1.88,-0.85,8.44
49.611626,3.649974,33.17,-2.26,-0.91,9.94
49.611832,3.649647,33.36,-1.93,-0.4,9.21
49.611832,3.649647,33.36,-1.22,0.34,10.17
49.61204,3.649316,33.6,-1.22,0.2,10.06
49.61204,3.649316,33.6,-1.13,0.24,9.39
49.612249,3.648984,33.7,-1.05,0.36,10.18
49.612249,3.648984,33.7,-0.89,-1.01,8.67
49.612462,3.648649,33.88,-0.87,-0.53,10.25
49.612677,3.648312,33.92,-0.3,-0.34,10.46
49.612677,3.648312,33.92,-2.12,-0.7,11.17
49.612896,3.647978,33.47,-0.83,-0.15,8.86
49.612896,3.647978,33.47,-2.05,-0.77,10.17
49.613106,3.647646,33.38,-0.36,0.39,10.65
49.613106,3.647646,33.38,-1.12,0.19,9.76
49.613316,3.647313,33.28,-1.79,-0.21,9.02
49.613316,3.647313,33.28,-0.81,-1.45,8.97
49.613527,3.646979,33.24,-0.34,-0.31,9.88
49.613527,3.646979,33.24,-0.4,0.46,10.97
49.613735,3.646648,33.06,-1.61,-0.82,9.54
49.613735,3.646648,33.06,-1.72,-0.5,8.99
49.613937,3.646321,32.53,-2.24,0.24,10.39
49.613937,3.646321,32.53,-0.34,0.23,11.37
49.614138,3.645996,32.23,-0.17,-0.51,9.2
49.614138,3.645996,32.23,-0.55,0.84,10.47
49.614339,3.64567,31.96,0.42,0.22,11.15
49.614339,3.64567,31.96,-1.72,-0.73,9.73
49.614537,3.645352,31.81,-1.23,0.31,9.51
49.614537,3.645352,31.81,-0.39,1.14,10.94
49.614737,3.645037,31.66,-0.37,0.2,10.62
49.614737,3.645037,31.66,-1.3,-0.72,10.45
49.614931,3.644719,31.6,-0.95,-0.72,8.69
49.614931,3.644719,31.6,-1.75,0.13,8.82
49.615126,3.644401,31.61,-1.63,-0.11,9.72
49.615126,3.644401,31.61,-1.56,-0.15,9.33
49.61532,3.644077,31.77,-0.78,0.27,10.39
49.61532,3.644077,31.77,-1.73,-0.23,10.08
49.615509,3.643755,31.78,-1.26,0.0,10.49
49.615509,3.643755,31.78,-1.13,-0.01,8.68
49.615704,3.64343,31.75,-1.44,0.37,9.44
49.615704,3.64343,31.75,-1.44,-0.01,9.53
49.615903,3.64311,31.76,-1.73,-1.41,10.16
49.615903,3.64311,31.76,-1.47,-1.0,8.81
49.616101,3.642792,31.81,-1.67,0.34,9.61
49.616101,3.642792,31.81,-2.21,-1.19,10.04
49.616302,3.642471,31.96,-1.48,-1.1,9.62
49.616302,3.642471,31.96,-1.53,-0.44,9.23
49.6165,3.642147,31.93,-2.07,-1.52,10.48
49.6165,3.642147,31.93,-1.14,0.88,9.61
49.616692,3.641818,32.18,-0.8,0.43,10.24
49.616692,3.641818,32.18,-0.54,-0.26,9.12
49.61688,3.641483,32.22,-1.4,-0.55,10.37
49.617072,3.64115,32.46,-2.23,-0.88,10.23
49.617072,3.64115,32.46,-1.68,-1.03,9.89
49.617261,3.64081,32.69,-1.11,1.0,10.07
49.617261,3.64081,32.69,-1.82,-0.56,9.87
49.617446,3.640467,32.85,-1.23,-0.6,11.14
49.617446,3.640467,32.85,-1.51,0.24,9.79
49.617638,3.640123,32.92,-0.47,0.43,10.23
49.617638,3.640123,32.92,-1.25,-0.82,9.3
49.617831,3.639779,32.89,-0.86,-0.04,8.84
49.617831,3.639779,32.89,-1.23,0.28,10.01
49.618027,3.639434,32.95,-1.36,0.18,9.4
49.618027,3.639434,32.95,-1.68,-0.27,9.68
49.618225,3.639091,33.11,-1.83,-0.43,8.48
49.618225,3.639091,33.11,-1.47,0.52,9.81
49.618423,3.638749,33.29,-1.3,0.09,10.56
49.618423,3.638749,33.29,-1.24,-1.29,8.94
49.61863,3.638402,33.37,-0.57,-0.14,10.88
49.61863,3.638402,33.37,-2.28,-0.42,9.58
49.618832,3.638055,33.22,-1.57,-0.11,9.55
49.618832,3.638055,33.22,-1.31,-0.69,9.86
49.619028,3.637711,33.42,-0.51,-0.62,9.02
49.619028,3.637711,33.42,-2.13,-1.13,10.21
49.619223,3.637364,33.55,-0.28,0.99,10.76
49.619223,3.637364,33.55,-1.96,0.11,10.46
49.619419,3.637015,33.59,-0.79,0.57,9.69
49.619419,3.637015,33.59,-0.9,-0.22,9.43
49.619616,3.636669,33.64,-2.73,-1.2,10.38
49.619616,3.636669,33.64,-0.65,0.32,11.23
49.619824,3.63632,33.62,-2.86,-1.09,9.59
49.619824,3.63632,33.62,-1.17,0.29,9.86
49.62003,3.635967,33.6,-1.37,-0.09,9.66
49.62003,3.635967,33.6,-1.66,0.06,9.59
49.620229,3.635616,33.55,-2.26,-0.39,10.28
49.620229,3.635616,33.55,-0.11,0.77,9.53
49.62043,3.635268,33.55,-3.42,-1.7,9.66
49.62043,3.635268,33.55,-0.37,0.57,10.37
49.620627,3.63492,33.5,-1.07,-0.3,9.61
49.620823,3.63457,33.09,-0.07,0.62,11.65
49.620823,3.63457,33.09,-0.13,0.0,9.83
49.621015,3.634228,32.44,-1.84,-0.65,11.56
49.621015,3.634228,32.44,-1.23,-1.23,9.87
49.621208,3.633889,32.07,-1.28,-0.37,10.47
49.621208,3.633889,32.07,-1.14,0.79,8.87
49.621399,3.633557,32.0,-1.93,-0.06,10.71
49.621399,3.633557,32.0,-1.93,-0.02,8.65
49.621592,3.633225,32.08,-1.49,-0.32,8.45
49.621592,3.633225,32.08,-1.58,0.33,10.29
49.621786,3.632892,32.12,-1.07,0.23,9.81
49.621786,3.632892,32.12,-1.28,0.38,11.43
49.621978,3.632559,32.23,-0.57,0.58,11.54
49.621978,3.632559,32.23,-2.1,-0.91,10.07
49.622167,3.632221,32.39,-2.63,-0.59,10.53
49.622167,3.632221,32.39,-1.79,0.36,9.56
49.622357,3.631881,32.36,-1.92,0.1,8.2
49.622357,3.631881,32.36,-1.66,-0.36,10.32
49.622554,3.631548,32.57,-1.77,-0.74,9.17
49.622554,3.631548,32.57,-2.79,-0.96,10.18
49.62275,3.631215,32.64,-1.89,0.58,10.88
49.62275,3.631215,32.64,-0.75,0.73,10.04
49.622952,3.630877,32.87,-2.33,-0.25,9.0
49.622952,3.630877,32.87,-1.81,0.03,9.55
49.623147,3.630534,33.1,-1.47,-0.48,9.77
49.623147,3.630534,33.1,-2.21,-0.74,10.53
49.623353,3.630193,33.14,-1.69,-0.67,8.98
49.623353,3.630193,33.14,-1.41,-0.71,11.29
49.623555,3.629858,33.35,-1.08,0.31,10.43
49.623555,3.629858,33.35,-2.0,0.11,10.16
49.623761,3.629524,33.34,-1.74,0.11,8.59
49.623761,3.629524,33.34,-2.85,-0.93,11.05
49.623967,3.62919,33.36,-2.16,-0.29,9.51
49.623967,3.62919,33.36,-1.72,-0.55,9.05
49.624174,3.62886,33.37,-1.03,-0.61,8.06
49.624174,3.62886,33.37,-1.12,0.29,10.55
49.624389,3.628535,33.38,-1.48,-0.32,9.91
49.624389,3.628535,33.38,-0.82,-0.48,9.31
49.624601,3.628205,33.37,-1.81,-1.17,10.42
49.624601,3.628205,33.37,-1.24,0.57,10.74
49.624812,3.627874,33.35,-2.14,-0.8,9.39
49.624812,3.627874,33.35,-1.52,-0.23,8.65
49.625023,3.627544,33.31,-2.3,-0.49,8.99
49.625235,3.627217,33.32,-0.79,0.17,8.72
49.625235,3.627217,33.32,-1.03,0.45,9.57
49.625447,3.626892,33.34,-1.83,-0.15,10.03
49.625447,3.626892,33.34,-1.91,-0.82,10.17
49.62566,3.626568,33.41,-1.55,-0.51,10.58
49.62566,3.626568,33.41,-1.3,0.85,10.07
49.625874,3.626241,33.45,-2.26,0.17,10.24
49.625874,3.626241,33.45,-0.96,0.5,10.85
49.626086,3.625917,33.46,-1.33,0.39,9.86
49.626086,3.625917,33.46,-1.72,-0.34,10.64
49.6263,3.625593,33.51,-1.96,-0.93,10.29
49.6263,3.625593,33.51,-1.14,0.75,9.02
49.626516,3.625273,33.55,-2.49,-0.03,10.63
49.626516,3.625273,33.55,-2.11,-0.66,10.87
49.626735,3.624955,33.54,-1.95,0.43,9.02
49.626735,3.624955,33.54,-1.84,-0.61,9.71
49.626954,3.624637,33.58,-1.03,-0.86,9.09
49.626954,3.624637,33.58,-2.4,-0.75,10.11
49.627173,3.624319,33.66,-1.22,-0.45,8.95
49.627173,3.624319,33.66,-2.72,-0.68,9.4
49.627393,3.624001,33.67,-1.59,0.33,9.95
49.627393,3.624001,33.67,-2.41,-0.74,9.71
49.627616,3.623686,33.69,-0.72,0.6,9.1
49.627616,3.623686,33.69,-0.82,-0.48,9.46
49.627839,3.623372,33.73,-0.35,0.59,9.91
49.627839,3.623372,33.73,-0.59,-1.12,8.75
49.628064,3.623061,33.58,-1.4,-0.98,10.53
49.628064,3.623061,33.58,-0.87,0.38,9.41
49.62829,3.622753,33.53,-2.34,-0.71,9.69
49.62829,3.622753,33.53,-0.92,0.95,10.93
49.628514,3.622444,33.53,-1.53,0.57,9.07
49.628514,3.622444,33.53,-0.43,0.2,9.45
49.628739,3.622136,33.48,-1.85,-0.18,10.52
49.628739,3.622136,33.48,-0.67,0.9,9.56
49.628963,3.62183,33.46,-2.12,-0.39,9.04
49.628963,3.62183,33.46,-1.09,-0.44,10.31
49.629193,3.62153,33.46,-1.78,-1.04,9.35
49.629193,3.62153,33.46,-0.79,-0.23,9.06
49.629422,3.621231,33.42,-2.96,-0.72,9.84
49.629651,3.620932,33.39,-1.89,-0.45,10.05
49.629651,3.620932,33.39,-1.09,0.52,10.92
49.629879,3.620633,33.33,-0.68,-0.08,10.07
49.629879,3.620633,33.33,-2.09,-0.1,9.29
49.630106,3.620337,33.28,-2.26,-0.38,10.8
49.630106,3.620337,33.28,-1.82,0.49,10.82
49.630334,3.620039,33.29,-2.17,-0.5,10.11
49.630334,3.620039,33.29,-1.9,0.3,9.97
49.630567,3.61975,33.28,-1.88,-0.6,9.31
49.630567,3.61975,33.28,-1.57,-1.17,10.21
49.630798,3.619459,33.26,-0.44,0.81,11.16
49.630798,3.619459,33.26,-1.93,-0.32,10.66
49.631028,3.619167,33.22,-1.4,0.33,10.12
49.631028,3.619167,33.22,-2.83,-0.63,9.13
49.631257,3.618875,33.16,-0.9,0.31,9.17
49.631257,3.618875,33.16,-2.17,-0.86,10.07
49.631489,3.618585,33.11,-2.2,-1.04,10.94
49.631489,3.618585,33.11,-1.51,-0.84,10.25
49.631721,3.618299,33.02,-2.25,-1.24,9.2
49.631721,3.618299,33.02,-1.69,-0.53,9.84
49.631954,3.618015,33.11,-1.45,-0.7,10.94
49.631954,3.618015,33.11,-1.81,0.07,9.0
49.632187,3.617728,33.14,-2.3,0.5,9.94
49.632187,3.617728,33.14,-1.2,-1.04,9.0
49.632416,3.617436,33.19,-2.11,0.22,9.89
49.632416,3.617436,33.19,-1.67,0.06,11.31
49.632646,3.617145,33.23,-1.88,-0.92,10.12
49.632646,3.617145,33.23,-0.41,0.84,10.19
49.632873,3.616853,33.3,-2.07,-0.09,10.45
49.632873,3.616853,33.3,-1.08,0.58,10.09
49.633104,3.616562,33.44,-2.89,-1.41,9.57
49.633104,3.616562,33.44,-0.95,-0.43,10.63
49.633336,3.616269,33.48,-1.23,-0.04,9.23
49.633336,3.616269,33.48,-2.55,-1.11,8.83
49.633571,3.615976,33.6,-2.41,-0.64,10.28
49.633571,3.615976,33.6,-1.76,0.59,9.61
49.633806,3.615682,33.66,-2.15,-1.27,8.96
49.633806,3.615682,33.66,-1.86,-0.84,9.63
49.63404,3.615384,33.74,-0.8,-0.42,9.44
49.63404,3.615384,33.74,-2.39,-0.5,10.36
49.634273,3.615083,33.81,-0.74,0.63,10.39
49.634504,3.614776,33.85,-1.0,-0.48,10.01
49.634504,3.614776,33.85,-2.0,-0.41,10.55
49.634734,3.614467,33.95,-0.78,-0.57,9.86
49.634734,3.614467,33.95,-0.97,0.23,9.69
49.634964,3.614158,34.05,-1.94,-0.48,10.47
49.634964,3.614158,34.05,-1.38,-0.04,9.78
49.635193,3.613847,34.09,-0.87,0.27,9.57
49.635193,3.613847,34.09,-1.76,-0.45,11.23
49.635422,3.613533,34.13,-1.49,0.11,9.35
49.635422,3.613533,34.13,-0.71,0.2,9.72
49.635651,3.613216,34.26,-1.72,-1.19,9.89
49.635651,3.613216,34.26,-1.36,0.16,10.53
49.63588,3.612899,34.36,-1.21,0.64,10.66
49.63588,3.612899,34.36,-1.92,-1.62,8.34
49.636109,3.612578,34.4,-2.55,-1.24,10.72
49.636109,3.612578,34.4,-1.88,-0.32,11.25
49.636336,3.612254,34.42,-0.84,-1.38,8.78
49.636336,3.612254,34.42,-1.02,0.05,10.16
49.636563,3.611928,34.52,-1.7,-0.42,10.06
49.636563,3.611928,34.52,-1.52,0.34,10.26
49.636788,3.611598,34.6,-1.63,-0.52,9.67
49.636788,3.611598,34.6,-1.92,-1.86,9.05
49.637014,3.61127,34.73,-2.4,-0.6,9.38
49.637014,3.61127,34.73,-0.54,-0.81,8.98
49.63724,3.610937,34.86,-0.94,-1.0,9.3
49.63724,3.610937,34.86,-1.51,-0.5,10.01
49.637466,3.610602,34.94,-1.94,-1.11,10.05
49.637466,3.610602,34.94,-1.23,-0.28,10.67
49.637694,3.610266,34.96,-0.84,-0.48,9.98
49.637694,3.610266,34.96,-0.78,-1.13,8.76
49.637919,3.609926,35.02,-2.23,-1.15,10.18
49.637919,3.609926,35.02,-1.32,-0.88,9.62
49.638145,3.609585,34.92,-1.33,-1.04,9.07
49.638145,3.609585,34.92,-0.32,-0.19,9.75
49.638363,3.609242,34.35,-0.48,0.63,11.93
49.638363,3.609242,34.35,-1.24,-1.7,8.05
49.638579,3.608901,34.04,-0.76,-0.46,9.64
49.638579,3.608901,34.04,-0.57,0.56,11.2
49.638791,3.608562,33.92,-0.94,-0.15,10.29
49.638791,3.608562,33.92,-0.84,0.52,9.51
49.639009,3.608222,33.9,-0.86,-1.1,9.76
49.639222,3.60788,33.99,-1.84,0.18,10.91
49.639222,3.60788,33.99,-0.85,0.72,10.44
49.63943,3.607538,34.05,-0.46,-0.52,10.24
49.63943,3.607538,34.05,-1.13,-0.09,10.19
49.639644,3.607195,34.18,-0.51,0.73,12.02
49.639644,3.607195,34.18,0.14,-1.41,9.11
49.639857,3.60685,34.11,-1.09,0.48,9.5
49.639857,3.60685,34.11,-0.4,-0.4,9.62
49.640067,3.606499,34.13,0.26,-0.63,9.51
49.640067,3.606499,34.13,-0.86,0.32,9.2
49.640271,3.606148,34.2,-1.32,-0.42,8.99
49.640271,3.606148,34.2,-0.04,0.05,10.9
49.640475,3.605794,34.3,-0.35,-1.1,9.22
49.640475,3.605794,34.3,-1.26,-0.1,10.85
49.640676,3.605443,33.74,-0.3,0.11,10.3
49.640676,3.605443,33.74,-0.82,-1.07,9.73
49.640874,3.605098,33.39,-0.33,0.39,10.61
49.640874,3.605098,33.39,-0.56,-1.11,10.05
49.641069,3.604756,32.92,-1.14,-1.24,11.2
49.641069,3.604756,32.92,-0.11,-0.31,9.83
49.641256,3.604417,32.26,-0.56,-0.09,10.18
49.641256,3.604417,32.26,-0.61,-0.68,11.2
49.641446,3.60408,31.88,-0.74,0.54,11.06
49.641446,3.60408,31.88,-1.36,-0.02,9.42
49.641632,3.603744,31.88,-1.55,-0.47,9.51
49.641632,3.603744,31.88,-0.9,0.38,10.71
49.641811,3.603406,31.91,-1.68,-0.79,8.74
49.641811,3.603406,31.91,-1.13,0.05,10.62
49.641992,3.603063,32.01,-1.56,-0.59,9.98
49.641992,3.603063,32.01,-2.8,-1.83,10.79
49.64217,3.602721,32.03,-0.76,0.03,9.06
49.64217,3.602721,32.03,-2.0,-0.79,10.14
49.642348,3.602377,32.09,-1.28,-0.82,10.07
49.642348,3.602377,32.09,-2.22,-0.25,10.17
49.642528,3.602034,32.15,-1.13,0.05,9.06
49.642528,3.602034,32.15,-1.3,0.16,9.67
49.642712,3.601687,32.24,-0.48,-0.37,9.35
49.642712,3.601687,32.24,-1.12,-0.94,9.57
49.642895,3.601342,32.11,-0.06,0.07,10.36
49.643073,3.600998,32.03,-1.46,-1.11,9.22
49.643073,3.600998,32.03,-1.05,-0.38,9.73
49.643251,3.600647,32.09,-1.5,-1.91,9.27
49.643251,3.600647,32.09,-1.75,-0.8,8.24
49.643419,3.600293,32.19,-1.57,-0.84,10.41
49.643419,3.600293,32.19,-1.89,-0.8,9.73
49.643592,3.599936,32.27,-1.14,-0.23,9.22
49.643592,3.599936,32.27,-0.5,0.2,8.67
49.64377,3.599582,32.38,-0.74,0.25,10.65
49.64377,3.599582,32.38,-0.05,1.16,10.75
49.643947,3.599225,32.48,-1.47,-0.54,9.7
49.643947,3.599225,32.48,-2.18,-1.59,10.73
49.644122,3.598863,32.55,-1.14,-0.43,9.95
49.644122,3.598863,32.55,-1.69,0.22,10.89
49.644297,3.598502,32.66,-1.06,-1.03,10.49
49.644297,3.598502,32.66,-2.03,-1.13,9.79
49.644474,3.598137,32.72,-1.5,-0.72,8.38
49.644474,3.598137,32.72,-1.18,1.17,10.61
49.644646,3.597769,32.8,-1.16,0.37,9.47
49.644646,3.597769,32.8,-1.91,-1.47,9.3
49.644817,3.597401,32.83,-0.69,0.19,10.4
49.644817,3.597401,32.83,-2.4,-1.16,9.69
49.644992,3.597032,32.91,-1.76,-1.14,10.4
49.644992,3.597032,32.91,-1.32,-0.22,10.49
49.645164,3.59666,32.99,-1.63,-1.13,9.0
49.645164,3.59666,32.99,-2.0,-1.08,9.65
49.645333,3.596287,32.93,-1.13,-1.12,9.4
49.645333,3.596287,32.93,-1.32,-0.35,9.09
49.645502,3.595911,32.89,-2.21,-1.32,10.5
49.645502,3.595911,32.89,-0.89,-0.86,9.15
49.645668,3.595534,32.89,-1.28,-0.72,9.32
49.645668,3.595534,32.89,-1.21,-0.01,9.23
49.645835,3.595157,32.87,-2.01,-0.22,9.96
49.645835,3.595157,32.87,-0.19,-0.32,9.05
49.646006,3.594786,32.87,-1.67,-0.25,12.09
49.646006,3.594786,32.87,-2.16,0.23,10.74
49.646167,3.594403,32.84,-0.76,1.02,11.7
49.646167,3.594403,32.84,-1.88,-1.34,9.45
49.646328,3.594022,32.84,-1.79,-0.37,9.87
49.646328,3.594022,32.84,-0.93,-1.09,8.58
49.64649,3.593641,32.76,-1.41,-1.16,8.11
49.646646,3.593255,32.73,-1.89,-0.58,9.71
49.646646,3.593255,32.73,-1.06,0.07,9.54
49.646802,3.592873,32.72,-0.6,0.65,12.01
49.646802,3.592873,32.72,-0.62,-0.14,10.1
49.646956,3.592491,32.62,-2.36,-1.04,9.78
49.646956,3.592491,32.62,-1.44,0.65,10.29
49.647111,3.592109,32.59,-1.37,0.42,9.88
49.647111,3.592109,32.59,-1.47,-0.7,10.29
49.647264,3.591726,32.52,-2.07,-2.04,9.25
49.647264,3.591726,32.52,-1.52,-0.2,9.35
49.647415,3.591344,32.56,-1.49,-0.87,9.82
49.647415,3.591344,32.56,-1.47,-0.33,9.3
49.647565,3.590961,32.44,-1.76,-0.26,10.15
49.647565,3.590961,32.44,-0.76,0.22,10.96
49.647715,3.590576,32.34,-0.91,-1.12,9.87
49.647715,3.590576,32.34,-0.33,0.15,11.68
49.647862,3.590189,31.84,-0.44,-1.08,9.5
49.647862,3.590189,31.84,0.03,-0.55,10.21
49.648005,3.58981,31.26,-1.17,0.08,9.56
49.648005,3.58981,31.26,-1.05,-1.02,9.19
49.648145,3.58944,30.64,-0.9,-0.92,9.96
49.648145,3.58944,30.64,-0.65,0.83,9.31
49.648274,3.589086,30.21,-0.91,-0.56,11.34
49.648274,3.589086,30.21,-1.65,-0.29,9.25
49.64842,3.588734,29.65,-0.77,-0.73,10.0
49.64842,3.588734,29.65,-0.57,-1.15,9.75
49.648548,3.58837,29.06,-1.36,-1.14,10.07
49.648548,3.58837,29.06,-1.42,-0.91,10.8
49.648674,3.588013,28.69,-1.35,0.39,11.2
49.648674,3.588013,28.69,-0.57,-1.5,9.89
49.648793,3.587659,28.06,-1.76,0.01,9.62
49.648793,3.587659,28.06,-1.25,0.7,9.71
49.648914,3.587319,28.1,-2.2,-1.79,9.63
49.648914,3.587319,28.1,-2.33,-2.44,8.53
49.649034,3.586977,28.45,-2.04,-1.22,9.39
49.649034,3.586977,28.45,-2.09,-0.44,9.09
49.649149,3.586625,28.91,-1.87,-0.57,9.71
49.649149,3.586625,28.91,-2.19,-0.32,10.52
49.649263,3.586253,29.43,-1.68,-0.38,9.21
49.649263,3.586253,29.43,-1.24,0.62,10.07
49.649378,3.585877,30.0,-2.54,0.49,10.51
49.649378,3.585877,30.0,-1.15,0.25,10.27
49.649503,3.585503,30.44,-2.23,0.01,9.39
49.649631,3.585127,30.94,-1.88,-0.47,10.61
49.649631,3.585127,30.94,-1.59,-0.87,9.96
49.649764,3.584748,31.39,-2.03,-0.57,10.04
49.649764,3.584748,31.39,-1.28,0.23,9.88
49.649894,3.58436,31.79,-1.53,0.83,9.05
49.649894,3.58436,31.79,-1.89,0.94,9.7
49.650032,3.583974,32.01,-1.43,0.63,9.86
49.650032,3.583974,32.01,-1.92,0.44,10.64
49.650169,3.583578,32.34,-2.33,-0.47,10.48
49.650169,3.583578,32.34,-1.85,0.48,9.58
49.650307,3.58318,32.43,-1.8,0.17,9.71
49.650307,3.58318,32.43,-1.8,0.28,9.64
49.650445,3.582778,32.65,-1.91,0.14,10.35
49.650445,3.582778,32.65,-2.1,0.2,9.62
49.650585,3.582378,32.63,-1.29,0.37,8.8
49.650585,3.582378,32.63,-0.96,0.18,10.44
49.650727,3.581983,32.76,-1.76,-0.86,10.36
49.650727,3.581983,32.76,-1.38,-1.81,9.5
49.650868,3.581581,32.92,-1.78,-0.24,9.79
49.650868,3.581581,32.92,-1.24,-0.05,9.71
49.651009,3.581181,32.98,-2.04,-0.52,8.97
49.651009,3.581181,32.98,-1.37,0.39,10.64
49.651144,3.580774,33.13,-1.97,-1.31,9.92
49.651144,3.580774,33.13,-0.9,0.61,9.7
49.651279,3.580363,33.2,-1.86,-0.25,8.81
49.651279,3.580363,33.2,-0.68,-0.04,10.3
49.651416,3.579952,33.34,-1.13,0.62,10.41
49.651416,3.579952,33.34,-2.0,-1.62,9.03
49.651555,3.579539,33.43,-0.94,-0.15,9.4
49.651555,3.579539,33.43,-1.65,0.32,9.07
49.651692,3.579125,33.48,-1.45,0.83,11.2
49.651692,3.579125,33.48,-1.07,0.1,10.47
49.651831,3.578712,33.49,-1.91,-0.51,10.24
49.651831,3.578712,33.49,-1.81,-1.11,9.18
49.651974,3.5783,33.65,0.12,-0.47,9.74
49.651974,3.5783,33.65,-1.07,-0.03,10.15
49.652114,3.57789,33.22,-1.4,0.03,10.17
49.652114,3.57789,33.22,-1.21,-0.71,10.23
49.652257,3.577495,32.94,-1.39,-0.36,8.39
49.652257,3.577495,32.94,-0.36,0.96,10.83
49.652393,3.577088,32.95,-2.07,-0.87,9.55
49.652528,3.576679,32.87,-2.23,-0.28,9.63
49.652528,3.576679,32.87,-1.38,-0.35,9.96
49.652663,3.576272,32.89,-1.84,-0.67,9.54
49.652663,3.576272,32.89,-1.66,-0.88,7.84
49.652797,3.575863,32.78,-2.31,-0.55,9.16
49.652797,3.575863,32.78,-1.14,0.08,9.84
49.652931,3.575459,32.72,-2.44,-0.86,11.12
49.652931,3.575459,32.72,-1.05,0.21,10.52
49.653068,3.57506,32.54,-1.29,-0.93,10.26
49.653068,3.57506,32.54,-0.59,-0.05,11.07
49.653201,3.574661,31.99,0.14,0.03,10.22
49.653201,3.574661,31.99,-1.04,0.0,9.88
49.653332,3.574271,31.46,-1.66,-0.35,9.3
49.653332,3.574271,31.46,-1.79,-0.2,9.05
49.653465,3.573889,31.11,-1.44,-1.21,9.87
49.653465,3.573889,31.11,-1.26,0.76,10.39
49.653598,3.573515,30.94,-1.82,-0.22,8.79
49.653598,3.573515,30.94,-1.36,-0.07,8.79
49.653729,3.573135,30.97,-1.89,-0.82,9.33
49.653729,3.573135,30.97,-0.71,1.13,10.85
49.653857,3.572753,30.88,-1.97,-0.58,10.05
49.653857,3.572753,30.88,-1.83,-1.7,10.43
49.653981,3.57237,30.77,-1.57,0.17,9.72
49.653981,3.57237,30.77,-1.9,-0.17,8.39
49.654106,3.571992,30.66,-2.45,-0.32,9.66
49.654106,3.571992,30.66,-1.8,0.48,10.68
49.654234,3.57162,30.61,-0.95,0.99,11.16
49.654234,3.57162,30.61,-1.66,-0.44,10.12
49.654365,3.571249,30.58,-1.56,0.0,9.26
49.654365,3.571249,30.58,-1.45,-0.79,9.13
49.654492,3.570874,30.52,-1.79,-1.1,10.54
49.654492,3.570874,30.52,-2.15,-0.86,9.61
49.654614,3.570495,30.51,-2.03,-0.08,9.53
49.654614,3.570495,30.51,-1.88,-0.01,9.87
49.654732,3.570113,30.37,-1.08,0.59,10.83
49.654732,3.570113,30.37,-1.3,0.42,10.55
49.654852,3.569741,30.32,-1.47,-0.04,8.88
49.654852,3.569741,30.32,-2.2,0.02,8.6
49.654968,3.569366,30.51,-2.21,-0.51,9.14
49.655084,3.568982,30.78,-2.73,-1.71,9.81
49.655084,3.568982,30.78,-1.25,-0.19,10.42
49.655201,3.568594,31.04,-1.64,-0.55,10.04
49.655201,3.568594,31.04,-1.77,0.06,9.53
49.655315,3.568201,31.31,-2.02,-0.66,10.53
49.655315,3.568201,31.31,-2.61,-1.51,9.44
49.65543,3.567803,31.55,-2.89,-0.95,9.9
49.65543,3.567803,31.55,-2.99,-0.54,9.37
49.655546,3.5674,31.87,-3.19,-1.58,10.12
49.655546,3.5674,31.87,-2.53,-1.32,10.7
49.655662,3.566993,31.99,-1.92,0.19,10.44
49.655662,3.566993,31.99,-1.43,-1.11,9.43
49.655779,3.566584,32.1,-2.14,-0.16,10.21
49.655779,3.566584,32.1,-2.34,0.47,10.1
49.655897,3.566178,32.13,-1.71,-0.16,9.04
49.655897,3.566178,32.13,-1.69,-0.04,10.44
49.656017,3.565771,32.21,-0.78,-0.33,9.05
49.656017,3.565771,32.21,-1.37,1.16,10.52
49.656136,3.565362,32.29,-2.97,-1.02,9.1
49.656136,3.565362,32.29,-1.9,-0.83,9.59
49.656255,3.564953,32.39,-1.81,-0.1,10.07
49.656255,3.564953,32.39,-1.63,-0.11,9.64
49.656372,3.564541,32.55,-2.69,-0.13,9.63
49.656372,3.564541,32.55,-1.7,-0.21,10.38
49.656488,3.564126,32.59,-2.96,-0.98,9.39
49.656488,3.564126,32.59,-1.56,-0.56,9.13
49.6566,3.563708,32.63,-1.19,-0.27,9.92
49.6566,3.563708,32.63,-1.8,-0.11,9.11
49.656712,3.56329,32.69,-1.31,0.58,10.47
49.656712,3.56329,32.69,-1.66,0.29,10.58
49.656823,3.562869,32.82,-1.71,-0.39,10.75
49.656823,3.562869,32.82,-1.37,-0.85,9.9
49.656933,3.562449,32.96,-1.4,-0.23,9.72
49.656933,3.562449,32.96,-1.64,-0.06,9.45
49.657044,3.562028,33.09,-1.68,0.57,10.52
49.657044,3.562028,33.09,-1.5,0.17,9.78
49.657155,3.561603,33.19,-2.5,-0.11,10.08
49.657155,3.561603,33.19,-2.08,-0.49,9.02
49.657266,3.561176,33.28,-1.31,-1.23,8.49
49.657266,3.561176,33.28,-1.08,0.28,10.37
49.657375,3.560748,33.36,-0.3,-0.22,8.34
49.65748,3.560319,33.34,-0.89,-0.89,9.07
49.65748,3.560319,33.34,-0.88,0.72,10.53
49.657584,3.55989,33.25,-2.39,-1.11,9.56
49.657584,3.55989,33.25,-0.66,0.53,10.08
49.657684,3.559458,33.2,-1.86,-1.12,8.82
49.657684,3.559458,33.2,-1.13,-0.02,9.74
49.657785,3.559025,33.19,-1.41,-0.51,9.6
49.657785,3.559025,33.19,-2.35,-0.61,10.67
49.657887,3.558594,33.14,-1.14,-0.3,10.04
49.657887,3.558594,33.14,-2.49,-1.36,10.23
49.657991,3.558161,33.16,-1.82,-0.77,10.85
49.657991,3.558161,33.16,-0.9,0.74,11.2
49.658093,3.557732,33.05,-1.19,-0.69,9.43
49.658093,3.557732,33.05,-1.63,-0.94,9.5
49.658191,3.557302,33.03,-0.25,0.58,10.07
49.658191,3.557302,33.03,-1.81,-0.51,10.93
49.65829,3.55687,33.09,-0.7,0.6,10.25
49.65829,3.55687,33.09,-1.06,-0.38,9.73
49.658388,3.556438,33.16,-0.88,0.05,9.35
49.658388,3.556438,33.16,-1.36,-0.16,10.05
49.658489,3.556005,33.27,-2.28,-0.67,10.67
49.658489,3.556005,33.27,-1.48,0.17,11.73
49.658593,3.555573,33.3,-1.73,-0.9,9.24
49.658593,3.555573,33.3,-0.89,-0.64,9.95
49.65869,3.555135,33.41,-2.3,-1.49,9.63
49.65869,3.555135,33.41,-1.69,0.31,10.24
49.658785,3.554695,33.49,-1.85,-0.72,8.95
49.658785,3.554695,33.49,-1.43,-1.31,9.58
49.658876,3.554252,33.53,-1.36,-1.26,8.53
49.658876,3.554252,33.53,-0.81,-0.31,9.82
49.658967,3.553811,33.33,-1.06,-0.59,9.35
49.658967,3.553811,33.33,-0.99,0.02,8.77
49.659058,3.553372,33.38,-0.14,0.12,10.27
49.659058,3.553372,33.38,-2.48,-0.2,10.53
49.659145,3.552929,33.38,-0.92,-0.42,8.99
49.659145,3.552929,33.38,-1.44,-0.3,9.21
49.659229,3.55249,33.17,-0.51,-0.77,9.74
49.659229,3.55249,33.17,-2.0,-1.25,10.03
49.659316,3.552053,33.03,-2.45,-1.24,9.94
49.659316,3.552053,33.03,-1.6,-0.77,9.94
49.659403,3.551615,32.97,-1.92,-0.25,9.09
49.659403,3.551615,32.97,-2.63,-1.07,9.84
49.659488,3.551179,32.87,-1.48,-0.03,9.02
49.659571,3.550742,32.8,-0.72,0.43,10.25
49.659571,3.550742,32.8,0.11,0.13,8.68
49.65966,3.550306,32.66,-1.78,-1.54,9.71
49.65966,3.550306,32.66,-1.18,-0.67,8.6
49.659743,3.549873,32.29,-1.36,-0.1,9.05
49.659743,3.549873,32.29,-0.66,-0.78,9.96
49.65982,3.549442,32.05,-0.32,1.16,10.95
49.65982,3.549442,32.05,-1.27,0.05,11.22
49.6599,3.549016,31.83,-1.12,0.08,10.18
49.6599,3.549016,31.83,-0.66,0.89,11.28
49.659981,3.548594,31.79,-0.97,-0.48,9.86
49.659981,3.548594,31.79,-0.51,-0.56,11.05
49.660064,3.548169,31.93,-0.38,0.38,10.44
49.660064,3.548169,31.93,-2.12,-0.32,9.0
49.660149,3.547749,31.69,-1.85,-0.66,9.56
49.660149,3.547749,31.69,-0.86,0.01,11.01
49.660233,3.547333,31.65,-1.19,-0.2,7.98
49.660233,3.547333,31.65,-1.38,0.41,8.93
49.66032,3.546919,31.6,-1.82,0.32,8.98
49.66032,3.546919,31.6,-1.84,-1.67,9.64
49.660407,3.546503,31.54,-1.78,-0.76,9.71
49.660407,3.546503,31.54,-1.6,-0.34,10.44
49.660492,3.546087,31.58,-1.01,0.75,11.55
49.660492,3.546087,31.58,-1.06,0.76,11.68
49.660582,3.545674,31.49,-0.92,0.99,11.05
49.660582,3.545674,31.49,-0.79,1.65,11.07
49.660674,3.545259,31.58,-2.21,0.71,8.99
49.660674,3.545259,31.58,-1.99,0.14,10.35
49.660766,3.544842,31.84,-1.38,-0.3,10.51
49.660766,3.544842,31.84,-1.38,0.17,8.65
49.660862,3.544428,32.09,-0.83,-0.2,10.3
49.660862,3.544428,32.09,-1.84,0.56,9.53
49.660959,3.544009,32.23,-1.13,0.88,9.46
49.660959,3.544009,32.23,-1.94,-0.4,9.79
49.661059,3.543593,32.29,-1.48,0.12,8.08
49.661059,3.543593,32.29,-2.15,-0.66,7.81
49.661162,3.543176,32.28,-2.17,0.33,9.42
49.661162,3.543176,32.28,-0.96,0.81,10.66
49.661267,3.542759,32.31,-1.23,0.61,10.78
49.661267,3.542759,32.31,-2.18,-0.49,9.59
49.66137,3.54234,32.4,-2.28,-0.68,9.79
49.661474,3.54192,32.5,-1.15,-0.49,9.8
49.661474,3.54192,32.5,-1.15,-0.27,8.59
49.66158,3.541499,32.57,-0.62,1.16,10.47
49.66158,3.541499,32.57,-2.29,-0.21,10.57
49.661692,3.541081,32.74,-1.24,-0.34,9.21
49.661692,3.541081,32.74,-1.25,-0.31,9.29
49.661805,3.540659,33.1,-1.39,0.86,10.52
49.661805,3.540659,33.1,-2.33,0.93,10.01
49.66192,3.540233,33.42,-1.14,0.58,9.69
49.66192,3.540233,33.42,-2.12,-1.23,10.06
49.662038,3.539806,33.59,-1.64,0.23,10.07
49.662038,3.539806,33.59,-1.59,0.29,9.59
49.66216,3.539379,33.74,-2.53,-1.03,10.07
49.66216,3.539379,33.74,-1.45,-0.44,8.96
49.662282,3.538952,33.85,-2.02,-0.28,10.41
49.662282,3.538952,33.85,-1.08,-0.34,9.11
49.662406,3.538524,33.93,-1.78,0.05,10.03
49.662406,3.538524,33.93,-2.59,-0.87,10.45
49.662532,3.538093,33.97,-0.64,0.79,11.09
49.662532,3.538093,33.97,-0.85,-0.73,8.75
49.662661,3.537666,34.02,-1.35,-1.0,8.62
49.662661,3.537666,34.02,-0.02,0.13,10.87
49.66279,3.537238,33.69,-1.55,-0.31,9.86
49.66279,3.537238,33.69,-0.73,0.03,10.12
49.662918,3.536816,33.16,-0.6,-0.34,10.03
49.662918,3.536816,33.16,-1.71,-0.18,9.18
49.663044,3.536401,32.86,-0.92,1.16,10.1
49.663044,3.536401,32.86,-1.93,-0.3,10.3
49.663173,3.535994,32.79,-1.47,0.18,9.74
49.663173,3.535994,32.79,0.12,0.77,11.45
49.663304,3.535589,32.85,0.55,1.71,10.56
49.663304,3.535589,32.85,-2.19,-1.02,10.68
49.663443,3.535185,32.97,-0.98,-0.14,10.27
49.663443,3.535185,32.97,-1.53,-0.39,10.14
49.663575,3.534769,33.01,-1.65,-0.76,9.86
49.663575,3.534769,33.01,-1.08,-0.19,10.49
49.663717,3.534366,33.02,-1.58,-0.47,10.89
49.663717,3.534366,33.02,-1.25,-0.08,11.02
49.663855,3.53396,33.01,-1.54,0.1,11.01
49.663995,3.533556,33.01,-1.82,-0.96,10.17
49.663995,3.533556,33.01,-1.08,0.0,9.98
49.664134,3.533154,32.95,-0.95,1.14,10.59
49.664134,3.533154,32.95,-0.63,0.99,9.64
49.664274,3.532755,32.91,-1.78,0.05,9.4
49.664274,3.532755,32.91,-0.99,-0.15,9.97
49.664417,3.532361,32.86,-0.41,1.26,11.05
49.664417,3.532361,32.86,-1.82,-0.23,10.05
49.664562,3.531966,32.91,-1.59,-0.35,8.47
49.664562,3.531966,32.91,-0.49,1.16,11.79
49.66471,3.531572,32.92,-1.92,-1.11,9.5
49.66471,3.531572,32.92,-1.7,-1.0,9.96
49.664856,3.531178,32.91,-0.56,0.75,11.37
49.664856,3.531178,32.91,-2.74,-0.69,10.92
49.665001,3.530785,33.02,-2.05,0.1,9.46
49.665001,3.530785,33.02,-0.86,0.89,10.62
49.665151,3.530391,33.06,-1.91,-0.42,10.4
49.665151,3.530391,33.06,-2.04,0.41,11.35
49.665309,3.529992,33.18,-2.9,-0.94,9.09
49.665309,3.529992,33.18,-1.24,-0.85,7.86
49.665463,3.529597,33.27,-1.94,0.26,9.76
49.665463,3.529597,33.27,-1.49,-0.12,9.09
49.665617,3.529203,33.27,0.38,1.42,11.27
49.665617,3.529203,33.27,-2.77,-1.23,9.78
49.665772,3.528813,32.96,-1.28,-0.12,9.78
49.665772,3.528813,32.96,0.03,0.74,10.84
49.665926,3.528427,32.77,-2.24,-0.67,10.64
49.665926,3.528427,32.77,-0.28,0.36,10.57
49.666081,3.528046,32.48,-1.37,0.36,8.89
49.666081,3.528046,32.48,-1.62,-0.02,10.3
49.666234,3.527669,32.2,-0.13,1.14,12.27
49.666234,3.527669,32.2,-0.74,0.51,10.24
49.666385,3.527291,31.92,-0.89,0.23,10.16
49.666385,3.527291,31.92,-0.8,0.44,10.41
49.666535,3.526919,31.52,-0.45,-0.53,10.25
49.666535,3.526919,31.52,-1.12,0.02,8.57
49.666686,3.526554,30.97,-0.58,0.06,11.38
49.666686,3.526554,30.97,-1.07,0.59,8.71
49.666835,3.526198,30.49,-1.43,-0.29,9.73
49.666835,3.526198,30.49,-1.75,0.5,9.71
49.666986,3.52585,30.1,-2.18,-0.6,9.66
49.667139,3.525514,30.06,-1.76,0.16,10.18
49.667139,3.525514,30.06,-1.13,-1.01,10.31
49.667296,3.525178,29.96,-1.69,-0.23,8.49
49.667296,3.525178,29.96,-0.52,0.19,9.96
49.66745,3.524839,29.51,-1.06,-0.22,10.26
49.66745,3.524839,29.51,-2.0,-0.43,9.48
49.6676,3.524506,29.01,-2.13,0.03,10.16
49.6676,3.524506,29.01,-1.68,0.64,9.48
49.667751,3.524178,28.86,-0.64,0.96,9.46
49.667751,3.524178,28.86,-1.75,-0.41,8.53
49.6679,3.523853,28.48,-0.73,0.81,9.58
49.6679,3.523853,28.48,-1.44,1.4,10.07
49.668045,3.523532,28.22,-0.8,-0.23,9.73
49.668045,3.523532,28.22,-1.11,0.19,9.86
49.668193,3.523217,27.73,-0.88,0.64,11.1
49.668193,3.523217,27.73,-0.43,-0.11,9.38
49.668336,3.522919,27.26,-1.46,-0.35,9.96
49.668336,3.522919,27.26,-1.22,-1.28,10.79
49.668485,3.522622,27.13,-1.84,-1.56,9.37
49.668485,3.522622,27.13,-3.01,-0.42,10.02
49.668631,3.522317,27.58,-1.24,0.35,10.18
49.668631,3.522317,27.58,-2.41,0.16,9.62
49.668777,3.522003,28.02,-3.13,-0.8,9.17
49.668777,3.522003,28.02,-2.6,0.69,9.24
49.66892,3.521677,28.61,-2.69,-0.16,9.13
49.66892,3.521677,28.61,-2.02,1.56,9.71
49.669071,3.521349,29.18,-1.36,-0.14,10.36
49.669071,3.521349,29.18,-1.46,0.13,9.81
49.669232,3.521024,29.63,-1.91,0.72,8.05
49.669232,3.521024,29.63,-2.09,-0.02,10.76
49.669398,3.520698,29.97,-1.59,-0.57,9.09
49.669398,3.520698,29.97,-1.51,0.16,10.66
49.669574,3.520373,30.6,-1.91,0.42,10.22
49.669574,3.520373,30.6,-1.49,-0.23,9.26
49.669753,3.52004,31.1,-2.45,-0.79,8.4
49.669753,3.52004,31.1,-1.83,-0.23,8.77
49.669933,3.519705,31.48,-1.68,0.66,10.71
49.669933,3.519705,31.48,-1.95,0.22,10.67
49.670119,3.519367,31.99,-1.72,0.05,8.94
49.670308,3.519028,32.35,-2.45,-0.29,8.59
49.670308,3.519028,32.35,-1.3,0.93,10.69
49.670499,3.518686,32.46,-0.58,0.92,10.05
49.670499,3.518686,32.46,0.12,1.26,10.17
49.670694,3.518353,32.58,-1.63,-1.04,9.99
49.670694,3.518353,32.58,-1.73,0.2,9.65
49.670893,3.518023,32.45,-1.41,-1.02,9.05
49.670893,3.518023,32.45,-0.92,-0.15,9.83
49.671091,3.517693,32.41,-1.4,-1.05,9.75
49.671091,3.517693,32.41,-0.71,0.51,10.06
49.671288,3.517359,32.47,-1.78,-1.66,9.86
49.671288,3.517359,32.47,-1.67,-0.42,9.37
49.671484,3.517023,32.5,-1.45,0.22,10.0
49.671484,3.517023,32.5,-0.97,0.82,12.06
49.671679,3.516686,32.52,-2.42,0.07,11.42
49.671679,3.516686,32.52,-2.05,-1.03,10.9
49.671878,3.516353,32.45,-1.67,-0.67,11.23
49.671878,3.516353,32.45,-1.73,-0.71,9.19
49.672078,3.516025,32.34,-1.41,-0.18,11.06
49.672078,3.516025,32.34,-1.01,0.36,11.39
49.672276,3.515696,32.4,-2.49,-0.93,10.52
49.672276,3.515696,32.4,-1.4,0.11,9.87
49.672473,3.515365,32.42,-2.19,-0.34,10.7
49.672473,3.515365,32.42,-1.15,-0.59,9.91
49.672672,3.515035,32.5,-1.42,-0.23,9.8
49.672672,3.515035,32.5,-2.22,-1.48,8.27
49.672869,3.514702,32.58,-2.31,-1.13,9.14
49.672869,3.514702,32.58,-0.89,0.74,10.39
49.673071,3.514371,32.61,-2.04,-0.95,10.41
49.673071,3.514371,32.61,-0.85,-0.58,8.52
49.67327,3.514038,32.58,-2.05,-0.66,9.9
49.67327,3.514038,32.58,-0.56,0.2,9.1
49.673469,3.513709,32.54,-0.79,0.07,10.56
49.673469,3.513709,32.54,-0.85,-0.52,10.39
49.67367,3.513377,32.4,-1.66,-0.41,10.71
49.67367,3.513377,32.4,-2.15,-1.15,8.23
49.673871,3.513053,32.2,-1.9,-0.1,11.34
49.673871,3.513053,32.2,-1.28,0.36,9.56
49.67407,3.512731,32.06,-1.29,0.02,9.45
49.674266,3.512407,32.0,-2.08,-1.26,9.39
49.674266,3.512407,32.0,-1.53,-0.04,9.57
49.674462,3.512085,31.96,-1.06,0.16,9.79
49.674462,3.512085,31.96,-1.88,-0.46,8.71
49.674659,3.511762,31.92,-1.94,-0.43,8.49
49.674659,3.511762,31.92,-1.76,0.61,9.58
49.674856,3.511439,32.01,-1.48,0.53,11.11
49.674856,3.511439,32.01,-0.42,0.87,9.66
49.675052,3.511114,32.1,-1.2,-0.79,10.14
49.675052,3.511114,32.1,-1.83,-0.51,10.85
49.675246,3.510784,32.21,-1.61,-1.77,8.96
49.675246,3.510784,32.21,-2.12,-1.03,9.77
49.67544,3.510451,32.32,-1.81,-0.17,10.45
49.67544,3.510451,32.32,-1.37,-0.1,9.39
49.675631,3.510113,32.42,-0.71,0.16,8.96
49.675631,3.510113,32.42,-2.38,0.77,10.69
49.675825,3.509776,32.57,-2.85,-1.09,10.73
49.675825,3.509776,32.57,-1.5,-0.2,9.08
49.676019,3.509437,32.71,-1.4,-0.52,10.05
49.676019,3.509437,32.71,-1.55,0.96,9.96
49.67621,3.509095,32.78,-3.1,-0.6,9.83
49.67621,3.509095,32.78,-1.9,0.46,9.34
49.676398,3.508746,32.86,-1.39,0.35,9.6
49.676398,3.508746,32.86,-2.36,-0.85,10.33
49.676589,3.508395,32.9,-1.55,0.08,10.14
49.676589,3.508395,32.9,-1.93,0.14,11.11
49.67678,3.508048,32.97,-2.4,-1.14,10.66
49.67678,3.508048,32.97,-0.78,-0.33,9.47
49.676971,3.507697,33.03,-1.53,-0.51,10.23
49.676971,3.507697,33.03,-1.42,-1.03,10.78
49.677159,3.507341,33.05,-1.54,-0.11,9.75
49.677159,3.507341,33.05,-1.92,-0.28,10.11
49.677343,3.506977,32.98,-1.48,-0.63,8.79
49.677343,3.506977,32.98,-0.7,0.4,9.5
49.677521,3.506611,32.92,-1.63,0.81,9.28
49.677521,3.506611,32.92,-0.85,0.73,10.63
49.677696,3.506241,32.93,-1.62,0.57,11.57
49.677696,3.506241,32.93,-2.46,-2.05,7.1
49.677872,3.505874,32.94,-1.38,0.69,9.33
49.677872,3.505874,32.94,-0.7,-0.62,9.75
49.67804,3.505506,32.97,-1.95,-0.45,9.31
49.67804,3.505506,32.97,-2.09,0.25,10.26
49.678216,3.505139,33.02,-1.21,-0.22,9.68
49.678391,3.504769,33.05,-2.63,-0.86,10.33
49.678391,3.504769,33.05,-1.94,-0.02,8.76
49.678566,3.504398,33.12,-2.43,-1.2,9.95
49.678566,3.504398,33.12,-1.98,-1.71,10.86
49.678738,3.504026,33.16,-1.13,-1.02,9.62
49.678738,3.504026,33.16,-1.1,-0.26,9.94
49.678906,3.503648,33.21,-2.53,-1.1,9.18
49.678906,3.503648,33.21,-1.39,-0.29,10.34
49.679071,3.50326,33.29,-3.0,-1.46,10.01
49.679071,3.50326,33.29,-0.69,-0.52,8.49
49.679233,3.502873,33.42,-2.04,-1.24,8.56
49.679233,3.502873,33.42,-0.55,0.26,8.92
49.679394,3.502478,33.51,-2.46,0.0,10.85
49.679394,3.502478,33.51,-0.91,-0.32,10.04
49.679556,3.502084,33.67,-2.8,-1.61,10.87
49.679556,3.502084,33.67,-1.14,0.58,10.29
49.679716,3.501687,33.81,-0.58,0.24,10.41
49.679716,3.501687,33.81,-3.08,-1.2,10.87
49.679875,3.501287,33.87,-1.24,0.18,9.1
49.679875,3.501287,33.87,-1.77,-0.01,10.72
49.680034,3.500882,33.97,-2.38,-1.21,9.1
49.680034,3.500882,33.97,-1.07,-0.78,9.12
49.68019,3.500476,33.89,-2.77,-0.99,9.84
49.68019,3.500476,33.89,0.14,0.22,9.9
49.680345,3.500074,33.55,-1.94,0.49,10.54
49.680345,3.500074,33.55,-1.22,-0.61,9.4
49.680493,3.499672,33.22,-1.96,0.75,9.77
49.680493,3.499672,33.22,-1.43,-0.88,9.87
49.680643,3.499274,33.01,-0.7,0.68,10.52
49.680643,3.499274,33.01,-1.63,0.07,10.52
49.680789,3.49888,32.76,-1.5,-0.15,9.95
49.680789,3.49888,32.76,-0.94,-0.43,9.39
49.680937,3.498491,32.67,-0.77,0.23,10.13
49.680937,3.498491,32.67,-1.92,-1.26,9.76
49.681082,3.498097,32.66,-3.01,-1.78,10.29
49.681082,3.498097,32.66,-2.31,-0.94,8.61
49.681224,3.497707,32.47,-0.86,-0.48,10.08
49.681224,3.497707,32.47,-0.06,0.02,9.04
49.681366,3.497313,32.39,-0.47,-0.65,9.45
49.681366,3.497313,32.39,-1.86,-1.87,9.93
49.681505,3.49692,32.36,-0.66,-1.1,8.87
49.681639,3.496533,32.31,-2.35,-0.98,8.76
49.681639,3.496533,32.31,-1.59,-0.61,9.29
49.681769,3.496135,32.22,-0.73,-0.13,10.24
49.681769,3.496135,32.22,-0.22,0.7,10.57
49.681894,3.495731,32.19,0.25,0.97,9.32
49.681894,3.495731,32.19,0.34,0.39,10.53
49.682026,3.49534,32.1,-0.55,-1.06,9.71
49.682026,3.49534,32.1,-1.54,-0.7,10.56
49.682152,3.494942,32.07,-1.38,-0.4,11.02
49.682152,3.494942,32.07,-1.27,-1.03,9.73
49.682274,3.494538,31.88,-1.62,-0.32,10.33
49.682274,3.494538,31.88,-1.65,-1.07,10.66
49.682396,3.494135,31.87,-1.2,-0.87,9.84
49.682396,3.494135,31.87,-1.44,-1.31,10.26
49.682512,3.493731,31.96,-1.12,-0.46,8.95
49.682512,3.493731,31.96,-1.38,-0.5,10.74
49.682629,3.493324,32.28,-1.98,0.77,10.52
49.682629,3.493324,32.28,-0.9,-0.6,10.85
49.682749,3.492915,32.61,-1.12,-0.06,10.63
49.682749,3.492915,32.61,-2.37,-1.16,10.1
49.682869,3.492498,32.95,-1.35,-0.71,9.13
49.682869,3.492498,32.95,-2.4,-1.23,9.76
49.682986,3.492075,33.23,-2.04,-0.92,9.66
49.682986,3.492075,33.23,-0.92,1.09,10.03
49.683102,3.491649,33.45,-1.96,-0.29,9.88
49.683102,3.491649,33.45,-2.39,-1.91,9.65
49.683219,3.49122,33.61,-1.14,-0.12,9.39
49.683219,3.49122,33.61,-1.85,-0.51,10.61
49.683336,3.490788,33.76,-0.72,0.89,9.95
49.683336,3.490788,33.76,-2.63,-1.07,9.98
49.68345,3.490354,33.77,-1.58,-0.03,9.83
49.68345,3.490354,33.77,-0.76,-1.17,9.41
49.683564,3.48992,33.82,-1.34,-0.56,9.38
49.683564,3.48992,33.82,-1.41,0.69,10.76
49.683676,3.489484,33.85,-1.6,1.27,10.88
49.683676,3.489484,33.85,-1.36,-0.07,10.7
49.683788,3.489048,33.77,-2.39,0.11,9.44
49.683788,3.489048,33.77,-3.1,-1.14,10.55
49.683901,3.488614,33.65,-1.18,0.13,9.27
49.684011,3.488181,33.45,-1.38,-0.75,8.88
49.684011,3.488181,33.45,-0.49,0.09,9.78
49.684122,3.487751,33.28,-1.21,0.0,10.67
49.684122,3.487751,33.28,-1.92,0.71,10.21
49.684231,3.487323,33.1,-1.06,0.71,11.39
49.684231,3.487323,33.1,-1.78,-1.27,8.99
49.684339,3.486897,32.96,-1.61,0.19,10.34
49.684339,3.486897,32.96,-1.58,0.2,10.29
49.684445,3.486472,32.85,-2.1,-0.32,10.31
49.684445,3.486472,32.85,-1.77,-0.13,8.93
49.684553,3.486049,32.88,-1.41,0.69,10.42
49.684553,3.486049,32.88,-1.32,1.37,10.33
49.684659,3.485624,32.94,-2.3,-0.88,9.52
49.684659,3.485624,32.94,-1.35,0.24,9.35
49.684767,3.485199,33.04,-1.18,0.17,10.75
49.684767,3.485199,33.04,-0.85,0.0,9.28
49.684875,3.484771,33.1,-0.3,0.02,9.44
49.684875,3.484771,33.1,-2.26,-0.79,8.73
49.684982,3.484344,33.01,-1.26,0.67,10.83
49.684982,3.484344,33.01,-1.46,-0.66,10.51
49.685089,3.483917,33.05,-1.92,-0.47,9.39
49.685089,3.483917,33.05,-1.31,-0.76,8.79
49.685192,3.483486,33.17,-2.15,-0.69,10.19
49.685192,3.483486,33.17,-2.91,-1.34,9.93
49.685294,3.483054,33.34,-1.54,0.64,9.45
49.685294,3.483054,33.34,-0.66,0.78,9.93
49.685396,3.48262,33.55,-2.7,-0.62,10.4
49.685396,3.48262,33.55,-2.2,0.21,10.45
49.685503,3.482184,33.63,-1.54,-0.89,9.41
49.685503,3.482184,33.63,-1.42,0.51,10.4
49.685614,3.48175,33.71,-2.15,-0.55,9.9
49.685614,3.48175,33.71,-1.71,0.7,10.55
49.685724,3.481314,33.79,-1.26,-0.14,8.42
49.685724,3.481314,33.79,-1.99,-0.86,10.08
49.685834,3.480874,33.89,-1.3,-0.8,8.63
49.685834,3.480874,33.89,-1.47,-0.58,9.59
49.685944,3.480435,33.93,-2.38,-0.58,10.77
49.685944,3.480435,33.93,-1.32,0.26,8.91
49.686052,3.479995,34.01,-1.72,-0.51,9.94
49.686052,3.479995,34.01,-1.15,-0.75,10.3
49.686162,3.479554,33.98,-1.08,0.48,9.73
49.686162,3.479554,33.98,-2.1,-0.62,9.85
49.686271,3.479114,33.91,-0.6,-0.71,9.34
49.686271,3.479114,33.91,-2.03,-0.54,9.54
49.686382,3.478678,33.9,-1.02,-0.25,9.12
49.686494,3.478242,33.75,-1.14,0.48,11.29
49.686494,3.478242,33.75,-1.08,-0.19,9.59
49.686606,3.477809,33.68,-1.12,0.23,9.15
49.686606,3.477809,33.68,-1.6,-0.54,10.31
49.686715,3.477376,33.45,-1.62,-1.54,8.73
49.686715,3.477376,33.45,-2.33,-1.58,9.78
49.686825,3.476944,33.43,-1.36,0.58,10.91
49.686825,3.476944,33.43,-1.4,-1.27,10.35
49.686935,3.476513,33.34,-0.65,0.25,8.47
49.686935,3.476513,33.34,-0.55,1.23,11.32
49.687044,3.476081,33.29,-1.78,0.24,9.92
49.687044,3.476081,33.29,-1.14,1.0,11.17
49.687154,3.475651,33.27,-2.06,-0.61,9.19
49.687154,3.475651,33.27,-1.82,-0.32,9.23
49.687266,3.475223,33.19,-3.05,-0.74,9.3
49.687266,3.475223,33.19,-1.73,-0.62,10.01
49.687378,3.474795,33.17,-1.38,1.08,11.17
49.687378,3.474795,33.17,-2.18,-1.57,10.05
49.687495,3.474371,33.23,-1.28,0.39,10.41
49.687495,3.474371,33.23,-1.84,-0.84,9.75
49.687608,3.473946,33.2,-2.21,-0.09,9.48
49.687608,3.473946,33.2,-0.69,0.59,10.2
49.687722,3.473522,33.21,-2.39,-0.88,11.1
49.687722,3.473522,33.21,-1.37,-0.66,9.71
49.687832,3.473094,33.22,-1.19,-0.1,10.11
49.687832,3.473094,33.22,-1.63,-0.23,8.5
49.68794,3.472666,33.21,-2.1,-0.81,9.95
49.68794,3.472666,33.21,-0.77,0.31,9.33
49.68805,3.472248,33.2,-1.25,-0.22,10.61
49.68805,3.472248,33.2,-1.94,-0.62,10.56
49.688158,3.471821,33.21,-1.51,-0.57,9.49
49.688158,3.471821,33.21,-1.26,0.46,10.49
49.688267,3.471392,33.26,-2.74,0.05,9.7
49.688267,3.471392,33.26,-0.76,0.76,9.96
49.688376,3.470964,33.28,-1.87,-1.23,9.86
49.688376,3.470964,33.28,-1.26,0.15,10.54
49.688487,3.470535,33.34,-2.34,-0.42,7.94
49.688487,3.470535,33.34,-0.68,0.9,11.41
49.688597,3.470106,33.37,-2.3,-1.38,10.26
49.688597,3.470106,33.37,-1.68,-0.76,9.86
49.688704,3.469671,33.51,-1.14,0.64,10.64
49.688816,3.469242,33.41,-1.9,-0.66,8.99
49.688816,3.469242,33.41,-2.21,-1.6,9.52
49.688922,3.468806,33.48,-1.65,-0.44,10.25
49.688922,3.468806,33.48,-0.67,0.66,10.33
49.689032,3.468374,33.53,-0.92,-0.81,8.91
49.689032,3.468374,33.53,-0.22,0.51,10.67
49.68914,3.467941,33.32,-0.93,-0.61,9.17
49.68914,3.467941,33.32,0.03,0.55,10.81
49.68925,3.467514,33.05,-1.98,-0.9,9.95
49.68925,3.467514,33.05,-0.91,0.16,9.32
49.689357,3.467088,32.97,-1.44,0.98,10.67
49.689357,3.467088,32.97,-2.08,-0.86,9.97
49.689465,3.466664,32.94,-1.01,-0.23,8.59
49.689465,3.466664,32.94,-0.89,0.76,10.5
49.689572,3.46624,33.05,-2.19,-1.12,10.11
49.689572,3.46624,33.05,-0.97,0.22,8.94
49.689681,3.465813,33.06,-0.87,0.4,9.52
49.689681,3.465813,33.06,-0.82,0.56,9.75
49.689789,3.465386,33.17,-1.6,-1.22,9.91
49.689789,3.465386,33.17,-1.85,-0.95,10.08
49.689904,3.464963,33.29,-0.95,-0.63,9.11
49.689904,3.464963,33.29,-0.55,0.53,10.38
49.690017,3.464536,33.27,-1.43,0.11,9.89
49.690017,3.464536,33.27,-1.43,-0.28,9.92
49.690127,3.464107,33.29,-2.41,-0.71,9.77
49.690127,3.464107,33.29,-0.99,-0.37,12.14
49.69024,3.463679,33.28,-2.35,-0.42,10.56
49.69024,3.463679,33.28,-1.74,-0.03,10.47
49.690354,3.463249,33.32,-1.2,-0.61,8.45
49.690354,3.463249,33.32,-1.01,-0.2,9.44
49.690471,3.462822,33.43,-2.38,-0.82,11.2
49.690471,3.462822,33.43,-0.97,-0.29,9.52
49.690589,3.462395,33.48,-2.35,-0.26,11.94
49.690589,3.462395,33.48,-1.13,-0.42,10.65
49.690707,3.461964,33.49,-2.26,-0.7,9.01
49.690707,3.461964,33.49,-0.61,0.39,10.46
49.690823,3.461535,33.52,-1.79,-0.6,10.96
49.690823,3.461535,33.52,-0.93,-0.19,9.19
49.69094,3.461105,33.62,-2.33,-0.89,10.74
49.69094,3.461105,33.62,-0.39,0.9,11.25
49.69106,3.460674,33.61,-2.37,0.09,10.29
49.69106,3.460674,33.61,-1.01,0.4,11.07
49.691182,3.460249,33.49,-1.67,-0.22,10.02
49.691182,3.460249,33.49,-2.01,-0.71,8.03
49.69131,3.459827,33.39,-2.26,-1.58,10.72
49.691436,3.459412,33.28,-1.72,-0.45,9.6
49.691436,3.459412,33.28,-1.07,0.14,10.79
49.691565,3.458995,33.29,-0.97,0.66,9.92
49.691565,3.458995,33.29,-0.1,-0.44,8.96
49.691691,3.458583,33.26,-2.29,-0.36,10.6
49.691691,3.458583,33.26,-1.54,-0.15,9.71
49.691816,3.458164,33.19,0.01,1.71,9.95
49.691816,3.458164,33.19,-1.09,0.78,9.7
49.691948,3.45775,33.09,-0.38,0.67,9.72
49.691948,3.45775,33.09,-2.53,-0.78,10.28
49.692084,3.457343,33.02,-1.53,0.55,8.74
49.692084,3.457343,33.02,-0.1,1.33,10.75
49.692223,3.456938,32.82,-1.66,-1.12,10.54
49.692223,3.456938,32.82,-0.97,-0.24,9.24
49.692363,3.456535,32.71,-0.74,-0.02,10.6
49.692363,3.456535,32.71,-2.33,-0.08,10.28
49.692497,3.456133,32.7,-1.34,0.29,9.44
49.692497,3.456133,32.7,-1.81,-0.29,9.82
49.692635,3.455737,32.52,-1.0,-0.79,9.96
49.692635,3.455737,32.52,-0.74,0.33,9.37
49.692775,3.455345,32.39,-1.66,0.22,10.27
49.692775,3.455345,32.39,-2.3,-0.59,10.73
49.692921,3.454959,32.16,-1.54,-0.31,10.27
49.692921,3.454959,32.16,-1.59,-0.87,10.76
49.693066,3.454576,31.98,-1.5,-0.75,8.74
49.693066,3.454576,31.98,-1.31,0.36,8.89
49.693211,3.454194,31.91,-1.42,0.79,9.34
49.693211,3.454194,31.91,-1.11,-0.67,9.35
49.693356,3.453814,31.79,-0.49,0.09,6.0
49.693356,3.453814,31.79,-1.72,0.15,11.03
49.693504,3.453439,31.66,-1.94,-0.44,10.84
49.693504,3.453439,31.66,-1.77,0.51,9.03
49.693652,3.453067,31.52,-1.6,-0.38,10.51
49.693652,3.453067,31.52,-0.45,0.35,8.49
49.693802,3.452699,31.38,-0.69,1.01,10.28
49.693802,3.452699,31.38,-1.14,-0.72,9.2
49.693955,3.452336,31.25,-1.46,-0.93,10.06
49.693955,3.452336,31.25,-1.98,-0.11,10.3
49.694107,3.451975,31.09,-1.94,-0.33,9.8
49.694259,3.451613,31.08,-2.39,1.12,9.33
49.694259,3.451613,31.08,-1.51,0.08,10.24
49.694414,3.451253,31.13,-1.25,0.23,10.74
49.694414,3.451253,31.13,-1.11,0.55,10.78
49.694571,3.450895,31.01,-0.82,0.33,10.28
49.694571,3.450895,31.01,-1.28,0.24,9.44
49.69473,3.450542,30.81,-1.02,-0.74,10.66
49.69473,3.450542,30.81,0.04,0.82,9.53
49.694889,3.450192,30.65,-2.53,0.54,9.33
49.694889,3.450192,30.65,-0.12,-0.1,9.41
49.695048,3.449848,30.75,-1.32,-0.39,10.1
49.695048,3.449848,30.75,-2.82,-0.29,9.5
49.69521,3.449502,31.11,-2.55,-0.71,8.94
49.69521,3.449502,31.11,-2.46,-0.32,10.29
49.695374,3.449147,31.46,-2.07,0.11,9.67
49.695374,3.449147,31.46,-1.32,0.19,10.31
49.695535,3.448787,31.87,-1.7,0.2,9.07
49.695535,3.448787,31.87,-2.77,0.86,11.51
49.695701,3.448431,32.25,-1.96,1.32,10.47
49.695701,3.448431,32.25,-2.96,-1.14,10.59
49.695879,3.448072,32.64,-1.23,0.11,9.02
49.695879,3.448072,32.64,-1.62,0.1,10.44
49.696062,3.447715,33.09,-2.38,-0.61,10.21
49.696062,3.447715,33.09,-0.97,0.71,9.22
49.696249,3.447355,33.31,-2.85,-0.97,9.83
49.696249,3.447355,33.31,-0.3,0.42,9.24
49.696438,3.446995,33.1,-1.6,-0.33,9.56
49.696438,3.446995,33.1,-0.97,1.84,11.5
49.696628,3.446641,32.95,-1.01,0.11,9.62
49.696628,3.446641,32.95,-2.57,0.27,10.0
49.696821,3.44629,33.0,-1.04,0.49,10.48
49.696821,3.44629,33.0,-0.47,1.19,8.94
49.697017,3.44594,33.04,-2.14,-0.9,8.83
49.697017,3.44594,33.04,-0.96,-0.05,8.99
49.697214,3.445594,33.21,-1.34,-0.39,10.96
49.697214,3.445594,33.21,-1.52,0.83,9.57
49.697413,3.445248,33.26,-1.7,0.49,9.9
49.697413,3.445248,33.26,-2.15,-0.95,9.68
49.697614,3.444904,33.46,-1.17,0.57,9.78
49.697614,3.444904,33.46,-0.5,0.95,10.22
49.697816,3.444559,33.61,-1.6,-0.02,9.95
49.697816,3.444559,33.61,-0.75,1.77,11.19
49.698022,3.444215,33.67,-2.66,-0.48,9.79
49.698227,3.443871,33.84,-1.55,-0.58,9.68
49.698227,3.443871,33.84,-2.87,-0.81,9.74
49.698436,3.44353,33.93,-2.64,0.5,10.59
49.698436,3.44353,33.93,-1.53,-0.54,10.02
49.698648,3.44319,33.92,-2.62,-0.31,11.84
49.698648,3.44319,33.92,-1.36,0.2,9.81
49.698861,3.442852,33.84,-1.57,-0.68,10.46
49.698861,3.442852,33.84,-0.66,0.47,9.91
49.699072,3.442519,33.41,-1.5,0.72,10.36
49.699072,3.442519,33.41,-1.24,-0.12,10.61
49.699285,3.442192,33.24,-2.36,-1.27,10.58
49.699285,3.442192,33.24,-0.63,1.24,10.21
49.699495,3.441865,33.16,-2.95,-0.64,10.73
49.699495,3.441865,33.16,-0.77,0.65,10.23
49.699707,3.441541,32.98,-0.88,0.29,11.18
49.699707,3.441541,32.98,-3.04,-0.76,11.14
49.699918,3.441219,32.87,-1.94,-0.8,10.47
49.699918,3.441219,32.87,-0.68,0.73,9.97
49.700129,3.4409,32.72,-2.04,-0.23,8.05
49.700129,3.4409,32.72,-2.38,-0.51,10.34
49.700337,3.440581,32.69,-1.93,0.86,9.64
49.700337,3.440581,32.69,-1.09,0.7,9.57
49.700549,3.440267,32.74,-1.93,-0.55,10.02
49.700549,3.440267,32.74,-2.46,-0.68,9.98
49.700763,3.439959,32.78,-0.87,-0.94,9.07
49.700763,3.439959,32.78,-1.42,0.32,9.57
49.700979,3.439657,32.7,-2.3,-0.3,10.44
49.700979,3.439657,32.7,-1.1,0.41,10.15
49.701201,3.439354,32.65,-1.42,-0.05,10.51
49.701201,3.439354,32.65,-1.1,0.68,10.48
49.701418,3.439052,32.47,-2.2,-1.32,10.05
49.701418,3.439052,32.47,-0.57,-0.51,10.41
49.701634,3.438745,32.29,-1.72,-0.33,10.88
49.701634,3.438745,32.29,-1.13,-0.42,10.18
49.701847,3.438442,31.87,-1.69,-0.72,8.12
49.701847,3.438442,31.87,-2.05,-0.71,10.18
49.70205,3.438146,31.61,-2.01,-0.67,10.71
49.70205,3.438146,31.61,-0.41,-0.96,10.02
49.702256,3.43785,31.31,-0.94,0.79,10.22
49.702256,3.43785,31.31,-1.32,-0.15,11.01
49.70246,3.437555,31.14,-2.16,-0.85,10.23
49.702666,3.437261,31.22,-0.67,-0.39,8.75
49.702666,3.437261,31.22,-1.98,0.4,10.79
49.702872,3.436967,31.34,-1.13,-0.06,9.99
49.702872,3.436967,31.34,-1.92,-0.31,9.31
49.703081,3.436671,31.41,-1.68,0.02,9.13
49.703081,3.436671,31.41,-1.73,-0.68,10.83
49.703286,3.436371,31.41,-1.52,-0.17,9.96
49.703286,3.436371,31.41,-2.19,-1.11,9.2
49.703493,3.436074,31.4,-1.93,-0.83,9.16
49.703493,3.436074,31.4,-1.37,-0.69,10.31
49.703698,3.435776,31.37,-1.7,-0.26,9.55
49.703698,3.435776,31.37,-1.64,-0.06,10.34
49.703906,3.435481,31.44,-1.92,-0.68,11.45
49.703906,3.435481,31.44,-2.01,-0.38,8.65
49.704114,3.43518,31.58,-1.81,0.25,9.84
49.704114,3.43518,31.58,-2.04,0.63,10.5
49.704321,3.434879,31.83,-3.33,-0.47,11.44
49.704321,3.434879,31.83,-2.91,-1.17,10.08
49.704528,3.434575,32.05,-2.44,-1.0,9.37
49.704528,3.434575,32.05,-1.98,-1.34,8.87
49.704722,3.434278,32.34,-0.71,0.45,9.17
49.704722,3.434278,32.34,-1.72,0.39,10.36
49.704925,3.433964,32.57,-1.37,-0.41,10.92
49.704925,3.433964,32.57,-2.59,-0.88,8.8
49.705138,3.433646,32.81,-0.84,-0.26,9.64
49.705138,3.433646,32.81,-3.29,0.12,9.94
49.705354,3.433321,33.13,-1.71,-0.11,9.54
49.705354,3.433321,33.13,-2.49,-1.06,9.59
49.705573,3.432999,33.38,-1.17,0.74,9.52
49.705573,3.432999,33.38,-1.53,-0.07,8.77
49.705791,3.432677,33.45,-1.75,0.65,10.28
49.705791,3.432677,33.45,-1.66,0.12,10.07
49.706015,3.432359,33.62,-1.91,-0.92,8.56
49.706015,3.432359,33.62,-2.4,-0.91,10.83
49.706236,3.432049,33.72,-0.95,0.64,10.83
49.706236,3.432049,33.72,-2.26,0.32,10.21
49.706455,3.43173,33.73,-1.19,0.42,9.77
49.706455,3.43173,33.73,-1.03,0.13,9.65
49.706673,3.431406,33.7,-0.8,0.59,9.74
49.706673,3.431406,33.7,-1.08,0.99,10.82
49.706894,3.431084,33.69,-2.04,-0.1,10.18
49.707116,3.43077,33.62,-0.59,0.67,9.13
49.707116,3.43077,33.62,-2.49,-0.14,9.48
49.707342,3.430458,33.63,-1.42,-0.79,8.47
49.707342,3.430458,33.63,-3.15,-0.8,11.32
49.707566,3.430142,33.63,-1.76,0.22,10.46
49.707566,3.430142,33.63,-2.03,-0.36,10.15
49.707791,3.429829,33.59,-1.72,0.75,11.13
49.707791,3.429829,33.59,-1.43,-0.13,9.78
49.708018,3.429518,33.68,-3.19,-1.35,9.89
49.708018,3.429518,33.68,-0.54,0.47,9.7
49.708245,3.429207,33.69,-2.3,-1.02,10.11
49.708245,3.429207,33.69,-1.02,0.89,10.21
49.708472,3.428896,33.67,-1.7,-0.14,10.05
49.708472,3.428896,33.67,-0.33,0.7,11.23
49.708697,3.428584,33.66,-1.76,-0.18,9.41
49.708697,3.428584,33.66,-2.06,0.34,10.46
49.708918,3.428267,33.62,-0.78,0.82,10.75
49.708918,3.428267,33.62,-3.11,-0.9,9.85
49.709138,3.427951,33.52,-1.42,0.54,9.16
49.709138,3.427951,33.52,-3.14,-0.09,9.7
49.709357,3.427633,33.56,-0.71,0.84,8.46
49.709357,3.427633,33.56,-1.71,-0.35,11.22
49.709576,3.427315,33.52,-1.12,0.78,10.1
49.709576,3.427315,33.52,-1.94,-0.3,9.46
49.709798,3.427003,33.48,-0.1,0.87,10.17
49.709798,3.427003,33.48,-2.06,-0.34,9.19
49.710023,3.426697,33.42,-1.44,0.3,10.04
49.710023,3.426697,33.42,-2.27,-0.11,10.16
49.71025,3.426394,33.37,-1.65,-0.42,10.66
49.71025,3.426394,33.37,-2.55,-0.62,8.61
49.71048,3.426091,33.34,-1.92,0.03,9.87
49.71048,3.426091,33.34,-2.16,-0.04,9.45
49.710708,3.425787,33.32,-0.67,0.07,8.74
49.710708,3.425787,33.32,-0.45,1.37,9.93
49.710936,3.425484,33.34,-1.47,0.48,9.29
49.710936,3.425484,33.34,-2.53,-1.13,8.62
49.711164,3.425182,33.38,-2.74,-0.95,9.79
49.711164,3.425182,33.38,-1.4,0.42,9.7
49.711398,3.424885,33.45,-2.05,0.02,10.09
49.71163,3.424585,33.53,-1.3,-0.58,9.61
49.71163,3.424585,33.53,-2.9,-1.33,9.09
49.711861,3.424285,33.56,-1.5,-0.13,9.8
49.711861,3.424285,33.56,-3.06,-0.98,9.66
49.712094,3.423988,33.62,-1.62,0.33,9.56
49.712094,3.423988,33.62,-2.19,-0.97,9.67
49.712328,3.423692,33.74,-0.95,0.6,9.03
49.712328,3.423692,33.74,-0.28,-0.15,9.48
49.712567,3.423401,33.82,-1.73,-0.93,9.88
49.712567,3.423401,33.82,-1.67,-0.27,9.61
49.712806,3.423111,33.89,-1.72,-0.15,10.57
49.712806,3.423111,33.89,-0.73,1.04,10.18
49.713043,3.422818,34.0,-1.03,-0.41,8.97
49.713043,3.422818,34.0,-1.14,-0.06,10.24
49.713274,3.422521,33.82,0.04,1.01,10.73
49.713274,3.422521,33.82,-2.15,-0.4,9.99
49.713505,3.422232,33.46,-1.02,-0.19,8.99
49.713505,3.422232,33.46,-1.12,-0.42,9.41
49.713741,3.421949,33.37,-1.64,0.98,11.64
49.713741,3.421949,33.37,-1.96,-0.07,9.82
49.713981,3.421673,33.36,-0.49,0.86,8.65
49.713981,3.421673,33.36,-1.55,-0.76,9.82
49.714223,3.421396,33.34,-0.69,1.33,10.45
49.714223,3.421396,33.34,-1.73,-1.45,9.9
49.714471,3.421121,33.33,-1.1,0.7,10.42
49.714471,3.421121,33.33,-2.0,0.18,10.59
49.714716,3.420846,33.34,-0.91,-0.66,8.2
49.714716,3.420846,33.34,-2.23,-1.35,9.69
49.714957,3.42057,33.27,-0.79,0.59,9.53
49.714957,3.42057,33.27,-1.58,-0.36,9.88
49.715198,3.420296,33.39,-0.71,0.52,8.35
49.715198,3.420296,33.39,-0.79,1.46,11.05
49.715445,3.420024,33.64,-0.87,0.32,8.04
49.715445,3.420024,33.64,-2.25,-0.65,9.29
49.715695,3.419754,33.9,-1.39,0.03,8.93
49.715695,3.419754,33.9,-0.45,0.85,9.58
49.715946,3.419482,34.12,-2.18,-0.59,10.27
49.715946,3.419482,34.12,-2.34,-0.68,9.0
49.716198,3.419211,34.22,-1.15,-0.39,8.9
49.716198,3.419211,34.22,-1.67,0.37,10.16
49.716451,3.418939,34.42,-1.69,-0.37,10.9
49.716706,3.418668,34.64,-1.7,-0.23,8.63
49.716706,3.418668,34.64,-2.25,-0.98,10.39
49.716966,3.4184,34.96,-0.85,0.27,9.0
49.716966,3.4184,34.96,-1.16,0.72,9.73
49.717228,3.418129,35.28,-0.06,0.41,10.33
49.717228,3.418129,35.28,-2.29,-0.34,9.13
49.717494,3.417861,35.53,-1.69,-0.32,9.85
49.717494,3.417861,35.53,-2.48,-1.28,9.54
49.717763,3.41759,35.77,0.35,-0.39,9.27
49.717763,3.41759,35.77,-1.05,-0.27,9.49
49.71803,3.41732,35.19,-0.44,-0.26,9.79
49.71803,3.41732,35.19,0.33,0.37,9.03
49.718294,3.417061,34.61,-0.76,-0.18,10.43
49.718294,3.417061,34.61,-0.61,-0.57,10.04
49.718556,3.416809,34.16,-1.77,-0.4,10.4
49.718556,3.416809,34.16,-0.27,-0.71,8.9
49.718816,3.416562,33.69,-0.3,0.36,10.06
49.718816,3.416562,33.69,-1.0,-0.06,9.36
49.719074,3.416317,33.46,-0.34,-0.02,11.39
49.719074,3.416317,33.46,-1.18,-0.03,10.23
49.719331,3.416079,33.21,-0.59,0.33,10.67
49.719331,3.416079,33.21,-1.13,0.16,9.01
49.719585,3.415842,33.18,-1.31,0.0,9.97
49.719585,3.415842,33.18,-0.79,0.22,10.01
49.719841,3.415604,33.25,-0.7,-0.36,10.12
49.719841,3.415604,33.25,-0.55,0.8,11.47
49.720099,3.41537,33.24,-1.99,-0.69,10.07
49.720099,3.41537,33.24,-1.22,-0.41,10.3
49.720359,3.415139,33.19,-0.6,0.17,9.98
49.720359,3.415139,33.19,-2.16,-0.61,9.58
49.720622,3.414913,32.97,-0.08,1.34,10.43
49.720622,3.414913,32.97,-1.35,1.19,10.79
49.720879,3.41469,32.59,-1.01,-0.82,9.32
49.720879,3.41469,32.59,-1.58,0.09,10.18
49.721135,3.414469,32.23,-1.23,-0.29,10.12
49.721135,3.414469,32.23,-1.56,-0.13,9.6
49.721389,3.414252,31.87,-0.23,0.05,9.62
49.721389,3.414252,31.87,-1.99,-0.88,11.26
49.721638,3.414041,31.34,-1.38,-0.47,9.42
49.721638,3.414041,31.34,-1.21,0.96,10.41
49.721885,3.413834,30.85,-1.18,0.06,9.44
49.722127,3.413623,30.83,-1.8,0.23,10.72
49.722127,3.413623,30.83,-1.4,-0.28,9.97
49.722367,3.413412,30.88,-1.79,0.75,8.24
49.722367,3.413412,30.88,-1.22,0.32,10.07
49.722609,3.413201,31.07,-3.0,-0.6,9.62
49.722609,3.413201,31.07,-1.39,0.17,9.72
49.722853,3.412991,31.24,-2.15,0.27,10.56
49.722853,3.412991,31.24,-1.28,0.2,9.02
49.723105,3.412784,31.49,-1.35,0.8,9.04
49.723105,3.412784,31.49,-1.71,-1.14,8.98
49.723353,3.412578,31.6,-1.8,-0.15,9.54
49.723353,3.412578,31.6,-1.69,-0.19,8.82
49.723607,3.412376,31.86,-2.58,-1.35,9.12
49.723607,3.412376,31.86,-0.61,-0.23,9.31
49.723865,3.41218,31.91,-1.53,0.39,9.76
49.723865,3.41218,31.91,-1.7,-1.57,10.07
49.724121,3.411985,31.99,-1.28,0.58,9.79
49.724121,3.411985,31.99,-1.58,-0.46,9.22
49.724381,3.411788,32.1,-1.39,-0.12,8.31
49.724381,3.411788,32.1,-0.22,0.27,9.9
49.724638,3.411595,31.97,-0.77,1.21,9.92
49.724638,3.411595,31.97,-1.53,0.14,9.96
49.724898,3.411397,32.13,-1.87,-0.37,9.34
49.724898,3.411397,32.13,-2.43,-0.78,9.88
49.72516,3.411206,32.22,-1.53,-0.61,9.76
49.72516,3.411206,32.22,-1.61,-0.19,9.39
49.725422,3.411016,32.18,-1.05,0.34,9.39
49.725422,3.411016,32.18,-0.68,0.32,9.88
49.725682,3.410829,32.3,-0.11,0.43,11.32
49.725682,3.410829,32.3,-1.88,0.05,10.3
49.725947,3.41065,32.5,-1.77,-0.18,9.72
49.725947,3.41065,32.5,-0.19,0.21,9.95
49.726215,3.410476,32.73,-0.12,0.75,10.17
49.726215,3.410476,32.73,-2.68,-1.17,9.93
49.72649,3.410299,32.95,-1.59,-0.79,9.15
49.72649,3.410299,32.95,0.17,1.1,9.85
49.726767,3.410113,33.11,-2.11,-1.04,9.09
49.726767,3.410113,33.11,-0.66,0.18,9.85
49.727042,3.409924,33.36,-2.01,-1.09,9.94
49.727042,3.409924,33.36,-0.56,0.23,9.82
49.727318,3.409732,33.22,-0.16,0.19,10.46
49.727586,3.409542,32.75,-2.24,-1.12,9.0
49.727586,3.409542,32.75,-0.36,-0.17,8.63
49.727852,3.409354,32.61,-0.33,0.88,9.99
49.727852,3.409354,32.61,-0.38,0.21,9.89
49.728116,3.409167,32.55,-1.95,-1.38,10.65
49.728116,3.409167,32.55,-2.04,-0.56,9.99
49.72838,3.40898,32.44,-1.73,-0.45,9.9
49.72838,3.40898,32.44,-1.28,0.1,11.02
49.728643,3.408792,32.33,-1.32,0.05,10.46
49.728643,3.408792,32.33,-0.71,0.43,10.15
49.728908,3.408604,32.36,-1.86,-0.95,10.82
49.728908,3.408604,32.36,-1.35,0.16,9.79
49.729173,3.408417,32.54,-1.28,0.42,10.08
49.729173,3.408417,32.54,-1.58,0.79,11.16
49.729442,3.40823,32.61,-2.47,-0.63,11.3
