Location-lat,Location-long,Speed,Accelerometer-X,Accelerometer-Y,Accelerometer-Z
49.578562,4.482407,35.29,-0.81,0.49,12.36
49.578562,4.482407,35.29,-0.4,0.74,10.12
49.578294,4.48215,35.46,-2.01,1.18,10.87
49.578024,4.481887,35.56,-0.47,-0.14,10.68
49.578024,4.481887,35.56,0.67,0.19,7.02
49.577755,4.481614,34.84,-1.46,0.42,9.54
49.577755,4.481614,34.84,0.73,1.11,13.18
49.577492,4.481346,34.73,-0.32,0.54,14.28
49.577492,4.481346,34.73,-2.86,1.79,9.04
49.577232,4.481082,34.64,-1.77,2.21,10.43
49.577232,4.481082,34.64,-2.49,1.18,9.46
49.576972,4.480817,34.66,0.15,0.75,9.63
49.576972,4.480817,34.66,-0.04,-0.02,9.44
49.57671,4.480555,34.74,0.25,0.66,11.42
49.57671,4.480555,34.74,-2.47,2.07,8.46
49.576447,4.480291,34.88,-2.21,1.87,10.16
49.576447,4.480291,34.88,0.29,2.1,12.48
49.576183,4.480031,35.0,-0.41,1.6,6.58
49.576183,4.480031,35.0,-1.99,0.49,8.78
49.575922,4.479773,35.02,-0.54,1.85,9.88
49.575922,4.479773,35.02,0.51,1.35,10.73
49.57566,4.479516,34.93,-0.82,1.24,6.77
49.57566,4.479516,34.93,-0.53,1.23,8.94
49.575395,4.479249,34.97,-1.29,0.46,8.92
49.575395,4.479249,34.97,-0.47,-0.25,10.64
49.575134,4.478981,35.01,0.22,1.37,11.31
49.575134,4.478981,35.01,-1.04,0.37,9.87
49.574871,4.478718,35.02,-0.04,1.91,10.86
49.574871,4.478718,35.02,-0.49,1.09,10.95
49.57461,4.478449,34.96,1.71,2.04,10.8
49.57461,4.478449,34.96,-3.0,1.17,9.54
49.57435,4.478173,35.04,-1.51,1.85,8.57
49.57435,4.478173,35.04,-1.93,1.43,8.26
49.574084,4.477895,35.08,-0.65,1.01,11.9
49.574084,4.477895,35.08,-1.7,0.91,8.64
49.57382,4.477623,35.16,-2.84,0.89,12.91
49.57382,4.477623,35.16,-0.19,0.73,8.57
49.573555,4.477359,35.25,-2.4,1.64,9.39
49.573555,4.477359,35.25,-0.63,2.11,10.18
49.573282,4.477102,35.28,-1.39,-0.22,9.27
49.573282,4.477102,35.28,-0.6,2.15,12.1
49.573014,4.476847,35.24,-1.39,1.65,9.52
49.573014,4.476847,35.24,-0.69,1.67,10.92
49.572751,4.476581,34.63,-0.68,-0.41,10.54
49.572751,4.476581,34.63,-1.29,-0.41,10.48
49.57249,4.476318,34.25,-1.21,1.65,10.5
49.572231,4.476063,34.12,-0.23,1.12,9.07
49.572231,4.476063,34.12,-0.35,0.54,11.16
49.571974,4.475813,34.01,-1.74,1.04,10.61
49.571974,4.475813,34.01,0.24,0.49,9.43
49.571719,4.475562,33.92,-1.06,0.96,11.44
49.571719,4.475562,33.92,-2.06,1.28,9.62
49.571464,4.475309,33.89,-0.99,0.67,10.64
49.571464,4.475309,33.89,-0.74,1.39,9.02
49.571211,4.475059,33.85,1.09,0.38,11.74
49.571211,4.475059,33.85,-1.01,0.56,9.73
49.570955,4.474807,33.92,-0.61,1.11,9.34
49.570955,4.474807,33.92,-2.11,0.85,9.52
49.570699,4.474556,34.04,-0.65,1.13,9.32
49.570699,4.474556,34.04,-1.74,1.67,8.71
49.570443,4.474297,34.05,-0.71,0.27,9.76
49.570443,4.474297,34.05,-0.64,1.62,9.91
49.570186,4.474038,34.09,-1.24,1.52,9.35
49.570186,4.474038,34.09,-0.13,1.31,11.59
49.569929,4.473783,34.07,-0.62,2.14,10.04
49.569929,4.473783,34.07,-2.67,1.43,10.41
49.56967,4.473523,34.11,0.59,2.27,11.25
49.56967,4.473523,34.11,-0.45,2.09,8.67
49.569414,4.473268,34.15,-2.58,1.6,8.43
49.569414,4.473268,34.15,-0.4,1.55,10.66
49.569157,4.473006,34.18,-1.5,0.73,9.75
49.569157,4.473006,34.18,-2.48,1.75,9.44
49.5689,4.472739,34.16,-1.26,1.36,9.29
49.5689,4.472739,34.16,-2.1,0.6,8.34
49.568643,4.472481,34.1,-1.48,1.69,9.89
49.568643,4.472481,34.1,-1.59,1.8,12.22
49.568386,4.472224,34.14,-1.1,1.16,10.15
49.568386,4.472224,34.14,-0.88,2.23,10.59
49.568129,4.47196,34.22,-2.58,1.4,10.16
49.568129,4.47196,34.22,-0.38,1.31,10.71
49.567874,4.471699,34.23,-0.43,0.55,8.58
49.567874,4.471699,34.23,-0.68,1.65,11.62
49.567617,4.471435,34.21,-2.33,1.77,11.34
49.567617,4.471435,34.21,-0.59,0.7,10.0
49.567361,4.47118,34.26,-0.32,0.94,9.74
49.567361,4.47118,34.26,-1.87,1.65,10.3
49.567103,4.470931,34.33,-0.22,0.75,9.01
49.566844,4.470672,34.34,-0.82,0.87,9.84
49.566844,4.470672,34.34,-0.47,0.86,9.16
49.566583,4.470407,34.32,-1.83,2.17,9.54
49.566583,4.470407,34.32,-0.31,1.13,10.86
49.566323,4.47014,34.41,-0.13,1.14,10.35
49.566323,4.47014,34.41,-0.27,1.29,10.04
49.566063,4.469878,34.56,-0.55,1.43,9.51
49.566063,4.469878,34.56,-0.14,1.47,10.59
49.565802,4.469617,34.74,-1.76,1.13,11.21
49.565802,4.469617,34.74,-1.3,1.08,12.03
49.565542,4.469351,34.83,-0.37,0.65,9.74
49.565542,4.469351,34.83,-1.63,0.67,9.48
49.565278,4.469085,34.91,-0.54,0.66,10.85
49.565278,4.469085,34.91,-0.25,0.79,10.22
49.565015,4.468824,35.0,-1.06,1.83,8.57
49.565015,4.468824,35.0,-0.57,0.47,10.1
49.56475,4.468561,35.08,-1.48,2.68,10.66
49.56475,4.468561,35.08,-2.16,1.55,8.91
49.564486,4.4683,35.13,-0.95,0.68,8.5
49.564486,4.4683,35.13,-0.85,-0.26,8.31
49.564219,4.468035,35.27,-1.0,1.57,9.22
49.564219,4.468035,35.27,-1.13,1.52,10.81
49.563953,4.467768,34.61,-0.23,1.28,10.04
49.563953,4.467768,34.61,-0.39,0.52,10.35
49.563692,4.467507,34.41,-2.16,0.6,8.56
49.563692,4.467507,34.41,-1.74,0.76,7.44
49.563434,4.467244,34.41,-1.13,1.06,10.88
49.563434,4.467244,34.41,-0.09,0.81,10.42
49.563176,4.466985,34.53,0.72,2.11,10.14
49.563176,4.466985,34.53,-0.96,1.64,8.44
49.562915,4.466728,34.69,-1.87,1.75,8.6
49.562915,4.466728,34.69,-0.89,2.15,12.12
49.562654,4.466463,34.87,-2.15,0.97,10.3
49.562654,4.466463,34.87,-0.65,1.9,9.0
49.562394,4.466202,35.03,-2.21,1.91,10.1
49.562394,4.466202,35.03,0.82,1.61,10.84
49.562133,4.46593,35.16,0.8,1.95,10.38
49.562133,4.46593,35.16,-2.5,1.86,9.91
49.561869,4.465636,35.27,-1.02,2.58,10.32
49.561869,4.465636,35.27,-1.14,1.7,10.06
49.561611,4.465343,35.46,-0.98,1.88,9.89
49.561611,4.465343,35.46,-1.73,-0.01,7.03
49.561352,4.465045,35.59,-1.15,1.3,10.79
49.561352,4.465045,35.59,-0.65,-0.33,8.85
49.561103,4.464746,34.83,-0.74,0.96,10.86
49.560857,4.464465,33.57,-1.13,1.03,9.39
49.560857,4.464465,33.57,-1.1,-0.07,10.35
49.560616,4.464191,32.99,-1.55,0.94,9.78
49.560616,4.464191,32.99,-0.44,1.88,10.25
49.560383,4.463923,32.3,0.47,1.24,9.04
49.560383,4.463923,32.3,-0.23,1.64,8.83
49.560159,4.463657,31.74,1.39,1.86,10.04
49.560159,4.463657,31.74,-1.19,1.27,8.32
49.559946,4.46338,31.33,-0.45,1.55,10.87
49.559946,4.46338,31.33,-2.45,1.18,10.77
49.559731,4.4631,31.45,-1.44,1.46,9.08
49.559731,4.4631,31.45,-1.91,1.57,9.07
49.559517,4.46281,31.74,-0.58,1.31,11.14
49.559517,4.46281,31.74,-2.78,1.4,10.31
49.559301,4.462519,32.15,-2.26,1.52,8.82
49.559301,4.462519,32.15,-2.45,1.38,9.75
49.559078,4.462229,32.41,0.1,1.28,10.19
49.559078,4.462229,32.41,-0.04,1.54,10.17
49.558863,4.461926,32.71,-0.19,1.11,10.3
49.558863,4.461926,32.71,-1.93,1.61,10.54
49.558645,4.461629,32.89,0.22,1.08,8.93
49.558645,4.461629,32.89,0.13,1.3,10.7
49.558425,4.461323,32.97,-1.3,1.71,11.53
49.558425,4.461323,32.97,-1.51,1.28,8.9
49.558208,4.461017,33.14,-1.48,2.21,9.76
49.558208,4.461017,33.14,-2.26,1.62,10.69
49.557988,4.460697,33.3,0.08,1.94,8.75
49.557988,4.460697,33.3,-0.66,2.29,9.97
49.557775,4.460375,33.48,-1.77,0.79,9.81
49.557775,4.460375,33.48,-1.68,2.11,10.14
49.557565,4.460049,33.42,0.15,1.18,10.56
49.557565,4.460049,33.42,-2.4,0.98,10.47
49.557349,4.459723,33.48,-1.0,0.16,8.52
49.557349,4.459723,33.48,-1.61,1.07,9.73
49.55714,4.459398,33.46,-0.95,1.43,9.05
49.55714,4.459398,33.46,-1.2,2.35,10.62
49.55694,4.459073,33.59,0.2,1.3,10.2
49.55694,4.459073,33.59,-0.71,1.0,9.73
49.556727,4.458747,33.63,-0.72,1.13,10.03
49.556727,4.458747,33.63,-1.73,1.6,9.35
49.556522,4.458408,33.68,-0.55,1.0,11.2
49.556317,4.458069,33.82,-0.55,2.07,9.13
49.556317,4.458069,33.82,-0.68,1.62,10.7
49.556115,4.457727,33.8,-0.57,1.14,9.06
49.556115,4.457727,33.8,-0.83,1.18,9.16
49.555912,4.457373,33.77,-0.41,0.71,9.31
49.555912,4.457373,33.77,-1.38,1.23,10.64
49.555706,4.457022,33.68,-0.16,0.68,8.97
49.555706,4.457022,33.68,-0.32,2.08,10.15
49.555508,4.456657,33.56,-0.61,1.22,10.51
49.555508,4.456657,33.56,-1.91,2.02,11.7
49.555313,4.456299,33.62,1.23,1.41,10.87
49.555313,4.456299,33.62,-2.4,1.7,9.47
49.555119,4.455938,33.63,1.25,1.55,10.28
49.555119,4.455938,33.63,-0.73,2.08,8.24
49.554923,4.455577,33.64,-2.41,1.46,10.59
49.554923,4.455577,33.64,0.04,1.33,9.22
49.554733,4.455207,33.64,-1.8,1.65,10.52
49.554733,4.455207,33.64,-1.97,0.77,7.82
49.554548,4.454838,33.75,-1.7,1.79,10.73
49.554548,4.454838,33.75,-0.75,1.72,9.28
49.55436,4.454466,33.77,1.1,1.45,11.24
49.55436,4.454466,33.77,-1.62,2.71,8.97
49.554173,4.454104,33.97,-0.58,1.3,9.91
49.554173,4.454104,33.97,-0.25,1.69,9.02
49.553991,4.45373,34.13,-0.77,2.31,10.0
49.553991,4.45373,34.13,-0.44,0.82,10.05
49.553814,4.453341,34.21,-0.32,0.71,8.89
49.553814,4.453341,34.21,-1.14,0.47,10.15
49.553637,4.45295,34.2,-0.64,1.29,10.88
49.553637,4.45295,34.2,-0.01,2.03,10.57
49.553469,4.452567,33.61,-0.67,0.86,9.38
49.553469,4.452567,33.61,-1.28,1.59,9.38
49.553304,4.452184,33.41,0.83,1.35,10.17
49.553304,4.452184,33.41,-0.78,2.05,9.78
49.553139,4.451804,33.39,-1.01,1.12,7.6
49.553139,4.451804,33.39,-3.02,1.76,9.32
49.55297,4.451409,33.43,1.5,1.93,11.37
49.55297,4.451409,33.43,-1.99,1.74,10.19
49.552804,4.45101,33.51,-0.31,1.31,7.99
49.552804,4.45101,33.51,1.09,1.65,10.2
49.552642,4.450615,33.61,-1.8,1.34,7.35
49.552488,4.450217,33.7,-0.22,2.52,9.49
49.552488,4.450217,33.7,-1.89,0.93,10.87
49.552344,4.449804,33.63,-1.63,2.31,9.69
49.552344,4.449804,33.63,-0.32,1.05,11.47
49.552195,4.449392,33.5,-1.8,0.45,9.94
49.552195,4.449392,33.5,-0.54,1.65,10.23
49.552047,4.448986,33.34,0.82,1.64,10.06
49.552047,4.448986,33.34,-1.16,0.94,9.75
49.551896,4.448589,33.4,-1.42,0.57,9.1
49.551896,4.448589,33.4,-0.62,1.12,10.44
49.551742,4.448188,33.44,-2.01,1.45,10.36
49.551742,4.448188,33.44,-0.38,1.19,10.59
49.551582,4.447798,33.33,-1.58,2.03,9.52
49.551582,4.447798,33.33,-2.36,0.35,8.33
49.551427,4.447401,33.27,-0.66,2.01,11.73
49.551427,4.447401,33.27,-0.59,0.77,13.69
49.551271,4.44701,33.23,-0.47,1.37,10.35
49.551271,4.44701,33.23,-2.49,2.03,8.1
49.551114,4.446617,33.2,-0.69,1.82,7.97
49.551114,4.446617,33.2,-1.04,0.71,10.37
49.550959,4.446221,33.28,-1.16,0.96,8.92
49.550959,4.446221,33.28,-1.82,0.98,7.9
49.550802,4.44583,33.32,-2.35,1.9,8.78
49.550802,4.44583,33.32,1.09,0.86,10.85
49.550642,4.445444,33.3,-2.34,1.05,8.29
49.550642,4.445444,33.3,-2.1,-0.19,8.32
49.550484,4.445056,33.24,-2.29,1.56,9.45
49.550484,4.445056,33.24,-2.8,0.14,8.57
49.550322,4.444675,33.09,-0.36,0.65,9.6
49.550322,4.444675,33.09,-1.75,1.61,10.0
49.550154,4.444303,32.95,-1.41,0.26,9.68
49.550154,4.444303,32.95,-0.03,0.86,10.4
49.549985,4.443926,32.87,-2.46,1.04,9.92
49.549985,4.443926,32.87,-1.62,0.54,8.91
49.549814,4.443554,32.92,-1.92,1.39,10.18
49.549814,4.443554,32.92,-2.14,1.33,10.0
49.549639,4.443175,32.9,-0.3,1.24,8.97
49.549639,4.443175,32.9,-1.38,1.35,8.36
49.549463,4.442817,32.98,-0.62,0.24,10.49
49.549463,4.442817,32.98,-1.45,1.18,10.6
49.549289,4.442456,33.01,-2.42,0.17,8.83
49.54911,4.442094,33.01,-2.29,1.2,9.52
49.54911,4.442094,33.01,-1.03,1.0,8.98
49.548932,4.441728,33.15,-2.05,0.96,8.91
49.548932,4.441728,33.15,-2.22,0.62,9.66
49.54875,4.441364,33.17,-0.53,0.95,9.63
49.54875,4.441364,33.17,-0.45,0.64,9.97
49.54857,4.441003,33.26,-0.66,0.58,7.9
49.54857,4.441003,33.26,-3.15,0.71,10.0
49.548378,4.440651,33.33,-1.11,1.68,9.72
49.548378,4.440651,33.33,-0.8,1.19,9.89
49.548181,4.440298,33.68,-1.13,0.72,9.52
49.548181,4.440298,33.68,-1.47,1.84,8.7
49.547979,4.439945,33.86,-0.94,0.13,8.45
49.547979,4.439945,33.86,-0.83,0.82,9.76
49.547781,4.439588,33.81,-2.01,0.98,9.09
49.547781,4.439588,33.81,-1.34,0.6,12.88
49.547583,4.439233,33.75,-2.89,0.87,8.83
49.547583,4.439233,33.75,-0.68,1.73,11.35
49.547383,4.438884,33.78,-2.23,1.08,10.92
49.547383,4.438884,33.78,0.24,0.87,10.2
49.547175,4.438542,33.79,-1.6,0.48,8.9
49.547175,4.438542,33.79,-1.66,0.87,9.73
49.546968,4.4382,33.99,-2.31,0.28,9.4
49.546968,4.4382,33.99,-1.58,0.7,8.53
49.54676,4.437861,33.99,-2.24,1.34,11.11
49.54676,4.437861,33.99,-0.5,-0.03,10.95
49.546552,4.437524,34.02,-2.68,-3.06,39.1
49.546552,4.437524,34.02,-3.9,0.36,9.5
49.546339,4.437188,34.03,-1.02,0.73,7.69
49.546339,4.437188,34.03,-1.69,3.12,-1.55
49.546117,4.436851,33.99,-2.87,1.25,10.89
49.546117,4.436851,33.99,-0.27,0.99,10.17
49.545897,4.436511,33.99,-1.92,1.67,10.98
49.545897,4.436511,33.99,-1.18,1.7,10.57
49.545684,4.436186,33.95,0.45,1.73,10.51
49.545684,4.436186,33.95,-2.25,0.88,9.89
49.545473,4.435865,33.78,-0.59,1.51,9.5
49.545473,4.435865,33.78,-1.8,1.1,8.22
49.545257,4.435548,33.9,0.06,0.8,11.26
49.545038,4.435239,33.92,-2.24,0.47,7.85
49.545038,4.435239,33.92,-1.56,1.0,9.46
49.544817,4.434911,33.78,-0.5,0.62,8.95
49.544817,4.434911,33.78,-2.39,1.32,9.15
49.544597,4.434584,33.69,0.08,1.04,10.84
49.544597,4.434584,33.69,-1.67,1.49,9.69
49.544369,4.434271,33.6,-1.17,-0.86,25.18
49.544369,4.434271,33.6,-1.0,0.48,8.96
49.544135,4.433967,33.57,-1.57,0.33,8.94
49.544135,4.433967,33.57,-2.24,1.49,9.68
49.5439,4.433668,33.51,-1.66,0.06,8.3
49.5439,4.433668,33.51,-1.26,1.17,10.01
49.543668,4.433368,33.44,0.25,1.8,10.07
49.543668,4.433368,33.44,-3.76,0.78,8.42
49.543435,4.433074,33.39,-0.82,0.52,8.7
49.543435,4.433074,33.39,-2.25,0.77,10.16
49.543199,4.432784,33.33,-0.45,0.55,10.97
49.543199,4.432784,33.33,-1.03,0.94,10.52
49.542966,4.432494,33.27,-1.58,1.01,8.88
49.542966,4.432494,33.27,-2.36,1.0,10.09
49.542727,4.432216,33.23,-2.39,1.17,10.06
49.542727,4.432216,33.23,-1.22,0.38,9.73
49.542491,4.431933,33.19,-1.98,1.71,9.75
49.542491,4.431933,33.19,-1.53,0.08,8.91
49.54225,4.431664,33.19,-1.4,0.28,9.93
49.54225,4.431664,33.19,-0.79,2.05,12.28
49.542005,4.431398,33.22,-0.85,1.39,10.75
49.542005,4.431398,33.22,-3.31,1.71,10.07
49.541757,4.431145,33.32,-1.95,0.53,8.6
49.541757,4.431145,33.32,-2.06,1.6,10.73
49.541506,4.430896,33.15,-1.64,1.35,11.68
49.541506,4.430896,33.15,-0.32,0.85,11.4
49.541258,4.430642,33.23,-0.96,0.69,9.7
49.541258,4.430642,33.23,-0.09,1.4,8.63
49.541006,4.430395,33.25,-2.69,1.36,8.85
49.541006,4.430395,33.25,-2.33,0.57,8.74
49.540757,4.430142,33.24,-2.42,0.86,8.84
49.540757,4.430142,33.24,-2.71,1.24,10.41
49.540504,4.429896,33.15,-1.28,0.78,9.72
49.540504,4.429896,33.15,-2.65,1.49,9.62
49.540249,4.429652,33.23,-1.04,1.76,8.13
49.539993,4.429414,33.21,0.43,0.9,9.81
49.539993,4.429414,33.21,-0.6,1.18,9.53
49.53974,4.429167,33.22,-0.42,1.03,10.6
49.53974,4.429167,33.22,-1.7,1.87,11.81
49.539486,4.428923,33.21,-1.91,0.24,8.04
49.539486,4.428923,33.21,0.48,1.42,9.84
49.539229,4.428693,33.21,-1.57,2.01,11.99
49.539229,4.428693,33.21,-0.41,1.63,10.28
49.53897,4.428465,33.21,-1.53,1.01,8.94
49.53897,4.428465,33.21,-1.1,0.78,9.64
49.538713,4.428233,33.22,-1.5,1.03,11.55
49.538713,4.428233,33.22,-0.73,2.11,12.04
49.538453,4.428006,33.13,0.08,1.95,8.76
49.538453,4.428006,33.13,-1.06,1.6,10.3
49.538195,4.427783,33.14,-0.7,0.67,9.52
49.538195,4.427783,33.14,-0.12,1.37,11.03
49.537932,4.427567,33.03,-2.93,1.78,10.79
49.537932,4.427567,33.03,0.27,0.51,9.98
49.537673,4.427353,32.89,-0.76,1.5,10.43
49.537673,4.427353,32.89,-0.51,1.69,9.44
49.53741,4.42714,32.75,-1.18,2.29,10.51
49.53741,4.42714,32.75,-1.21,1.05,7.86
49.537151,4.426923,32.62,-1.2,0.7,10.05
49.537151,4.426923,32.62,-1.88,0.28,9.8
49.536893,4.42671,32.62,0.6,2.17,11.21
49.536893,4.42671,32.62,-2.01,0.85,8.66
49.536637,4.426497,32.31,-1.56,1.88,9.16
49.536637,4.426497,32.31,-1.33,1.92,8.73
49.536381,4.426292,32.19,-0.19,1.43,10.66
49.536381,4.426292,32.19,-1.98,1.15,10.42
49.536127,4.426083,32.05,-0.29,1.54,9.16
49.536127,4.426083,32.05,-2.22,1.47,9.62
49.535879,4.42586,31.85,-2.73,0.56,8.67
49.535879,4.42586,31.85,-1.09,1.41,12.44
49.535625,4.425651,31.75,-3.35,1.25,7.09
49.535625,4.425651,31.75,-1.0,1.94,5.76
49.535376,4.425441,31.53,-1.75,0.68,10.19
49.535376,4.425441,31.53,-1.41,0.62,10.09
49.535128,4.425224,31.43,-1.72,1.17,8.43
49.535128,4.425224,31.43,-0.49,2.01,10.31
49.53488,4.425012,31.36,-2.0,1.66,10.05
49.534635,4.4248,31.29,-2.49,0.94,9.28
49.534635,4.4248,31.29,-0.35,1.54,12.41
49.534393,4.424587,31.13,1.3,0.93,4.46
49.534393,4.424587,31.13,-2.73,1.57,10.24
49.534145,4.424381,31.04,-1.98,2.32,9.44
49.534145,4.424381,31.04,-1.8,1.61,10.19
49.5339,4.424174,30.85,-0.6,1.97,10.33
49.5339,4.424174,30.85,-1.92,1.95,10.11
49.533651,4.423979,30.96,-1.63,1.68,9.89
49.533651,4.423979,30.96,1.34,2.09,9.4
49.53341,4.423783,30.83,-0.91,1.29,10.64
49.53341,4.423783,30.83,-1.51,1.61,8.49
49.533172,4.423576,30.76,-2.39,0.78,8.72
49.533172,4.423576,30.76,-0.56,2.49,12.96
49.532935,4.423369,30.72,-0.05,1.73,10.93
49.532935,4.423369,30.72,-2.09,1.33,9.77
49.532698,4.423162,30.75,-0.65,1.08,10.23
49.532698,4.423162,30.75,-0.87,1.77,8.86
49.532459,4.422963,30.88,-2.03,0.87,9.08
49.532459,4.422963,30.88,-1.12,1.42,9.3
49.532216,4.422765,30.94,-1.13,1.24,8.32
49.532216,4.422765,30.94,-0.19,2.21,10.53
49.531973,4.422567,31.0,-2.39,1.36,9.15
49.531973,4.422567,31.0,-0.48,1.83,10.49
49.531727,4.422355,30.97,-0.81,1.98,9.7
49.531727,4.422355,30.97,-1.0,1.93,8.09
49.531483,4.422148,31.1,-1.83,2.04,9.72
49.531483,4.422148,31.1,-0.4,1.45,9.1
49.531243,4.421916,31.29,-0.53,1.86,10.67
49.531243,4.421916,31.29,-0.66,1.01,10.64
49.530999,4.421684,31.38,0.24,1.56,7.79
49.530999,4.421684,31.38,-0.04,2.64,10.29
49.53075,4.421452,31.51,-0.62,1.93,8.56
49.53075,4.421452,31.51,-0.38,2.31,11.02
49.530501,4.421225,31.66,-0.84,1.68,10.57
49.530501,4.421225,31.66,0.24,2.16,10.3
49.530249,4.421003,31.81,-2.52,1.44,9.12
49.530249,4.421003,31.81,-0.1,2.05,10.17
49.529997,4.420778,31.96,0.47,2.29,11.17
49.529997,4.420778,31.96,-0.48,1.7,11.19
49.529752,4.42053,32.2,-0.43,0.71,7.87
49.529518,4.420256,32.3,-0.22,1.88,10.85
49.529518,4.420256,32.3,-1.68,0.86,9.49
49.529283,4.419998,32.48,0.24,1.85,10.73
49.529283,4.419998,32.48,-0.31,1.8,11.59
49.529047,4.419733,32.6,0.1,1.98,11.19
49.529047,4.419733,32.6,-2.29,0.79,9.57
49.528811,4.419466,32.87,-0.41,1.97,10.34
49.528811,4.419466,32.87,-1.47,1.9,10.46
49.528574,4.419196,33.06,-0.81,1.82,8.59
49.528574,4.419196,33.06,-0.4,1.05,8.92
49.528339,4.418916,33.26,0.05,1.33,9.15
49.528339,4.418916,33.26,0.24,2.1,9.96
49.528102,4.418629,33.45,-0.26,1.78,11.25
49.528102,4.418629,33.45,-0.53,1.97,8.77
49.527869,4.418336,33.62,-1.87,3.55,16.15
49.527869,4.418336,33.62,-0.4,1.21,9.35
49.527632,4.418048,33.71,-1.95,1.33,9.3
49.527632,4.418048,33.71,-0.42,0.75,10.8
49.527404,4.417751,33.71,-0.71,1.39,9.0
49.527404,4.417751,33.71,-1.18,2.22,8.38
49.527171,4.417441,33.41,-0.39,2.2,10.46
49.527171,4.417441,33.41,0.35,1.61,9.77
49.526942,4.417122,33.47,-1.1,0.53,7.68
49.526942,4.417122,33.47,0.52,1.12,8.58
49.526727,4.416802,33.6,-0.59,2.22,11.15
49.526727,4.416802,33.6,-0.18,1.7,9.37
49.52651,4.41648,33.64,-1.35,1.23,8.9
49.52651,4.41648,33.64,-1.91,1.01,9.92
49.526293,4.416163,33.73,0.08,0.77,8.94
49.526293,4.416163,33.73,0.19,2.53,12.16
49.526088,4.415827,33.82,-0.22,1.23,9.16
49.526088,4.415827,33.82,-0.13,1.98,11.1
49.525882,4.415499,33.92,-2.08,2.12,10.24
49.525882,4.415499,33.92,-1.72,-0.07,7.34
49.525673,4.415165,33.95,0.45,2.4,10.41
49.525673,4.415165,33.95,-0.28,1.7,10.31
49.525463,4.414816,33.85,0.95,1.54,10.8
49.525463,4.414816,33.85,-1.0,2.46,9.51
49.525264,4.414461,34.16,-1.25,1.96,9.45
49.525264,4.414461,34.16,-0.49,1.53,9.84
49.525076,4.414091,34.21,1.39,1.89,11.0
49.525076,4.414091,34.21,-1.43,1.69,7.32
49.524887,4.413722,34.42,0.77,1.38,10.79
49.524677,4.413351,34.65,0.32,1.81,9.58
49.524677,4.413351,34.65,0.29,1.84,8.33
49.524476,4.412964,34.92,0.69,2.61,10.63
49.524476,4.412964,34.92,0.06,2.71,11.12
49.52428,4.41259,35.22,-1.39,1.32,10.45
49.52428,4.41259,35.22,-1.4,1.83,9.96
49.524095,4.412207,34.8,-0.98,1.93,9.8
49.524095,4.412207,34.8,0.4,2.05,6.95
49.523909,4.41183,34.52,0.79,1.18,10.88
49.523909,4.41183,34.52,-0.58,0.76,9.57
49.523726,4.411443,34.56,-0.4,1.1,10.69
49.523726,4.411443,34.56,-0.78,1.36,9.43
49.523546,4.411059,34.23,-0.33,0.14,10.4
49.523546,4.411059,34.23,-0.51,0.26,10.13
49.523374,4.410672,33.68,-1.52,1.6,11.25
49.523374,4.410672,33.68,-1.12,0.26,10.01
49.5232,4.410303,33.4,-2.35,1.28,8.79
49.5232,4.410303,33.4,1.44,1.55,11.54
49.523023,4.409926,33.43,-1.53,0.45,10.19
49.523023,4.409926,33.43,-1.0,0.95,9.18
49.52285,4.409544,33.39,-1.69,1.3,9.84
49.52285,4.409544,33.39,-2.05,0.87,9.04
49.52268,4.409156,33.43,0.26,1.08,11.35
49.52268,4.409156,33.43,-0.38,0.73,8.58
49.522509,4.408771,33.58,-1.86,1.66,11.08
49.522509,4.408771,33.58,-1.11,1.95,11.6
49.522345,4.408386,33.71,-1.98,1.66,9.78
49.522345,4.408386,33.71,-0.04,1.49,10.38
49.522178,4.407996,33.89,-2.95,1.07,11.0
49.522178,4.407996,33.89,-1.02,0.92,10.52
49.522007,4.4076,34.05,-0.26,0.74,10.25
49.522007,4.4076,34.05,-0.59,0.69,9.57
49.521844,4.407205,33.99,-0.43,0.69,9.15
49.521844,4.407205,33.99,-1.76,-0.02,9.51
49.52168,4.40682,33.91,0.06,1.12,14.32
49.52168,4.40682,33.91,-0.0,1.26,10.51
49.521513,4.406431,33.8,0.23,2.09,11.6
49.521513,4.406431,33.8,0.04,1.75,11.1
49.521348,4.406043,33.66,-1.37,0.65,10.17
49.521348,4.406043,33.66,0.11,0.67,10.89
49.52118,4.405664,33.53,-0.89,1.16,8.88
49.521016,4.405282,33.27,-1.15,1.04,9.92
49.521016,4.405282,33.27,-0.48,1.43,11.42
49.520853,4.404894,33.03,-1.03,0.72,10.85
49.520853,4.404894,33.03,-1.81,1.12,10.79
49.520688,4.404516,32.98,-2.06,1.63,11.02
49.520688,4.404516,32.98,-0.4,1.3,10.87
49.520522,4.40414,32.84,-1.56,0.44,6.56
49.520522,4.40414,32.84,-1.09,0.31,10.28
49.520362,4.40376,32.55,-0.64,0.92,11.58
49.520362,4.40376,32.55,-1.36,0.02,10.09
49.520207,4.403377,31.75,-1.33,1.21,8.37
49.520207,4.403377,31.75,-2.41,0.42,8.91
49.520049,4.403006,31.18,-1.02,-0.03,11.21
49.520049,4.403006,31.18,0.26,1.75,8.66
49.519895,4.402643,30.59,-0.7,1.03,10.12
49.519895,4.402643,30.59,0.43,0.59,11.47
49.519755,4.402285,30.24,-1.67,0.95,8.75
49.519755,4.402285,30.24,-0.18,0.45,11.0
49.519609,4.401941,29.94,0.23,1.36,10.32
49.519609,4.401941,29.94,-1.49,2.83,10.24
49.519464,4.401598,29.71,-0.87,1.17,11.43
49.519464,4.401598,29.71,-1.36,1.07,7.99
49.519329,4.401254,29.42,-0.61,2.07,7.37
49.519329,4.401254,29.42,1.68,2.26,7.61
49.519196,4.400907,28.94,-0.8,0.99,9.39
49.519196,4.400907,28.94,-2.04,0.85,7.26
49.519073,4.400574,28.5,0.37,1.15,8.78
49.519073,4.400574,28.5,1.24,1.88,9.08
49.518957,4.400235,28.22,-0.55,1.08,8.68
49.518957,4.400235,28.22,-0.13,1.33,9.28
49.518849,4.399885,27.9,-0.97,1.29,10.86
49.518849,4.399885,27.9,0.87,1.13,9.68
49.518751,4.399535,28.0,-0.15,2.14,9.91
49.518751,4.399535,28.0,-0.7,2.48,9.22
49.518654,4.399171,28.18,-1.0,1.24,9.45
49.518654,4.399171,28.18,-0.37,1.3,11.22
49.518559,4.398808,28.45,-0.46,1.87,9.69
49.518559,4.398808,28.45,-0.8,1.9,10.14
49.518475,4.39843,28.6,-0.06,2.01,9.72
49.518475,4.39843,28.6,-1.02,1.67,9.74
49.518393,4.398055,28.76,0.66,2.19,8.3
49.518324,4.397672,28.83,-0.12,2.47,10.24
49.518324,4.397672,28.83,0.87,1.77,9.8
49.518252,4.39729,28.99,-0.35,2.1,9.46
49.518252,4.39729,28.99,0.18,1.41,11.24
49.518192,4.396904,29.05,-0.78,2.52,10.18
49.518192,4.396904,29.05,-0.17,1.68,8.78
49.518135,4.396507,29.34,0.06,2.7,8.99
49.518135,4.396507,29.34,0.91,2.79,9.17
49.518084,4.396106,29.61,-0.03,1.57,11.81
49.518084,4.396106,29.61,-1.87,1.22,11.58
49.518042,4.3957,29.7,-0.99,1.79,8.2
49.518042,4.3957,29.7,-0.92,1.51,9.11
49.517998,4.395292,29.95,0.57,1.75,9.73
49.517998,4.395292,29.95,-0.46,1.43,12.08
49.517949,4.394885,30.05,-0.88,2.11,11.87
49.517949,4.394885,30.05,-0.21,1.4,10.12
49.517919,4.394461,30.31,0.62,2.62,8.14
49.517919,4.394461,30.31,1.26,1.38,8.6
49.517899,4.394044,30.26,0.43,2.09,11.59
49.517899,4.394044,30.26,-0.19,0.91,8.25
49.517884,4.393625,30.12,-0.53,1.24,9.02
49.517884,4.393625,30.12,0.82,1.77,11.2
49.517875,4.393202,30.28,-0.11,1.32,10.51
49.517875,4.393202,30.28,0.06,1.05,10.95
49.517883,4.392775,30.45,-0.48,2.2,11.08
49.517883,4.392775,30.45,-0.7,1.89,11.09
49.517895,4.392342,30.51,-0.84,0.9,8.96
49.517895,4.392342,30.51,-0.56,1.45,7.99
49.517917,4.391923,30.98,-2.14,1.0,10.68
49.517917,4.391923,30.98,0.51,1.44,8.58
49.517945,4.391497,31.05,-1.24,1.15,10.26
49.517945,4.391497,31.05,-0.62,1.57,10.71
49.517971,4.391083,31.37,-0.39,2.17,11.37
49.517971,4.391083,31.37,0.07,2.16,9.75
49.518,4.390661,31.25,-1.01,0.95,9.66
49.518,4.390661,31.25,0.79,1.22,10.06
49.518038,4.390242,31.36,0.89,1.83,10.19
49.518038,4.390242,31.36,0.28,1.67,10.57
49.518088,4.389818,31.97,-0.8,0.77,9.38
49.518088,4.389818,31.97,-0.71,1.74,8.54
49.51815,4.389402,31.99,0.74,1.47,9.62
49.518216,4.388973,32.1,1.09,1.9,10.17
49.518216,4.388973,32.1,0.45,0.77,9.84
49.518289,4.388539,32.46,1.02,1.74,11.58
49.518289,4.388539,32.46,-0.34,2.71,11.08
49.518378,4.388113,32.6,-0.5,1.46,8.9
49.518378,4.388113,32.6,-0.48,1.56,8.33
49.518475,4.387688,32.78,0.29,0.21,7.94
49.518475,4.387688,32.78,1.17,1.73,11.41
49.518577,4.38726,32.33,-0.11,1.21,11.41
49.518577,4.38726,32.33,-0.15,0.38,9.47
49.518684,4.386847,32.02,-0.1,1.74,8.51
49.518684,4.386847,32.02,-1.68,0.9,8.04
49.518788,4.386455,31.62,1.54,1.17,10.52
49.518788,4.386455,31.62,1.26,0.4,12.19
49.518904,4.386056,31.12,1.47,0.18,11.17
49.518904,4.386056,31.12,-0.96,1.76,8.52
49.519032,4.385682,30.87,0.52,1.32,8.83
49.519032,4.385682,30.87,-1.18,-0.3,9.38
49.519168,4.385306,30.38,-0.53,0.93,9.49
49.519168,4.385306,30.38,-0.23,0.24,11.13
49.519297,4.384922,30.1,0.97,1.05,9.09
49.519297,4.384922,30.1,-0.85,2.08,11.46
49.519425,4.38456,29.64,-0.05,-1.17,12.41
49.519425,4.38456,29.64,-0.77,0.5,11.27
49.519552,4.384212,29.33,-0.71,1.31,10.04
49.519552,4.384212,29.33,-0.91,1.19,10.18
49.519679,4.383858,28.88,-1.37,1.33,9.45
49.519679,4.383858,28.88,0.91,1.56,9.82
49.519797,4.383519,28.65,-1.04,1.31,9.53
49.519797,4.383519,28.65,-0.77,1.32,10.14
49.519909,4.383177,28.55,-0.81,1.16,11.62
49.519909,4.383177,28.55,-1.37,0.91,7.58
49.520029,4.382835,28.4,-0.45,1.13,7.15
49.520029,4.382835,28.4,-1.57,0.75,8.43
49.520152,4.382478,28.29,0.41,0.95,9.41
49.520152,4.382478,28.29,-0.46,1.07,10.48
49.520273,4.382133,28.03,-2.21,0.34,9.83
49.520273,4.382133,28.03,-0.86,1.34,10.48
49.520397,4.381789,28.15,-0.02,1.27,11.17
49.520397,4.381789,28.15,-1.06,1.49,11.22
49.520516,4.381446,28.29,-2.18,1.47,10.58
49.520516,4.381446,28.29,-0.97,1.42,10.87
49.520635,4.381102,28.46,-0.86,1.72,10.68
49.520749,4.380762,28.58,-1.32,0.7,10.74
49.520749,4.380762,28.58,-1.4,1.47,8.87
49.520866,4.380406,28.74,-2.03,1.57,8.61
49.520866,4.380406,28.74,-1.25,1.64,9.24
49.520986,4.380059,28.76,-1.83,1.97,10.73
49.520986,4.380059,28.76,-1.34,1.17,9.64
49.521109,4.3797,28.9,-0.27,1.52,10.16
49.521109,4.3797,28.9,0.19,1.28,11.88
49.521232,4.379345,29.15,-0.89,0.47,9.24
49.521232,4.379345,29.15,-0.1,1.24,10.37
49.521357,4.378984,29.36,-1.61,1.15,8.79
49.521357,4.378984,29.36,-2.34,1.7,8.08
49.521483,4.378626,29.57,-1.65,1.05,10.54
49.521483,4.378626,29.57,0.32,1.75,10.04
49.521608,4.378261,29.79,0.11,1.58,10.76
49.521608,4.378261,29.79,-1.04,0.81,9.68
49.521735,4.377902,30.03,-1.95,1.44,8.68
49.521735,4.377902,30.03,-1.36,1.28,11.89
49.521862,4.377535,30.09,-0.14,1.39,9.63
49.521862,4.377535,30.09,-1.08,1.0,8.94
49.521986,4.377169,30.27,-1.3,1.86,10.13
49.521986,4.377169,30.27,-1.13,0.98,10.92
49.522113,4.376795,30.41,-1.42,1.5,8.73
49.522113,4.376795,30.41,-1.08,1.59,12.07
49.522238,4.376413,30.48,-1.26,1.85,8.08
49.522238,4.376413,30.48,-0.84,1.27,10.42
49.522359,4.37603,30.49,-0.58,1.0,10.27
49.522359,4.37603,30.49,-1.43,0.68,8.71
49.522483,4.375651,30.22,-0.23,0.37,12.26
49.522483,4.375651,30.22,-1.21,1.39,7.02
49.522606,4.375281,29.68,-0.18,1.02,11.03
49.522606,4.375281,29.68,-1.25,0.31,10.47
49.522729,4.374925,29.47,-1.38,0.13,9.26
49.522729,4.374925,29.47,-2.88,0.79,8.14
49.522845,4.374562,29.48,-0.79,1.0,11.92
49.522845,4.374562,29.48,-3.16,0.92,10.77
49.522951,4.374205,29.27,-2.13,1.3,8.31
49.522951,4.374205,29.27,-1.78,1.29,8.93
49.523036,4.373829,29.77,-1.64,0.28,10.19
49.523036,4.373829,29.77,-2.58,0.24,8.91
49.523083,4.373416,29.46,-1.72,0.19,8.74
49.523136,4.373015,29.26,-0.89,0.74,9.47
49.523136,4.373015,29.26,-0.6,1.79,10.41
49.52318,4.372612,29.35,-1.17,0.98,10.25
49.52318,4.372612,29.35,-0.19,0.5,11.43
49.523222,4.372211,29.67,-1.71,1.27,10.41
49.523222,4.372211,29.67,-2.72,-0.03,9.19
49.523254,4.371817,29.2,-2.3,0.16,10.61
49.523254,4.371817,29.2,-2.24,0.1,9.76
49.523276,4.371433,28.64,-2.19,-0.3,8.38
49.523276,4.371433,28.64,-1.81,0.33,8.58
49.523284,4.371025,28.43,-0.68,0.95,8.81
49.523284,4.371025,28.43,-3.23,0.93,8.37
49.523294,4.370609,29.02,-1.04,0.74,9.18
49.523294,4.370609,29.02,-1.2,0.93,9.76
49.523297,4.370195,29.19,-1.29,1.61,8.79
49.523297,4.370195,29.19,-1.05,0.22,8.85
49.523279,4.369806,29.15,-1.05,-0.58,8.71
49.523279,4.369806,29.15,-1.11,0.78,9.56
49.523245,4.369403,28.81,-1.15,0.51,9.07
49.523245,4.369403,28.81,-0.3,1.05,9.76
49.523196,4.369024,28.46,-0.63,0.81,10.28
49.523196,4.369024,28.46,-0.45,1.03,10.85
49.523136,4.368652,28.11,-0.37,0.23,13.55
49.523136,4.368652,28.11,-0.04,0.53,8.38
49.523073,4.368281,28.01,-2.37,1.23,7.8
49.523073,4.368281,28.01,-1.49,1.05,10.76
49.522995,4.367919,27.81,-0.53,1.49,9.84
49.522995,4.367919,27.81,-0.66,1.27,11.08
49.522927,4.367548,27.6,-1.73,-0.34,9.13
49.522927,4.367548,27.6,-2.53,0.73,8.26
49.52286,4.367177,27.31,0.31,0.77,12.48
49.52286,4.367177,27.31,-0.17,1.55,10.98
49.522788,4.366829,27.01,0.03,0.9,9.37
49.522788,4.366829,27.01,-0.38,1.0,9.69
49.522718,4.366484,26.86,-0.84,0.54,10.68
49.522718,4.366484,26.86,-2.32,0.24,9.35
49.522656,4.366131,27.02,-2.28,1.15,9.47
49.522656,4.366131,27.02,-2.57,0.34,8.49
49.522594,4.365766,27.23,-0.18,1.12,10.08
49.522594,4.365766,27.23,1.77,1.02,10.52
49.522535,4.365405,27.3,-0.79,0.7,11.75
49.522468,4.365038,27.48,-0.95,0.82,10.59
49.522468,4.365038,27.48,-1.18,1.44,9.33
49.522397,4.364673,27.59,-1.86,1.19,9.59
49.522397,4.364673,27.59,-0.86,0.47,9.85
49.522326,4.364312,27.71,-1.77,1.46,10.01
49.522326,4.364312,27.71,-0.48,1.04,10.66
49.522257,4.363946,27.87,-1.51,0.12,7.8
49.522257,4.363946,27.87,-1.24,1.36,11.17
49.522183,4.363578,27.85,-1.76,1.1,7.76
49.522183,4.363578,27.85,-0.8,0.39,8.91
49.522109,4.363212,27.81,0.26,0.96,11.28
49.522109,4.363212,27.81,-1.17,1.14,9.75
49.522029,4.362846,27.86,-1.27,1.34,11.12
49.522029,4.362846,27.86,-1.48,0.56,8.78
49.521951,4.362474,27.92,-1.28,1.31,9.98
49.521951,4.362474,27.92,0.11,0.93,10.11
49.521875,4.362101,28.15,-2.9,0.77,10.09
49.521875,4.362101,28.15,0.85,1.9,11.73
49.521804,4.361722,28.34,0.09,1.58,11.34
49.521804,4.361722,28.34,0.35,1.47,10.03
49.521724,4.361355,28.5,0.32,0.6,9.89
49.521724,4.361355,28.5,-0.44,0.67,10.59
49.521639,4.360984,28.6,-0.15,0.98,10.0
49.521639,4.360984,28.6,-0.6,1.37,11.64
49.521557,4.360609,28.45,-0.75,1.03,10.9
49.521557,4.360609,28.45,-1.0,0.68,9.88
49.52148,4.360236,28.56,-0.52,1.1,10.81
49.52148,4.360236,28.56,-0.37,1.38,10.93
49.521391,4.359853,28.52,-1.5,1.48,10.98
49.521391,4.359853,28.52,-0.72,1.0,10.72
49.521311,4.359468,28.48,-1.5,1.72,9.01
49.521311,4.359468,28.48,-1.91,1.17,8.2
49.521237,4.359089,28.49,0.92,1.4,10.7
49.521237,4.359089,28.49,-0.11,1.64,9.66
49.521166,4.358712,28.47,-0.6,1.74,9.58
49.521166,4.358712,28.47,-0.61,1.23,8.65
49.521093,4.358337,28.53,-1.17,0.86,9.86
49.521093,4.358337,28.53,-1.37,1.21,9.63
49.521026,4.357967,28.64,-0.7,1.72,8.95
49.521026,4.357967,28.64,-1.72,1.32,9.53
49.520948,4.357589,28.63,-1.36,1.59,9.62
49.520948,4.357589,28.63,-2.42,1.47,7.93
49.520866,4.357213,28.71,0.48,1.18,9.9
49.520794,4.356828,28.64,0.55,1.01,12.0
49.520794,4.356828,28.64,-0.53,0.88,11.63
49.520714,4.356449,28.64,-1.36,1.03,10.39
49.520714,4.356449,28.64,0.61,0.85,10.84
49.520634,4.356068,28.53,-1.06,0.81,8.71
49.520634,4.356068,28.53,-0.04,0.44,10.35
49.520555,4.355684,28.63,-0.63,1.03,10.37
49.520555,4.355684,28.63,-0.23,0.66,11.04
49.520474,4.355305,28.59,-0.79,0.77,11.3
49.520474,4.355305,28.59,-1.81,0.53,10.51
49.520408,4.354921,28.59,-0.76,0.9,9.96
49.520408,4.354921,28.59,-2.08,1.81,9.19
49.520335,4.354546,28.64,-1.18,1.16,9.94
49.520335,4.354546,28.64,-0.67,1.53,9.86
49.520252,4.354173,28.63,-1.6,1.34,10.83
49.520252,4.354173,28.63,-3.04,0.92,10.17
49.520175,4.353795,28.67,-1.89,1.85,11.03
49.520175,4.353795,28.67,-1.58,0.93,10.4
49.520096,4.353411,28.49,-1.34,0.67,9.2
49.520096,4.353411,28.49,-1.65,1.03,10.46
49.519993,4.353045,28.57,-1.09,1.55,10.12
49.519993,4.353045,28.57,-2.07,1.12,9.88
49.519879,4.352681,28.25,-1.44,0.69,10.86
49.519879,4.352681,28.25,-1.76,-0.2,10.92
49.519766,4.352328,28.05,-0.92,1.1,11.13
49.519766,4.352328,28.05,-2.38,0.3,10.04
49.519643,4.351986,27.86,-0.87,1.73,9.52
49.519643,4.351986,27.86,-2.18,0.74,9.1
49.519513,4.351651,27.83,-1.82,0.7,10.57
49.519513,4.351651,27.83,-0.41,1.13,12.0
49.519388,4.351313,27.6,-2.66,1.12,7.86
49.519388,4.351313,27.6,-2.99,1.45,9.81
49.519259,4.35099,27.35,-0.88,0.99,10.42
49.519259,4.35099,27.35,-2.69,1.47,10.38
49.519123,4.350656,28.27,-1.93,0.77,10.42
49.519123,4.350656,28.27,-2.43,0.1,10.76
49.518978,4.350326,28.34,-1.97,0.36,10.0
49.518978,4.350326,28.34,-1.86,1.17,11.09
49.518822,4.350009,28.49,-1.87,0.86,10.62
49.518822,4.350009,28.49,-2.0,0.45,10.32
49.518657,4.349714,28.77,-1.28,0.91,11.91
49.518657,4.349714,28.77,-1.6,0.47,9.23
49.51849,4.349417,28.55,-1.58,0.9,10.47
49.518324,4.349132,28.48,-1.81,0.21,10.13
49.518324,4.349132,28.48,-3.31,-0.38,9.63
49.518148,4.348856,28.54,-0.9,0.31,8.71
49.518148,4.348856,28.54,-2.62,-0.53,9.05
49.517962,4.348601,28.38,-1.8,-0.29,9.05
49.517962,4.348601,28.38,-1.08,0.71,9.7
49.51778,4.34835,28.34,-3.03,-0.38,10.58
49.51778,4.34835,28.34,-1.49,1.77,9.28
49.517568,4.3481,28.28,-1.29,1.64,9.0
49.517568,4.3481,28.28,-2.91,0.53,9.64
49.517361,4.347845,28.2,-3.35,1.03,9.15
49.517361,4.347845,28.2,-2.14,0.9,8.68
49.517159,4.3476,28.22,-2.43,-0.16,8.01
49.517159,4.3476,28.22,-3.85,-0.63,8.73
49.51695,4.34738,27.74,-0.35,1.07,10.61
49.51695,4.34738,27.74,-1.44,0.53,8.66
49.516735,4.347192,27.49,-0.67,-0.05,8.89
49.516735,4.347192,27.49,-1.53,0.45,10.28
49.51652,4.347008,27.18,-1.3,0.68,8.67
49.51652,4.347008,27.18,-1.07,-0.1,10.55
49.5163,4.346836,26.93,-0.26,0.22,8.52
49.5163,4.346836,26.93,-0.05,0.87,10.64
49.516083,4.346664,26.71,-2.4,0.32,9.6
49.516083,4.346664,26.71,-2.08,0.91,10.15
49.515865,4.346506,26.51,-2.5,-0.33,10.13
49.515865,4.346506,26.51,-0.93,0.83,10.93
49.515645,4.346356,26.3,-1.71,1.12,10.69
49.515645,4.346356,26.3,-1.06,1.03,9.59
49.515424,4.34622,26.4,-1.36,0.74,9.53
49.515424,4.34622,26.4,-1.88,0.45,11.33
49.515199,4.346102,26.15,-1.79,0.45,9.68
49.515199,4.346102,26.15,-0.32,0.83,10.02
49.514978,4.345972,26.22,-1.05,0.73,9.75
49.514978,4.345972,26.22,-2.15,0.47,9.66
49.514752,4.345868,26.04,-1.5,1.0,10.05
49.514752,4.345868,26.04,-1.03,1.55,11.12
49.514524,4.345779,26.07,-1.59,1.8,8.94
49.514524,4.345779,26.07,-0.48,1.39,10.08
49.514297,4.345689,26.5,0.47,1.7,10.57
49.514297,4.345689,26.5,-0.19,2.12,9.2
49.514067,4.345601,26.99,-1.17,1.02,8.8
49.513831,4.345517,27.27,-1.91,0.59,11.47
49.513831,4.345517,27.27,-1.68,1.08,7.84
49.513591,4.345424,27.45,-1.04,0.57,10.52
49.513591,4.345424,27.45,-0.44,1.06,9.02
49.513356,4.345327,27.54,-1.14,1.28,10.25
49.513356,4.345327,27.54,-0.68,0.65,8.62
49.513115,4.345231,27.65,-1.3,1.24,10.34
49.513115,4.345231,27.65,-0.69,1.5,8.67
49.512874,4.345131,27.84,-2.64,0.4,9.25
49.512874,4.345131,27.84,-0.43,1.37,9.52
49.512632,4.345024,27.96,-1.39,1.12,11.36
49.512632,4.345024,27.96,-1.9,-0.11,10.75
49.512392,4.344922,28.04,0.55,2.04,10.51
49.512392,4.344922,28.04,-1.37,1.04,10.75
49.512146,4.344822,28.05,-1.54,0.54,7.88
49.512146,4.344822,28.05,-1.54,1.69,11.18
49.511903,4.344722,28.11,-2.44,0.79,10.27
49.511903,4.344722,28.11,-1.56,0.72,9.29
49.511652,4.344634,28.13,-1.39,0.68,9.45
49.511652,4.344634,28.13,-2.96,1.47,7.91
49.511404,4.344568,28.07,-2.18,0.78,9.6
49.511404,4.344568,28.07,-2.92,-0.15,8.99
49.511155,4.344518,28.02,-0.29,1.92,11.51
49.511155,4.344518,28.02,-1.39,1.0,9.13
49.510905,4.344479,28.29,-1.75,0.1,9.98
49.510905,4.344479,28.29,0.7,2.41,9.77
49.51065,4.344446,28.66,-1.67,-0.09,9.17
49.51065,4.344446,28.66,-1.12,1.45,12.29
49.510395,4.344415,28.81,-2.71,1.62,9.22
49.510395,4.344415,28.81,-2.0,1.95,9.53
49.510132,4.344418,28.78,-2.51,1.48,8.52
49.510132,4.344418,28.78,-1.76,0.82,9.74
49.509871,4.344434,28.71,-1.02,2.69,10.98
49.509871,4.344434,28.71,0.53,2.27,11.26
49.50961,4.344486,28.62,-2.15,1.41,10.91
49.50961,4.344486,28.62,-1.29,1.56,9.95
49.509353,4.344547,28.45,-1.06,1.76,11.17
49.509353,4.344547,28.45,-0.86,1.26,10.06
49.509093,4.344623,28.35,-1.62,0.98,9.6
49.509093,4.344623,28.35,-2.43,0.25,9.73
49.508842,4.344727,28.11,-1.31,0.2,8.96
49.508842,4.344727,28.11,-1.07,1.61,10.5
49.508599,4.344839,28.19,-2.39,-0.19,9.48
49.508599,4.344839,28.19,-1.16,0.53,10.76
49.508372,4.344969,27.9,-2.88,0.62,9.75
49.508143,4.345109,27.66,-1.28,0.48,10.07
49.508143,4.345109,27.66,-1.49,0.75,9.74
49.50792,4.345263,27.85,-0.86,0.23,11.05
49.50792,4.345263,27.85,-1.07,1.07,10.35
49.507706,4.345431,27.81,-2.06,1.14,8.64
49.507706,4.345431,27.81,-2.04,1.19,9.96
49.507488,4.345617,27.67,-1.42,0.86,10.13
49.507488,4.345617,27.67,-1.01,1.27,8.89
49.507275,4.345813,27.68,-2.78,0.14,9.05
49.507275,4.345813,27.68,-2.09,0.76,10.83
49.507065,4.346018,27.58,-1.49,0.14,10.01
49.507065,4.346018,27.58,-1.2,1.09,9.3
49.50686,4.346218,27.62,-0.56,0.86,11.48
49.50686,4.346218,27.62,-1.91,0.21,11.09
49.506658,4.346428,27.74,-0.98,0.54,9.51
49.506658,4.346428,27.74,-0.09,2.09,9.49
49.506462,4.346642,27.75,-0.91,1.21,8.66
49.506462,4.346642,27.75,-2.37,1.31,10.99
49.50626,4.346851,27.81,1.1,2.49,6.44
49.50626,4.346851,27.81,-0.54,1.44,9.15
49.50606,4.347065,27.74,-1.13,0.77,10.3
49.50606,4.347065,27.74,-0.3,1.37,10.29
49.505858,4.347278,27.86,-1.98,0.98,9.93
49.505858,4.347278,27.86,-0.76,2.32,10.52
49.505647,4.347498,27.82,-1.52,1.96,8.43
49.505647,4.347498,27.82,-0.45,1.76,10.4
49.505444,4.347716,27.87,-1.04,1.17,9.63
49.505444,4.347716,27.87,-0.22,1.4,10.02
49.505233,4.347938,28.05,-0.91,1.25,11.02
49.505233,4.347938,28.05,-0.97,1.24,9.75
49.505021,4.348157,28.16,-2.13,1.7,10.23
49.505021,4.348157,28.16,-0.15,2.03,9.21
49.504806,4.348374,28.34,-1.42,1.35,8.84
49.504806,4.348374,28.34,-2.5,1.65,9.09
49.504594,4.348582,28.49,-1.02,1.87,10.68
49.504594,4.348582,28.49,-2.19,1.1,8.92
49.50438,4.348802,28.62,-1.95,0.25,8.94
49.504163,4.349031,28.69,-1.17,1.99,8.07
49.504163,4.349031,28.69,-0.72,2.27,8.22
49.503947,4.349256,28.76,-1.51,1.72,10.5
49.503947,4.349256,28.76,-0.11,1.63,8.69
49.503733,4.349481,28.95,-1.77,0.79,9.75
49.503733,4.349481,28.95,-1.94,1.47,11.59
49.503521,4.349704,29.15,-1.19,1.82,10.91
49.503521,4.349704,29.15,-0.66,2.1,8.0
49.503303,4.349931,29.13,-0.81,2.57,8.26
49.503303,4.349931,29.13,0.17,1.61,10.32
49.503087,4.350156,29.13,-1.55,0.72,10.2
49.503087,4.350156,29.13,-2.31,0.29,9.66
49.502867,4.350386,29.2,-0.56,1.9,9.37
49.502867,4.350386,29.2,-1.86,1.28,8.76
49.502645,4.350613,29.15,-0.46,1.57,9.32
49.502645,4.350613,29.15,-1.07,0.46,10.31
49.502429,4.350834,29.21,-1.2,1.33,10.67
49.502429,4.350834,29.21,-2.6,0.49,8.71
49.50221,4.351059,29.29,-1.54,1.44,9.89
49.50221,4.351059,29.29,-0.57,1.26,10.01
49.501993,4.351289,29.25,-1.16,0.93,10.56
49.501993,4.351289,29.25,0.14,2.1,12.4
49.501777,4.351521,29.28,-0.76,1.87,9.48
49.501777,4.351521,29.28,0.14,1.21,8.31
49.50156,4.351756,29.21,0.26,1.12,10.61
49.50156,4.351756,29.21,-0.42,0.22,10.36
49.501345,4.351976,28.9,-1.08,0.81,10.5
49.501345,4.351976,28.9,-0.88,0.59,10.39
49.50113,4.352197,28.53,-0.1,1.75,10.48
49.50113,4.352197,28.53,-0.9,-0.29,9.8
49.500915,4.352418,28.61,-0.84,1.53,11.23
49.500915,4.352418,28.61,-0.32,1.63,10.6
49.500695,4.352628,28.75,-0.68,1.28,11.24
49.500695,4.352628,28.75,0.02,1.38,10.34
49.500463,4.352824,28.76,0.43,2.23,10.17
49.500463,4.352824,28.76,-0.34,1.51,9.85
49.500232,4.353016,28.8,-0.15,2.91,9.57
49.500232,4.353016,28.8,0.55,2.74,9.27
49.499998,4.353182,28.94,0.56,2.83,9.01
49.499753,4.35332,29.06,0.66,2.48,8.97
49.499753,4.35332,29.06,0.48,2.07,10.76
49.499503,4.353449,28.99,-0.86,1.81,10.51
49.499503,4.353449,28.99,-0.13,1.68,11.2
49.499246,4.353562,28.96,-0.81,1.41,10.48
49.499246,4.353562,28.96,-0.89,1.5,10.76
49.498987,4.353675,29.01,-1.99,1.98,8.33
49.498987,4.353675,29.01,0.21,2.41,9.96
49.498733,4.353775,29.14,0.15,1.5,8.27
49.498733,4.353775,29.14,-1.04,1.27,9.31
49.49848,4.353848,29.13,0.87,2.62,10.21
49.49848,4.353848,29.13,0.83,2.57,8.85
49.498224,4.353909,29.09,-0.12,1.78,9.51
49.498224,4.353909,29.09,1.2,1.9,10.87
49.497966,4.353934,29.2,1.9,2.26,9.64
49.497966,4.353934,29.2,-0.84,1.83,6.85
49.497704,4.353949,29.23,-0.68,1.85,9.74
49.497704,4.353949,29.23,1.42,0.96,11.35
49.497446,4.35394,29.05,0.15,1.46,9.11
49.497446,4.35394,29.05,0.16,2.08,7.19
49.497192,4.35392,28.75,0.32,1.51,9.37
49.497192,4.35392,28.75,1.14,1.68,10.1
49.49694,4.353886,28.79,-0.33,2.05,9.99
49.49694,4.353886,28.79,-1.47,1.37,10.11
49.496682,4.353849,28.93,-0.61,2.1,10.21
49.496682,4.353849,28.93,0.28,1.58,11.11
49.49642,4.353792,28.9,0.03,1.44,11.83
49.49642,4.353792,28.9,-0.12,1.64,10.22
49.49616,4.353717,28.99,0.22,1.83,10.13
49.49616,4.353717,28.99,0.11,2.62,10.91
49.495908,4.353611,29.08,-0.55,2.38,9.73
49.495908,4.353611,29.08,0.48,2.82,10.04
49.495665,4.353471,29.15,0.8,1.41,10.12
49.495665,4.353471,29.15,1.03,1.93,10.93
49.495425,4.353319,28.96,0.04,2.38,10.33
49.495425,4.353319,28.96,1.95,2.28,10.64
49.495182,4.353164,29.04,-0.74,1.94,10.94
49.495182,4.353164,29.04,0.14,2.02,10.38
49.494944,4.353004,29.06,0.13,1.83,10.68
49.49471,4.352823,29.0,-1.19,0.67,10.99
49.49471,4.352823,29.0,-1.78,0.43,10.48
49.494475,4.352641,28.93,-0.44,2.07,11.01
49.494475,4.352641,28.93,-0.04,1.26,10.78
49.494248,4.35245,28.87,-1.25,1.75,7.12
49.494248,4.35245,28.87,-2.42,1.42,7.84
49.49402,4.352247,28.71,-1.6,1.99,8.57
49.49402,4.352247,28.71,-1.36,1.58,10.62
49.493798,4.352045,28.61,-0.79,1.75,10.64
49.493798,4.352045,28.61,-0.74,2.81,10.99
49.493573,4.351856,28.55,-0.23,1.75,9.57
49.493573,4.351856,28.55,-0.18,1.87,9.47
49.493351,4.351661,28.39,-0.43,1.69,10.92
49.493351,4.351661,28.39,-1.46,1.47,9.07
49.493128,4.351472,28.29,-1.73,2.13,10.1
49.493128,4.351472,28.29,-1.74,2.08,9.93
49.492905,4.35128,28.09,0.51,2.49,10.38
49.492905,4.35128,28.09,-1.68,1.44,9.35
49.492685,4.351092,27.83,-2.43,0.5,9.67
49.492685,4.351092,27.83,-1.69,2.46,10.8
49.492467,4.350906,27.49,-0.34,2.19,10.97
49.492467,4.350906,27.49,-0.55,0.57,9.12
49.49225,4.35073,27.29,-2.4,1.51,9.9
49.49225,4.35073,27.29,-1.88,1.1,11.09
49.492036,4.35055,27.12,-0.46,0.99,9.53
49.492036,4.35055,27.12,0.4,2.24,10.79
49.491821,4.350367,27.0,-0.67,1.92,8.99
49.491821,4.350367,27.0,-0.64,1.35,9.87
49.491607,4.350187,26.82,-1.47,1.07,8.42
49.491607,4.350187,26.82,-3.08,0.23,9.15
49.491399,4.350014,26.55,-1.49,0.8,10.73
49.491399,4.350014,26.55,-0.36,3.01,10.86
49.491192,4.349841,26.36,-0.47,1.48,8.52
49.491192,4.349841,26.36,-1.27,2.28,10.12
49.490986,4.349656,26.47,-1.89,0.58,10.3
49.490986,4.349656,26.47,0.05,2.95,10.02
49.490782,4.349464,26.43,-0.35,1.9,10.21
49.490782,4.349464,26.43,-0.28,1.08,11.08
49.490572,4.349279,26.48,-0.82,1.6,8.76
49.490572,4.349279,26.48,1.53,2.51,10.8
49.490367,4.349082,26.56,0.15,2.2,9.64
49.490367,4.349082,26.56,-1.19,1.29,8.75
49.490168,4.348876,26.58,-1.91,0.72,9.45
49.490168,4.348876,26.58,-0.58,3.08,9.24
49.489967,4.348666,26.7,0.53,2.43,8.68
49.48977,4.348454,26.83,-0.52,1.7,8.94
49.48977,4.348454,26.83,-0.69,1.01,10.61
49.489579,4.348225,26.85,-1.3,2.14,9.95
49.489579,4.348225,26.85,-1.49,0.88,8.6
49.489395,4.347977,27.12,0.21,2.6,11.31
49.489395,4.347977,27.12,-2.08,0.82,9.51
49.489206,4.347724,27.38,-0.67,2.02,9.1
49.489206,4.347724,27.38,-1.6,1.77,9.78
49.489022,4.347467,27.44,-2.27,1.41,10.29
49.489022,4.347467,27.44,-0.99,2.24,11.17
49.488836,4.347212,27.66,-2.51,1.27,10.37
49.488836,4.347212,27.66,-0.48,1.79,9.24
49.488649,4.346966,27.76,-0.87,1.44,10.05
49.488649,4.346966,27.76,-0.0,2.52,10.54
49.488462,4.346715,27.9,-1.91,1.64,8.06
49.488462,4.346715,27.9,-1.79,1.38,9.18
49.48828,4.346458,28.07,-0.01,2.32,10.18
49.48828,4.346458,28.07,-1.03,1.34,9.63
49.488096,4.346193,28.24,-1.98,0.67,9.83
49.488096,4.346193,28.24,-1.09,1.47,10.14
49.48791,4.345929,28.34,-1.36,-0.03,9.94
49.48791,4.345929,28.34,-0.79,1.53,10.7
49.487724,4.345672,28.52,-0.79,0.61,8.71
49.487724,4.345672,28.52,-2.29,1.02,8.41
49.487539,4.345398,28.62,-2.14,0.87,9.91
49.487539,4.345398,28.62,-1.79,0.61,9.03
49.487348,4.345135,28.76,-1.84,1.45,10.04
49.487348,4.345135,28.76,-0.57,1.67,7.78
49.487153,4.34486,28.92,-0.44,1.88,10.78
49.487153,4.34486,28.92,-0.98,1.65,9.37
49.486954,4.344592,29.05,-1.55,1.59,9.64
49.486954,4.344592,29.05,-1.73,1.43,10.9
49.486758,4.344323,29.13,-2.05,0.49,9.65
49.486758,4.344323,29.13,-1.33,1.48,10.35
49.486563,4.344061,29.21,-1.95,1.07,9.44
49.486563,4.344061,29.21,-0.98,1.81,9.02
49.486374,4.343794,29.26,0.34,2.74,10.08
49.486374,4.343794,29.26,-2.61,0.01,9.64
49.48618,4.343518,29.27,-1.94,1.72,10.03
49.485989,4.343235,29.27,-1.13,2.23,9.69
49.485989,4.343235,29.27,-1.04,1.68,9.79
49.485792,4.342957,29.28,0.83,2.08,10.27
49.485792,4.342957,29.28,-1.77,1.46,9.87
49.485585,4.342689,29.26,-0.06,1.61,10.5
49.485585,4.342689,29.26,-2.45,1.02,9.08
49.485392,4.342411,29.25,-0.28,1.92,11.81
49.485392,4.342411,29.25,-1.51,0.85,10.96
49.485205,4.342139,29.22,-2.11,0.36,11.3
49.485205,4.342139,29.22,-0.61,1.13,8.84
49.485011,4.341869,29.18,-1.61,1.59,9.83
49.485011,4.341869,29.18,-1.61,2.1,9.52
49.484826,4.3416,29.07,1.01,2.21,11.79
49.484826,4.3416,29.07,-0.1,1.22,10.64
49.484634,4.341332,29.02,-1.7,0.53,10.03
49.484634,4.341332,29.02,-0.43,1.73,11.14
49.484437,4.341055,29.04,-0.93,2.24,10.08
49.484437,4.341055,29.04,-2.16,1.09,9.52
49.48425,4.340784,29.18,0.01,1.73,10.78
49.48425,4.340784,29.18,-2.75,0.94,9.2
49.484059,4.340517,29.22,-1.53,1.91,9.87
49.484059,4.340517,29.22,-1.4,1.58,8.89
49.483864,4.340245,29.29,-1.6,1.47,9.84
49.483864,4.340245,29.29,0.62,2.33,10.1
49.483667,4.339975,29.46,-2.69,1.28,10.59
49.483667,4.339975,29.46,-1.11,1.16,9.81
49.483463,4.33971,29.44,-2.08,0.89,7.98
49.483463,4.33971,29.44,0.27,1.78,10.42
49.483262,4.339441,29.39,-0.79,1.77,10.36
49.483262,4.339441,29.39,0.01,2.06,10.59
49.483064,4.339168,29.39,-0.9,1.03,9.06
49.483064,4.339168,29.39,-0.74,1.33,10.57
49.482873,4.338894,29.41,-0.85,1.6,9.75
49.482873,4.338894,29.41,-2.39,1.36,8.68
49.482683,4.338611,29.5,-0.71,1.62,9.49
49.482683,4.338611,29.5,-1.47,1.04,10.12
49.482489,4.338333,29.52,-1.71,1.09,8.67
49.482489,4.338333,29.52,-1.03,2.31,10.24
49.482303,4.338055,29.44,0.99,2.66,8.93
49.482303,4.338055,29.44,-0.27,1.72,10.26
49.482111,4.337773,29.42,-1.02,1.69,9.02
49.482111,4.337773,29.42,-0.92,1.98,10.04
49.481916,4.337488,29.48,-0.22,1.16,10.39
49.481916,4.337488,29.48,-0.74,1.93,10.16
49.481713,4.337218,29.6,-1.41,1.52,8.52
49.481505,4.336948,29.65,0.65,2.27,11.53
49.481505,4.336948,29.65,-3.08,1.34,10.44
49.481306,4.336666,29.74,-0.02,1.32,7.89
49.481306,4.336666,29.74,-0.74,2.07,11.32
49.481113,4.336377,29.74,-0.84,2.07,9.78
49.481113,4.336377,29.74,-0.29,1.97,9.51
49.480909,4.336124,29.78,0.05,2.17,10.48
49.480909,4.336124,29.78,0.08,2.19,7.76
49.480712,4.335859,29.85,-1.62,1.34,9.55
49.480712,4.335859,29.85,-1.97,0.47,9.88
49.480509,4.335601,29.92,-1.28,1.76,9.35
49.480509,4.335601,29.92,-0.81,1.11,10.94
49.480314,4.335308,29.88,-1.11,0.57,8.13
49.480314,4.335308,29.88,0.82,2.08,11.43
49.480117,4.335026,29.87,-1.49,0.98,9.26
49.480117,4.335026,29.87,-1.09,1.4,8.44
49.479921,4.334747,29.79,-1.76,1.47,10.41
49.479921,4.334747,29.79,-1.37,1.62,9.48
49.479725,4.334469,29.83,-0.85,1.75,10.64
49.479725,4.334469,29.83,-2.65,1.05,9.04
49.479531,4.334195,29.69,-0.79,1.7,9.31
49.479531,4.334195,29.69,-0.98,1.75,10.25
49.479339,4.33391,29.73,-0.86,1.74,9.85
49.479339,4.33391,29.73,-0.74,1.33,10.21
49.479148,4.333618,29.74,-0.74,0.46,9.61
49.479148,4.333618,29.74,-1.32,1.92,10.81
49.478951,4.333338,29.76,-1.22,1.86,8.86
49.478951,4.333338,29.76,-1.13,1.14,10.53
49.478749,4.333064,29.84,-0.83,1.78,9.46
49.478749,4.333064,29.84,-0.61,0.61,9.65
49.478544,4.332793,30.09,-0.76,1.66,8.37
49.478544,4.332793,30.09,-0.43,0.95,9.73
49.478347,4.332513,29.9,-1.5,0.92,10.41
49.478347,4.332513,29.9,-0.32,2.11,9.55
49.478144,4.332249,29.71,-0.61,1.65,11.71
49.478144,4.332249,29.71,-1.56,1.23,10.24
49.477949,4.331972,29.79,-0.82,2.16,9.73
49.477949,4.331972,29.79,-1.68,1.26,10.77
49.477755,4.331695,29.98,-1.33,1.6,7.79
49.477755,4.331695,29.98,-0.9,0.54,10.53
49.477562,4.331417,30.22,-0.86,1.68,9.19
49.477562,4.331417,30.22,0.39,0.75,10.84
49.477364,4.331138,30.14,-0.75,1.42,8.76
49.477153,4.330873,29.69,0.75,1.33,10.81
49.477153,4.330873,29.69,-0.28,1.82,10.46
49.476951,4.330597,29.6,-1.44,1.52,8.9
49.476951,4.330597,29.6,-0.24,1.23,8.86
49.476745,4.330312,29.54,-0.52,1.31,10.2
49.476745,4.330312,29.54,-0.62,2.15,9.02
49.47655,4.330025,29.55,0.73,1.89,10.42
49.47655,4.330025,29.55,-1.74,1.11,10.74
49.476347,4.329749,29.86,-1.84,0.81,9.18
49.476347,4.329749,29.86,-0.02,1.26,9.24
49.47615,4.329475,29.78,-0.26,1.02,10.61
49.47615,4.329475,29.78,-1.08,1.84,9.78
49.475963,4.329187,29.79,0.06,0.94,9.09
49.475963,4.329187,29.79,-0.61,2.22,11.41
49.475771,4.328911,29.94,0.04,2.27,10.11
49.475771,4.328911,29.94,-0.42,1.01,11.36
49.475572,4.328628,29.73,-1.39,1.0,9.66
49.475572,4.328628,29.73,-0.66,0.79,10.29
49.475377,4.328352,29.97,-0.87,0.57,8.7
49.475377,4.328352,29.97,0.15,1.75,10.12
49.475184,4.328082,29.38,-1.18,0.08,8.84
49.475184,4.328082,29.38,-1.77,1.02,10.63
49.474992,4.327805,29.05,-1.23,0.87,11.07
49.474992,4.327805,29.05,-1.85,1.5,9.76
49.47481,4.327534,28.94,-0.53,2.13,8.97
49.47481,4.327534,28.94,0.07,1.32,9.85
49.474622,4.327255,29.06,-0.93,1.01,9.63
49.474622,4.327255,29.06,-1.84,0.71,10.26
49.474443,4.326971,29.1,-0.25,2.14,12.37
49.474443,4.326971,29.1,-0.63,1.18,10.69
49.474258,4.326702,29.21,-0.44,2.01,9.81
49.474258,4.326702,29.21,-0.75,1.05,8.74
49.474073,4.326405,29.24,-1.08,1.45,10.16
49.474073,4.326405,29.24,-1.21,0.19,11.37
49.47389,4.326109,29.15,-1.16,0.88,10.97
49.47389,4.326109,29.15,0.02,1.49,10.53
49.473701,4.325832,29.1,-2.49,1.01,10.48
49.473701,4.325832,29.1,-1.82,1.16,8.97
49.473514,4.325549,29.06,-0.94,1.75,9.18
49.473327,4.325273,29.06,-0.51,0.7,10.69
49.473327,4.325273,29.06,-0.98,0.63,10.62
49.473148,4.324983,29.09,-0.64,1.1,11.16
49.473148,4.324983,29.09,-1.17,0.75,9.17
49.472965,4.324679,29.17,-0.46,1.76,9.87
49.472965,4.324679,29.17,-0.41,2.02,10.83
49.472772,4.324386,29.16,-0.16,0.38,9.05
49.472772,4.324386,29.16,-1.01,1.39,10.73
49.472592,4.324097,29.43,-0.78,2.04,11.5
49.472592,4.324097,29.43,-2.74,1.6,8.61
49.472416,4.323814,29.42,0.03,1.8,9.9
49.472416,4.323814,29.42,-0.69,1.17,10.74
49.472234,4.323534,29.17,-2.15,0.66,10.33
49.472234,4.323534,29.17,-1.44,0.91,7.04
49.472048,4.323244,29.18,-1.06,1.81,7.8
49.472048,4.323244,29.18,-0.95,0.69,10.11
49.471864,4.322964,29.48,-0.7,1.88,10.56
49.471864,4.322964,29.48,-1.57,0.98,7.47
49.471683,4.322684,29.64,-0.43,1.23,10.55
49.471683,4.322684,29.64,-0.77,1.76,9.06
49.471505,4.322394,29.86,-1.8,1.01,8.28
49.471505,4.322394,29.86,-2.36,0.87,10.23
49.471318,4.322104,29.95,-1.7,0.95,9.19
49.471318,4.322104,29.95,-1.04,1.11,10.75
49.471123,4.321822,30.02,-0.32,1.15,11.31
49.471123,4.321822,30.02,-0.38,0.52,9.95
49.470936,4.321545,30.04,-2.51,1.25,9.7
49.470936,4.321545,30.04,-0.6,0.24,8.11
49.47075,4.321254,29.92,-0.26,1.39,10.53
49.47075,4.321254,29.92,0.67,1.61,10.09
49.470552,4.320962,30.26,-1.76,0.46,8.61
49.470552,4.320962,30.26,1.26,1.81,9.75
49.470351,4.320675,30.28,-1.84,0.95,9.48
49.470351,4.320675,30.28,-1.54,0.58,9.93
49.470144,4.320397,30.27,-1.49,0.96,10.16
49.470144,4.320397,30.27,0.91,1.79,9.73
49.469941,4.320118,30.27,-1.33,1.8,9.69
49.469941,4.320118,30.27,-0.03,1.13,10.33
49.469731,4.319829,30.27,-1.49,1.7,8.82
49.469731,4.319829,30.27,-0.09,0.86,10.66
49.469529,4.319537,30.13,-1.37,1.45,10.0
49.469333,4.31925,29.79,-0.5,0.9,9.22
49.469333,4.31925,29.79,-2.15,-0.57,8.77
49.469142,4.318979,29.59,-1.04,1.91,9.05
49.469142,4.318979,29.59,-0.05,1.73,8.95
49.468947,4.318703,29.7,0.05,1.02,10.71
49.468947,4.318703,29.7,-0.27,1.47,11.6
49.468751,4.31843,29.73,-0.23,1.27,8.43
49.468751,4.31843,29.73,-0.98,-0.78,9.57
49.468559,4.318142,29.72,-0.95,1.45,9.5
49.468559,4.318142,29.72,0.32,0.85,10.18
49.468366,4.317862,29.85,-0.55,1.37,11.43
49.468366,4.317862,29.85,-1.57,1.74,9.82
49.468169,4.317582,29.77,-0.21,0.76,9.54
49.468169,4.317582,29.77,-0.15,0.54,7.95
49.467976,4.317311,29.73,-0.82,0.88,9.31
49.467976,4.317311,29.73,-0.67,0.56,9.56
49.467785,4.317036,29.72,-1.41,1.12,9.1
49.467785,4.317036,29.72,-1.47,1.82,8.68
49.467597,4.316754,29.77,-1.14,0.04,9.81
49.467597,4.316754,29.77,-1.59,1.43,10.0
49.467402,4.316469,29.88,-0.33,0.69,9.18
49.467402,4.316469,29.88,-1.46,0.94,11.5
49.467198,4.316186,29.9,-0.34,1.54,9.25
49.467198,4.316186,29.9,-1.38,-0.07,9.28
49.466989,4.315916,29.82,-1.13,1.45,11.73
49.466989,4.315916,29.82,-0.88,0.77,8.24
49.466796,4.315643,29.77,-1.75,1.24,10.74
49.466796,4.315643,29.77,-0.83,1.34,8.86
49.466599,4.315369,29.9,-0.67,0.43,10.79
49.466599,4.315369,29.9,-1.01,0.91,10.89
49.466403,4.315095,29.77,-0.34,0.78,11.3
49.466403,4.315095,29.77,-0.44,0.54,9.02
49.466221,4.31482,29.6,-1.43,1.17,11.48
49.466221,4.31482,29.6,0.16,1.26,9.61
49.466026,4.31454,29.63,-0.45,1.77,10.68
49.466026,4.31454,29.63,-1.57,0.76,9.76
49.465831,4.31426,29.56,-0.15,0.66,10.4
49.465831,4.31426,29.56,-0.65,0.48,10.43
49.465634,4.313995,29.72,-1.53,1.07,10.23
49.465634,4.313995,29.72,-0.25,0.83,8.76
49.46544,4.313728,29.85,-1.92,0.62,9.72
49.465235,4.313451,29.89,-0.75,2.38,9.31
49.465235,4.313451,29.89,0.11,1.45,10.25
49.465023,4.313168,29.95,-1.89,1.7,10.82
49.465023,4.313168,29.95,-2.53,0.77,10.04
49.464813,4.312882,30.02,-0.68,1.41,10.22
49.464813,4.312882,30.02,-1.11,2.03,9.45
49.464612,4.312595,30.19,-1.77,1.05,10.0
49.464612,4.312595,30.19,-1.17,1.39,9.94
49.464404,4.312323,30.25,-0.24,1.41,10.64
49.464404,4.312323,30.25,-0.6,0.96,9.68
49.464205,4.312034,30.32,-1.75,1.21,11.12
49.464205,4.312034,30.32,0.36,1.7,10.52
49.464002,4.311754,30.28,-1.48,0.86,10.55
49.464002,4.311754,30.28,-1.53,0.79,9.15
49.463797,4.311483,30.26,-1.92,1.15,10.73
49.463797,4.311483,30.26,-1.91,0.99,10.0
49.463589,4.311205,30.34,-1.28,1.72,10.97
49.463589,4.311205,30.34,-2.86,1.04,10.32
49.463379,4.31093,30.56,-2.37,1.28,8.94
49.463379,4.31093,30.56,-2.6,0.84,8.89
49.463164,4.310658,30.63,-1.92,0.76,10.31
49.463164,4.310658,30.63,-2.2,0.86,10.28
49.462948,4.310389,30.8,-1.48,1.88,8.67
49.462948,4.310389,30.8,-2.23,0.82,9.67
49.462724,4.310127,30.98,0.34,1.26,10.47
49.462724,4.310127,30.98,-1.95,0.69,9.73
49.462503,4.309859,31.11,-1.46,0.72,8.91
49.462503,4.309859,31.11,-3.11,0.91,9.78
49.462278,4.309602,31.1,-0.85,0.72,10.66
49.462278,4.309602,31.1,-0.35,1.57,9.23
49.462049,4.309358,31.1,-2.23,0.57,8.01
49.462049,4.309358,31.1,-0.4,1.1,10.38
49.461811,4.309122,31.04,-2.56,0.34,11.88
49.461811,4.309122,31.04,-1.84,1.42,10.38
49.461576,4.308889,31.05,-0.85,2.05,9.45
49.461576,4.308889,31.05,0.68,2.03,10.87
49.461341,4.308658,31.05,-1.88,0.57,11.13
49.461341,4.308658,31.05,-1.22,0.51,9.59
49.461108,4.30842,31.05,-1.87,1.51,9.25
49.461108,4.30842,31.05,0.84,1.17,11.47
49.46088,4.308172,31.14,-0.78,0.42,10.2
49.460649,4.307929,31.2,0.33,1.77,11.28
49.460649,4.307929,31.2,-0.82,1.1,8.82
49.46042,4.307687,31.02,-0.13,1.03,11.09
49.46042,4.307687,31.02,-0.5,0.12,9.02
49.460194,4.307442,30.57,0.38,0.43,10.33
49.460194,4.307442,30.57,-0.82,1.07,9.01
49.459968,4.307204,30.25,0.13,0.77,12.8
49.459968,4.307204,30.25,-0.44,1.09,9.73
49.459747,4.306965,30.0,-0.68,1.04,10.48
49.459747,4.306965,30.0,-1.7,0.03,9.81
49.459525,4.306737,29.74,-0.64,0.55,10.56
49.459525,4.306737,29.74,0.44,1.69,10.05
49.459303,4.306513,29.48,-1.5,-0.83,10.23
49.459303,4.306513,29.48,-2.02,0.49,9.39
49.459089,4.306285,29.02,-0.07,0.8,9.67
49.459089,4.306285,29.02,-0.9,1.3,7.92
49.458876,4.306059,28.65,-1.42,1.13,7.89
49.458876,4.306059,28.65,-0.67,1.57,9.86
49.45866,4.305845,28.4,0.07,1.66,9.34
49.45866,4.305845,28.4,-0.14,1.93,9.32
49.458454,4.305616,28.23,0.17,1.28,9.42
49.458454,4.305616,28.23,-2.8,-0.44,8.99
49.458243,4.305399,28.11,-1.65,0.54,10.23
49.458243,4.305399,28.11,-1.29,0.44,10.06
49.458035,4.305179,28.1,-1.17,1.72,8.72
49.458035,4.305179,28.1,-1.01,1.59,9.3
49.457828,4.304962,28.1,-0.23,1.21,9.36
49.457828,4.304962,28.1,-1.02,1.45,9.35
49.457617,4.304743,28.22,-0.54,1.05,9.6
49.457617,4.304743,28.22,-1.19,1.22,8.26
49.457411,4.304514,28.38,-0.92,1.06,10.14
49.457411,4.304514,28.38,-1.03,1.16,13.16
49.457198,4.304297,28.44,-0.47,0.92,10.7
49.457198,4.304297,28.44,-0.61,0.64,11.27
49.456986,4.30408,28.45,-1.26,1.05,10.75
49.456986,4.30408,28.45,0.29,0.58,11.82
49.456774,4.303858,28.45,-0.59,1.16,10.89
49.456774,4.303858,28.45,-0.86,0.99,10.91
49.456558,4.303646,28.45,-0.43,0.59,9.57
49.456558,4.303646,28.45,-0.89,0.66,10.44
49.456346,4.303426,28.47,-2.26,1.06,10.4
49.456135,4.303199,28.48,-1.57,0.52,10.22
49.456135,4.303199,28.48,-0.5,0.49,10.27
49.455925,4.302974,28.5,-0.99,1.93,8.57
49.455925,4.302974,28.5,-0.98,1.53,10.18
49.455713,4.302755,28.71,-0.74,1.47,10.55
49.455713,4.302755,28.71,-0.16,1.01,9.61
49.455499,4.302531,28.83,0.42,1.66,11.04
49.455499,4.302531,28.83,-0.34,1.46,10.96
49.455289,4.302298,28.93,-0.78,0.37,10.27
49.455289,4.302298,28.93,-0.79,1.71,10.59
49.455081,4.302057,29.0,-0.88,1.55,11.01
49.455081,4.302057,29.0,0.76,1.68,9.56
49.454876,4.301813,29.08,-1.46,1.73,9.75
49.454876,4.301813,29.08,-1.62,0.61,10.45
49.454673,4.301559,29.05,-0.25,1.33,10.85
49.454673,4.301559,29.05,-0.44,1.11,11.29
49.454473,4.301297,29.05,-1.82,0.78,11.08
49.454473,4.301297,29.05,-0.26,1.48,11.03
49.454266,4.301052,29.03,-1.7,1.63,10.17
49.454266,4.301052,29.03,-1.24,2.22,9.83
49.454053,4.300819,28.95,-0.21,1.53,10.76
49.454053,4.300819,28.95,-0.79,0.89,9.12
49.453841,4.300585,28.84,0.12,0.65,10.29
49.453841,4.300585,28.84,-0.81,0.19,10.02
49.453637,4.300343,28.61,-0.19,-0.0,11.63
49.453637,4.300343,28.61,-0.52,-0.06,9.52
49.453438,4.300099,28.16,-0.8,1.65,9.48
49.453438,4.300099,28.16,-1.06,1.82,8.1
49.453237,4.299861,28.15,-2.54,0.94,8.94
49.453237,4.299861,28.15,-0.66,1.85,9.13
49.453038,4.299632,28.28,-0.84,1.63,10.96
49.453038,4.299632,28.28,-1.14,1.45,9.9
49.452827,4.299412,28.5,-1.42,0.91,9.33
49.452827,4.299412,28.5,-0.56,1.36,10.98
49.452615,4.299187,28.52,0.33,1.77,9.75
49.452615,4.299187,28.52,0.17,1.42,10.68
49.4524,4.298972,28.61,0.03,2.0,10.46
49.4524,4.298972,28.61,-0.96,1.73,10.58
49.452181,4.298764,28.67,-0.93,1.19,10.08
49.452181,4.298764,28.67,-0.36,1.77,9.22
49.451955,4.298575,28.72,-0.31,1.53,10.28
49.451955,4.298575,28.72,-1.47,1.5,7.63
49.45173,4.298377,28.79,-1.95,1.29,8.7
49.45151,4.298171,28.44,-2.53,1.13,7.38
49.45151,4.298171,28.44,-1.03,0.78,8.57
49.451292,4.297971,28.21,0.17,0.95,10.86
49.451292,4.297971,28.21,-0.45,1.11,9.61
49.451076,4.297771,28.21,-1.48,0.93,11.17
49.451076,4.297771,28.21,-1.14,0.34,10.54
49.450866,4.297569,28.21,0.44,1.04,10.67
49.450866,4.297569,28.21,0.33,1.39,11.67
49.450648,4.297364,28.3,-1.23,0.62,8.45
49.450648,4.297364,28.3,-1.73,1.85,9.26
49.450428,4.297164,28.52,-1.77,1.12,8.74
49.450428,4.297164,28.52,-1.4,1.09,6.26
49.450203,4.296957,28.68,-0.75,1.29,10.86
49.450203,4.296957,28.68,-0.82,1.88,8.65
49.449983,4.296748,28.86,-0.59,2.09,8.83
49.449983,4.296748,28.86,0.45,1.48,9.63
49.449765,4.296529,29.06,0.12,1.73,10.81
49.449765,4.296529,29.06,0.4,1.81,11.73
49.449551,4.296294,29.2,-1.14,2.11,9.39
49.449551,4.296294,29.2,0.46,1.87,9.52
49.449338,4.296047,29.32,0.48,1.95,11.96
49.449338,4.296047,29.32,0.04,0.83,10.42
49.449136,4.295783,29.38,0.5,2.92,11.02
49.449136,4.295783,29.38,-0.8,1.28,8.92
49.448933,4.295523,29.47,0.78,1.18,9.07
49.448933,4.295523,29.47,0.47,0.12,10.81
49.448742,4.295257,29.08,-1.43,-0.26,10.76
49.448742,4.295257,29.08,0.64,1.62,11.36
49.448563,4.294989,28.54,0.57,1.33,10.55
49.448563,4.294989,28.54,-0.2,0.83,10.79
49.448392,4.294709,28.34,-0.88,1.35,11.13
49.448392,4.294709,28.34,-0.56,0.63,10.68
49.448221,4.294431,28.31,0.48,1.84,11.03
49.448221,4.294431,28.31,-0.4,1.18,10.25
49.448052,4.29415,28.35,0.34,2.85,10.34
49.448052,4.29415,28.35,0.16,2.39,9.02
49.447878,4.293848,28.25,-1.15,1.39,10.13
49.447878,4.293848,28.25,0.61,1.81,9.49
49.447714,4.293536,28.18,-0.61,1.4,9.93
49.447714,4.293536,28.18,-0.42,2.71,10.34
49.447563,4.293222,28.28,-0.29,1.34,12.15
49.447423,4.292888,28.16,-0.97,2.22,8.78
49.447423,4.292888,28.16,0.18,1.93,10.76
49.44728,4.292549,27.98,-0.26,1.41,8.88
49.44728,4.292549,27.98,1.15,1.3,9.97
49.447142,4.29221,27.87,-0.88,1.25,8.47
49.447142,4.29221,27.87,0.44,1.42,11.39
49.447008,4.29189,27.76,-1.43,0.67,8.64
49.447008,4.29189,27.76,-0.73,1.42,7.45
49.446885,4.291562,27.85,-1.51,1.36,10.69
49.446885,4.291562,27.85,-0.64,1.28,10.04
49.446769,4.29123,27.73,0.03,1.84,11.72
49.446769,4.29123,27.73,0.06,1.89,9.9
49.446664,4.290875,27.55,-0.09,1.37,10.32
49.446664,4.290875,27.55,-0.36,1.7,10.28
49.446573,4.290526,27.53,-1.15,1.61,8.37
49.446573,4.290526,27.53,-0.14,1.94,10.75
49.446478,4.290166,27.53,-0.59,0.44,9.88
49.446478,4.290166,27.53,-0.94,2.16,10.31
49.446385,4.289811,27.45,-2.02,1.19,8.34
49.446385,4.289811,27.45,-0.13,1.15,8.87
49.446289,4.289459,27.45,-0.77,1.61,8.71
49.446289,4.289459,27.45,-0.94,1.41,8.89
49.446197,4.289108,27.35,-0.75,1.01,10.57
49.446197,4.289108,27.35,-0.34,1.44,8.95
49.446108,4.288752,27.37,-0.99,0.99,11.4
49.446108,4.288752,27.37,-0.92,1.81,11.58
49.446017,4.2884,27.39,-1.91,1.28,9.57
49.446017,4.2884,27.39,-2.05,0.28,11.22
49.445931,4.288043,27.48,-1.38,1.68,10.6
49.445931,4.288043,27.48,-1.69,1.15,8.53
49.445845,4.287686,27.53,-0.82,1.7,8.91
49.445845,4.287686,27.53,-1.01,0.8,10.49
49.445754,4.287335,27.3,-1.38,1.14,10.43
49.445754,4.287335,27.3,-0.7,1.08,11.94
49.445662,4.286987,27.4,-0.85,1.89,8.78
49.445662,4.286987,27.4,-0.41,1.23,9.59
49.445565,4.286634,27.47,-1.7,0.94,8.19
49.445565,4.286634,27.47,-2.05,0.65,8.38
49.44547,4.286292,27.64,-1.46,0.96,8.6
49.445368,4.285939,27.9,-2.15,1.55,8.72
49.445368,4.285939,27.9,-1.24,0.95,9.72
49.445248,4.285601,28.26,-0.83,1.6,10.78
49.445248,4.285601,28.26,-0.92,1.99,9.42
49.445124,4.285254,28.42,-1.52,1.48,9.07
49.445124,4.285254,28.42,-2.25,0.49,9.72
49.444998,4.284909,28.28,-1.88,0.45,8.91
49.444998,4.284909,28.28,-1.17,1.11,10.82
49.444865,4.284571,28.16,-1.56,1.56,7.47
49.444865,4.284571,28.16,-0.93,1.37,10.0
49.444722,4.28425,28.32,-2.59,0.11,10.6
49.444722,4.28425,28.32,-2.18,0.76,10.04
49.444565,4.28394,28.2,-2.56,0.23,8.96
49.444565,4.28394,28.2,-1.47,1.18,10.57
49.444398,4.28365,28.63,-2.28,-0.0,10.69
49.444398,4.28365,28.63,-3.83,-0.19,10.11
49.444236,4.283355,28.33,-2.59,-0.11,9.86
49.444236,4.283355,28.33,-0.82,1.36,11.77
49.444065,4.28308,28.86,-0.75,0.45,10.0
49.444065,4.28308,28.86,-1.53,0.48,7.07
49.443886,4.282814,28.96,-1.38,1.18,8.97
49.443886,4.282814,28.96,-1.82,1.05,8.36
49.44371,4.282548,29.02,-0.87,0.72,10.56
49.44371,4.282548,29.02,-1.13,0.47,9.56
49.443521,4.282284,29.26,-2.7,0.72,9.38
49.443521,4.282284,29.26,-1.14,2.02,10.04
49.443304,4.282029,29.48,-1.64,1.87,11.31
49.443304,4.282029,29.48,-1.56,0.42,9.35
49.443077,4.281799,29.74,-1.54,1.75,8.25
49.443077,4.281799,29.74,-0.57,-0.29,7.55
49.442849,4.281569,29.72,-2.25,0.55,10.09
49.442849,4.281569,29.72,-0.96,1.43,9.79
49.44262,4.281347,29.7,-0.48,0.87,10.54
49.44262,4.281347,29.7,-1.49,1.19,10.08
49.442379,4.281145,29.96,-1.86,1.24,10.75
49.442379,4.281145,29.96,-2.46,0.45,9.5
49.442135,4.280953,29.98,-2.46,1.41,8.23
49.442135,4.280953,29.98,-3.01,0.91,10.42
49.441882,4.280773,30.33,-0.62,1.1,10.12
49.441882,4.280773,30.33,-3.39,1.2,9.23
49.441628,4.280613,30.66,-4.03,0.14,10.05
49.441628,4.280613,30.66,-0.65,0.27,10.38
49.441374,4.280463,30.78,-2.25,0.36,10.24
49.44111,4.280343,30.52,-0.26,-0.01,10.36
49.44111,4.280343,30.52,-1.36,1.06,8.94
49.440849,4.280223,30.12,0.71,0.21,11.73
49.440849,4.280223,30.12,-1.32,1.17,9.11
49.440586,4.280117,29.97,-1.58,0.71,11.8
49.440586,4.280117,29.97,-3.43,0.6,9.79
49.440322,4.280039,29.96,-0.76,1.12,11.29
49.440322,4.280039,29.96,-1.64,0.62,11.36
49.440055,4.279971,30.12,0.11,1.14,10.19
49.440055,4.279971,30.12,-2.99,0.85,9.79
49.439791,4.27991,30.15,-1.95,1.02,8.64
49.439791,4.27991,30.15,-1.77,0.46,11.14
49.439528,4.27986,30.39,-0.61,0.71,9.84
49.439528,4.27986,30.39,-1.01,0.2,9.88
49.439264,4.279829,29.95,-1.44,0.79,7.93
49.439264,4.279829,29.95,-2.49,-0.11,10.07
49.438995,4.279808,29.78,-1.1,1.59,9.77
49.438995,4.279808,29.78,-0.66,1.56,10.57
49.438736,4.279788,29.58,-1.25,0.39,10.92
49.438736,4.279788,29.58,-1.95,1.13,9.2
49.438467,4.279771,29.46,-2.31,1.59,7.91
49.438467,4.279771,29.46,0.73,0.75,9.92
49.438197,4.27976,29.33,-1.35,0.57,10.78
49.438197,4.27976,29.33,-0.38,1.37,9.69
49.437931,4.279748,29.24,-1.99,0.39,10.49
49.437931,4.279748,29.24,-0.97,1.22,9.57
49.437666,4.279736,29.13,-1.29,0.53,11.14
49.437666,4.279736,29.13,-1.78,1.08,10.85
49.437403,4.279718,29.17,-0.73,2.2,10.44
49.437403,4.279718,29.17,-1.72,1.9,8.68
49.43714,4.279699,29.47,1.0,1.74,10.15
49.43714,4.279699,29.47,-2.46,1.16,10.22
49.436871,4.279688,29.7,-1.01,1.56,9.26
49.436871,4.279688,29.7,-0.98,0.41,10.86
49.436603,4.27967,29.88,-1.19,1.05,11.15
49.436603,4.27967,29.88,-0.69,2.04,10.88
49.436335,4.279648,29.93,-1.21,0.7,10.78
49.436335,4.279648,29.93,-1.29,2.04,8.99
49.436067,4.279637,29.92,0.21,0.68,11.47
49.436067,4.279637,29.92,-1.26,1.85,8.95
49.435799,4.27962,29.96,-0.32,1.18,9.76
49.435799,4.27962,29.96,-1.6,0.57,9.7
49.435528,4.27961,29.97,-0.49,1.39,8.45
49.435261,4.279582,29.91,-0.56,0.09,9.51
49.435261,4.279582,29.91,-0.36,1.9,8.68
49.434995,4.279565,29.87,0.92,1.41,9.67
49.434995,4.279565,29.87,-0.14,1.41,11.66
49.434732,4.279537,29.85,-0.68,2.28,8.71
49.434732,4.279537,29.85,0.07,1.13,9.43
49.434471,4.279482,29.6,-0.7,0.73,11.06
49.434471,4.279482,29.6,0.32,2.11,10.82
49.434197,4.279426,29.71,0.06,1.41,10.23
49.434197,4.279426,29.71,-0.1,0.65,12.0
49.43393,4.279335,29.6,-0.94,1.61,8.59
49.43393,4.279335,29.6,0.44,1.74,9.22
49.433669,4.279227,29.51,1.05,1.76,8.81
49.433669,4.279227,29.51,-0.1,1.55,10.86
49.43341,4.279108,29.5,0.24,2.6,9.45
49.43341,4.279108,29.5,1.19,2.26,7.87
49.433159,4.27897,29.54,0.11,0.58,10.74
49.433159,4.27897,29.54,-0.34,1.74,10.32
49.432915,4.278803,29.58,0.03,2.15,8.96
49.432915,4.278803,29.58,-0.34,1.86,10.71
49.432676,4.27862,29.47,-0.03,1.87,11.06
49.432676,4.27862,29.47,-0.4,2.32,9.64
49.432447,4.278423,29.34,-0.15,1.9,7.62
49.432447,4.278423,29.34,-0.22,0.74,10.18
49.432225,4.278207,29.4,-0.64,1.32,10.8
49.432225,4.278207,29.4,-0.99,1.93,8.84
49.432003,4.277991,29.51,-0.24,1.46,10.37
49.432003,4.277991,29.51,-0.55,1.47,10.92
49.431785,4.277763,29.55,-0.59,2.19,7.7
49.431785,4.277763,29.55,-0.16,1.7,8.72
49.431566,4.277535,29.63,-0.87,0.99,9.69
49.431566,4.277535,29.63,-1.16,0.56,10.49
49.431349,4.277295,29.72,-1.48,1.05,8.75
49.431349,4.277295,29.72,-1.71,1.39,10.54
49.431127,4.277064,29.76,-0.71,1.65,9.53
49.431127,4.277064,29.76,-0.89,0.99,7.69
49.430907,4.27683,29.63,-1.92,-0.72,10.59
49.430907,4.27683,29.63,-0.79,1.29,9.59
49.430688,4.276602,29.22,0.3,1.42,8.81
49.430473,4.276375,28.85,-0.94,1.34,9.6
49.430473,4.276375,28.85,-0.99,1.53,7.45
49.430261,4.27615,28.85,-2.57,1.18,9.24
49.430261,4.27615,28.85,-0.4,1.36,9.63
49.430045,4.275927,28.95,-2.4,0.52,8.37
49.430045,4.275927,28.95,-1.18,0.91,10.62
49.429834,4.275695,28.98,-1.89,1.47,9.64
49.429834,4.275695,28.98,-1.51,1.09,9.57
49.429617,4.275466,29.1,-0.89,1.4,9.96
49.429617,4.275466,29.1,-1.86,1.59,8.01
49.429404,4.275229,29.14,-0.89,0.27,9.03
49.429404,4.275229,29.14,-0.7,1.08,10.17
49.429188,4.274998,29.21,-2.25,1.45,10.5
49.429188,4.274998,29.21,-0.21,1.58,9.68
49.428969,4.27478,29.2,-0.6,2.08,9.53
49.428969,4.27478,29.2,-0.48,1.5,9.15
49.428751,4.274557,29.25,-2.22,0.49,10.85
49.428751,4.274557,29.25,-1.89,0.96,10.62
49.42853,4.274334,29.31,-0.59,1.27,8.3
49.42853,4.274334,29.31,-0.46,1.71,8.99
49.428313,4.274105,29.31,-0.79,0.81,10.19
49.428313,4.274105,29.31,-0.39,1.84,10.23
49.428097,4.273874,29.31,-1.36,1.3,8.94
49.428097,4.273874,29.31,-0.68,1.26,8.81
49.427883,4.273643,29.34,-0.22,1.39,9.86
49.427883,4.273643,29.34,-1.7,-0.45,9.76
49.42767,4.273408,29.18,-2.15,0.39,9.95
49.42767,4.273408,29.18,-1.22,0.45,8.07
49.427457,4.273179,28.71,0.13,1.34,10.56
49.427457,4.273179,28.71,-0.16,0.88,8.67
49.427244,4.272954,28.55,-0.84,1.34,9.81
49.427244,4.272954,28.55,-1.59,0.41,10.08
49.427036,4.272727,28.18,-0.97,0.35,11.93
49.427036,4.272727,28.18,-1.41,0.2,10.05
49.426828,4.272502,28.15,-0.93,1.13,10.27
49.426828,4.272502,28.15,-0.84,0.75,9.05
49.426621,4.272279,28.09,-2.29,1.16,8.98
49.426621,4.272279,28.09,0.02,1.7,10.16
49.426412,4.272067,28.12,-0.27,0.99,10.89
49.4262,4.271859,28.25,-2.19,1.01,10.71
49.4262,4.271859,28.25,-2.07,0.14,9.35
49.425988,4.271643,28.42,-2.41,-0.13,8.57
49.425988,4.271643,28.42,-1.17,0.54,11.68
49.425778,4.271421,28.58,-1.95,0.23,10.78
49.425778,4.271421,28.58,-1.1,0.35,11.56
49.425564,4.271193,28.65,-1.88,-0.05,10.52
49.425564,4.271193,28.65,-1.24,0.68,10.61
49.425354,4.270966,28.68,-2.53,0.23,10.75
49.425354,4.270966,28.68,-2.3,0.79,10.23
49.425141,4.270743,28.73,-2.36,0.76,9.62
49.425141,4.270743,28.73,-0.89,0.66,10.35
49.424926,4.270521,28.74,0.59,1.65,10.86
49.424926,4.270521,28.74,-0.67,0.28,10.82
49.424712,4.270303,28.48,-0.34,0.41,10.58
49.424712,4.270303,28.48,-1.03,0.72,10.29
49.424504,4.270075,28.08,-1.93,1.19,12.0
49.424504,4.270075,28.08,-1.26,0.99,9.61
49.424297,4.269858,28.01,-1.24,1.16,8.67
49.424297,4.269858,28.01,-2.78,0.57,9.58
49.42409,4.269639,28.0,0.23,0.96,11.55
49.42409,4.269639,28.0,-1.52,0.9,10.81
49.423881,4.269425,28.04,-0.87,0.48,9.36
49.423881,4.269425,28.04,-0.38,1.09,10.07
49.423672,4.269208,28.08,-1.52,1.4,8.78
49.423672,4.269208,28.08,-2.81,0.55,7.79
49.423465,4.268984,28.11,-1.31,1.25,7.82
49.423465,4.268984,28.11,-0.0,1.6,9.52
49.423256,4.268773,28.17,-0.72,0.48,10.01
49.423256,4.268773,28.17,-2.08,-0.23,10.2
49.423043,4.26857,28.12,-0.41,0.79,10.59
49.423043,4.26857,28.12,-1.99,1.11,10.18
49.422831,4.268365,28.2,-0.96,1.79,9.69
49.422831,4.268365,28.2,-2.06,0.36,7.72
49.422616,4.268162,28.39,-1.62,2.14,9.05
49.422616,4.268162,28.39,-0.95,1.12,8.83
49.4224,4.267948,28.58,-1.12,0.81,8.96
49.4224,4.267948,28.58,-1.56,0.81,8.9
49.422182,4.267733,28.79,-1.52,0.87,11.08
49.422182,4.267733,28.79,-0.57,0.39,10.04
49.421967,4.267513,29.04,-1.87,0.11,10.89
49.421749,4.267296,29.26,-1.19,1.28,11.56
49.421749,4.267296,29.26,-2.06,1.7,7.99
49.421522,4.267088,29.43,-0.76,1.46,9.7
49.421522,4.267088,29.43,-1.07,0.66,9.36
49.421292,4.266879,29.55,0.72,1.52,10.3
49.421292,4.266879,29.55,-1.73,1.82,8.36
49.421066,4.266661,29.57,-0.23,1.13,10.93
49.421066,4.266661,29.57,-1.2,0.72,11.58
49.420843,4.26644,29.58,-0.71,1.32,9.51
49.420843,4.26644,29.58,-0.46,1.35,10.75
49.420614,4.266232,29.74,-1.3,0.69,9.24
49.420614,4.266232,29.74,-0.89,2.14,8.27
49.420387,4.266015,29.92,0.71,1.81,10.7
49.420387,4.266015,29.92,-2.17,1.03,10.4
49.420162,4.265789,30.11,-0.85,0.47,9.98
49.420162,4.265789,30.11,-1.5,1.09,8.23
49.419932,4.26557,30.3,0.02,1.63,10.45
49.419932,4.26557,30.3,-0.65,0.86,10.09
49.4197,4.265338,30.69,-0.59,1.21,12.85
49.4197,4.265338,30.69,-0.33,0.55,9.4
49.419473,4.265092,30.27,-1.75,0.11,11.7
49.419473,4.265092,30.27,-1.68,1.23,9.53
49.41925,4.264854,29.88,-1.08,-0.06,12.18
49.41925,4.264854,29.88,-1.77,0.53,9.26
49.419029,4.264624,29.31,0.05,1.02,9.17
49.419029,4.264624,29.31,-2.04,0.6,8.18
49.418814,4.264394,28.69,-1.76,0.91,9.36
49.418814,4.264394,28.69,-0.28,2.08,9.3
49.418603,4.264172,28.2,-0.26,1.49,8.79
49.418603,4.264172,28.2,-1.21,0.74,10.52
49.418399,4.263946,27.73,-0.77,0.1,10.18
49.418399,4.263946,27.73,-0.97,1.55,9.24
49.418198,4.263731,27.46,-0.89,1.55,9.96
49.418198,4.263731,27.46,-0.68,-0.08,7.59
49.417995,4.263516,27.14,1.28,2.21,9.56
49.417995,4.263516,27.14,-0.14,1.07,9.72
49.417796,4.263304,26.84,1.02,1.58,10.66
49.417796,4.263304,26.84,-1.06,0.82,9.76
49.417603,4.263088,26.73,-0.88,0.27,10.24
49.417603,4.263088,26.73,-1.52,1.08,9.22
49.417413,4.262858,26.68,-1.31,0.48,10.1
49.417218,4.262643,26.68,-2.0,0.42,9.86
49.417218,4.262643,26.68,-1.73,0.73,9.1
49.417023,4.262428,26.59,-1.17,1.16,11.2
49.417023,4.262428,26.59,-1.94,1.35,9.58
49.416823,4.262228,26.44,-0.68,1.22,9.57
49.416823,4.262228,26.44,-1.56,1.09,9.97
49.416626,4.26202,26.31,-0.87,1.64,8.9
49.416626,4.26202,26.31,-1.18,1.11,11.3
49.416431,4.261825,26.24,0.23,1.05,9.81
49.416431,4.261825,26.24,-0.57,1.97,10.97
49.416235,4.261625,26.21,-1.46,1.01,8.07
49.416235,4.261625,26.21,-2.24,0.65,10.97
49.416037,4.261424,26.07,-0.3,1.49,9.43
49.416037,4.261424,26.07,-0.5,1.78,10.36
49.415841,4.261226,26.2,-1.8,1.66,9.88
49.415841,4.261226,26.2,-0.88,1.59,10.91
49.415643,4.261022,26.55,-0.87,1.83,9.05
49.415643,4.261022,26.55,-2.66,1.17,8.96
49.415452,4.260802,26.86,-1.02,1.67,9.6
49.415452,4.260802,26.86,-1.22,1.79,9.88
49.415257,4.260586,27.13,-0.17,2.34,10.33
49.415257,4.260586,27.13,0.26,2.51,10.22
49.415055,4.260373,27.36,-0.41,1.12,9.58
49.415055,4.260373,27.36,-1.35,1.11,10.29
49.414852,4.260157,27.4,-0.89,0.62,9.71
49.414852,4.260157,27.4,-0.92,2.06,10.11
49.414651,4.25994,27.46,-1.48,0.99,10.52
49.414651,4.25994,27.46,-0.53,2.0,11.38
49.414448,4.259723,27.47,-1.64,1.22,10.53
49.414448,4.259723,27.47,-1.25,1.25,9.42
49.414246,4.259511,27.49,-1.13,0.96,10.23
49.414246,4.259511,27.49,-1.99,0.59,9.96
49.414046,4.259288,27.57,-1.09,1.58,9.25
49.414046,4.259288,27.57,-0.74,1.68,8.89
49.413842,4.259074,27.68,-1.49,2.56,9.92
49.413842,4.259074,27.68,0.14,2.04,10.44
49.413634,4.258864,27.71,-1.49,1.57,9.74
49.413634,4.258864,27.71,-0.87,1.65,9.6
49.413425,4.258653,27.85,-1.47,0.79,9.96
49.413425,4.258653,27.85,-1.44,1.07,9.04
49.413216,4.258439,27.89,-0.36,1.69,8.66
49.413216,4.258439,27.89,-1.7,1.59,9.97
49.413008,4.258218,27.98,-0.93,1.84,8.81
49.413008,4.258218,27.98,-2.15,2.19,11.74
49.412799,4.258001,28.05,-1.18,0.5,9.67
49.412591,4.25778,28.16,-1.23,0.88,9.0
49.412591,4.25778,28.16,-0.42,2.22,9.56
49.412383,4.257557,28.27,-1.01,1.35,10.58
49.412383,4.257557,28.27,-1.34,1.73,8.36
49.412175,4.257339,28.37,-2.19,1.91,8.25
49.412175,4.257339,28.37,-1.23,2.05,7.77
49.411966,4.257112,28.46,-1.69,1.64,11.18
49.411966,4.257112,28.46,-2.84,1.1,9.95
49.411755,4.256891,28.57,-2.3,1.75,10.12
49.411755,4.256891,28.57,-1.9,1.74,7.7
49.411542,4.256665,28.69,-1.47,1.11,10.43
49.411542,4.256665,28.69,-1.32,1.68,8.43
49.411327,4.256445,28.73,-1.17,1.83,9.89
49.411327,4.256445,28.73,-0.57,2.13,10.96
49.411113,4.256218,28.77,-0.77,2.25,9.37
49.411113,4.256218,28.77,-0.23,2.23,10.64
49.410898,4.256003,28.75,0.82,1.96,10.88
49.410898,4.256003,28.75,-1.24,0.25,10.65
49.410684,4.255785,28.73,-1.8,0.87,10.41
49.410684,4.255785,28.73,-2.14,0.75,12.47
49.410471,4.255561,28.67,-2.17,0.47,10.47
49.410471,4.255561,28.67,-1.79,1.06,9.58
49.410255,4.255347,28.59,-0.76,2.0,9.11
49.410255,4.255347,28.59,-1.97,0.99,9.27
49.410041,4.255125,28.6,-0.59,1.61,9.58
49.410041,4.255125,28.6,1.19,2.89,11.69
49.409832,4.254896,28.65,0.29,1.08,9.54
49.409832,4.254896,28.65,0.14,1.89,10.23
49.409622,4.254671,28.69,-0.33,1.35,9.15
49.409622,4.254671,28.69,-0.5,1.12,8.96
49.40941,4.254449,28.75,-1.08,1.88,9.01
49.40941,4.254449,28.75,-1.36,1.75,10.38
49.409199,4.254215,28.76,-1.36,1.36,11.31
49.409199,4.254215,28.76,0.01,1.94,11.72
49.408988,4.253987,28.74,-1.29,2.12,10.12
49.408988,4.253987,28.74,0.2,2.82,12.18
49.408776,4.253767,28.78,-0.34,1.11,10.34
49.408776,4.253767,28.78,0.25,2.15,12.55
49.408562,4.253542,28.83,-0.43,1.48,10.52
49.408351,4.25331,28.8,-1.34,0.07,9.67
49.408351,4.25331,28.8,-1.81,0.12,7.72
49.408139,4.253079,28.81,-3.25,0.45,9.56
49.408139,4.253079,28.81,-2.35,1.02,7.51
49.407927,4.252858,28.85,-0.86,2.09,9.35
49.407927,4.252858,28.85,0.15,1.43,8.36
49.407715,4.252634,28.89,-0.88,1.29,7.32
49.407715,4.252634,28.89,-0.49,1.37,11.08
49.407498,4.252415,28.99,-1.4,2.07,9.56
49.407498,4.252415,28.99,0.31,2.64,9.7
49.407281,4.252193,29.05,-1.21,0.68,9.54
49.407281,4.252193,29.05,-1.52,0.67,7.29
49.407064,4.251972,29.17,-0.31,1.87,12.69
49.407064,4.251972,29.17,-0.5,1.12,7.17
49.406845,4.251749,29.22,0.26,1.78,10.31
49.406845,4.251749,29.22,0.16,1.13,11.04
49.406627,4.251518,29.29,-2.78,0.04,9.29
49.406627,4.251518,29.29,-0.31,1.61,9.44
49.40641,4.251284,29.29,-2.29,1.8,8.27
49.40641,4.251284,29.29,-0.09,0.68,9.54
49.406189,4.251058,29.34,-2.02,0.71,8.6
49.406189,4.251058,29.34,-0.38,0.98,11.29
49.405973,4.250832,29.37,-0.96,1.38,8.19
49.405973,4.250832,29.37,0.89,1.82,12.07
49.405757,4.250601,29.32,-0.38,1.57,9.55
49.405757,4.250601,29.32,-0.13,1.7,10.61
49.405543,4.250363,29.35,-1.96,1.77,9.03
49.405543,4.250363,29.35,-1.02,2.04,10.51
49.405326,4.250128,29.38,-0.69,1.17,9.28
49.405326,4.250128,29.38,-0.16,0.59,8.33
49.405109,4.249897,29.41,-1.46,1.32,8.85
49.405109,4.249897,29.41,-1.12,1.09,9.89
49.404888,4.249681,29.49,-2.07,0.39,8.78
49.404888,4.249681,29.49,-0.63,1.64,10.57
49.404669,4.249448,29.53,-2.1,1.81,8.97
49.404669,4.249448,29.53,-0.1,0.89,8.97
49.404451,4.249213,29.53,0.15,1.32,10.88
49.404451,4.249213,29.53,-1.17,0.96,8.7
49.404232,4.248988,29.59,-0.13,1.2,10.97
49.404232,4.248988,29.59,-1.79,0.22,10.93
49.404012,4.248755,29.53,-1.5,1.54,9.37
49.403796,4.248521,29.14,-0.9,2.35,9.77
49.403796,4.248521,29.14,-0.51,1.85,9.0
49.40358,4.248298,29.06,0.61,1.37,10.52
49.40358,4.248298,29.06,0.63,1.95,11.05
49.403363,4.248082,29.17,-1.28,1.09,9.92
49.403363,4.248082,29.17,-0.64,1.4,10.61
49.403147,4.247849,29.46,-1.33,2.14,7.88
49.403147,4.247849,29.46,-1.15,1.04,9.42
49.402928,4.247619,29.74,-0.68,1.12,12.01
49.402928,4.247619,29.74,-1.43,1.9,9.57
49.402707,4.247388,29.88,-1.94,0.58,9.02
49.402707,4.247388,29.88,-1.75,1.23,9.49
49.402485,4.247157,29.95,-0.18,0.57,9.93
49.402485,4.247157,29.95,-0.45,1.35,10.74
49.402263,4.246926,30.04,-2.26,2.08,9.93
49.402263,4.246926,30.04,-1.51,1.27,8.72
49.402039,4.246692,30.13,-1.07,1.64,10.96
49.402039,4.246692,30.13,-0.68,0.89,7.63
49.401816,4.246456,30.19,-1.58,2.21,8.04
49.401816,4.246456,30.19,-1.36,1.26,9.76
49.401593,4.246218,30.22,-0.67,1.24,8.57
49.401593,4.246218,30.22,-2.64,0.23,10.19
49.401368,4.245981,30.22,-0.77,1.32,9.36
49.401368,4.245981,30.22,-1.46,1.47,10.0
49.401143,4.245749,30.25,-1.09,0.92,9.15
49.401143,4.245749,30.25,-3.0,1.66,9.08
49.400918,4.245513,30.31,-0.75,1.29,10.49
49.400918,4.245513,30.31,-1.94,0.65,10.69
49.400695,4.245272,30.27,-0.82,1.42,10.74
49.400695,4.245272,30.27,-0.63,0.92,8.61
49.400471,4.245036,30.23,-0.75,0.12,9.57
49.400471,4.245036,30.23,-2.28,0.66,10.43
49.40025,4.2448,29.68,-1.51,1.82,8.35
49.40025,4.2448,29.68,-0.49,0.56,9.98
49.400033,4.244567,29.33,-0.43,0.97,10.7
49.400033,4.244567,29.33,-1.59,1.54,10.08
49.399815,4.244344,29.19,-1.36,2.16,8.35
49.399815,4.244344,29.19,-2.34,1.56,8.88
49.399595,4.244118,29.26,-1.24,1.15,10.39
49.399595,4.244118,29.26,-2.38,0.92,8.76
49.399377,4.24389,29.28,-1.12,1.4,12.16
49.399377,4.24389,29.28,-1.78,1.29,9.33
49.399158,4.243669,29.31,-0.38,1.33,9.81
49.39894,4.243448,29.38,-1.32,1.02,10.05
49.39894,4.243448,29.38,-0.85,1.77,10.66
49.398722,4.243217,29.44,-1.33,2.07,6.99
49.398722,4.243217,29.44,-1.07,1.48,10.73
49.398505,4.242985,29.44,-2.54,1.64,10.94
49.398505,4.242985,29.44,-2.03,0.03,8.43
49.398288,4.242756,29.4,-1.39,1.19,9.27
49.398288,4.242756,29.4,-1.03,1.04,11.96
49.398071,4.242524,29.36,-2.58,0.85,10.34
49.398071,4.242524,29.36,-1.54,1.56,9.77
49.397851,4.242297,29.31,-0.73,2.25,9.41
49.397851,4.242297,29.31,-1.65,0.94,10.16
49.397632,4.242065,29.25,-1.21,1.54,10.41
49.397632,4.242065,29.25,-0.69,1.74,10.64
49.397416,4.241838,29.13,-1.69,1.23,8.52
49.397416,4.241838,29.13,-0.12,1.81,9.8
49.3972,4.241611,29.04,-0.6,1.92,10.24
49.3972,4.241611,29.04,-0.93,1.19,10.3
49.396981,4.24139,28.9,-1.85,0.78,9.84
49.396981,4.24139,28.9,-1.43,0.78,10.37
49.396769,4.241161,28.79,-1.56,2.24,11.5
49.396769,4.241161,28.79,-0.51,2.1,8.86
49.396557,4.240939,28.66,-2.1,1.39,8.4
49.396557,4.240939,28.66,-0.51,2.13,10.01
49.396348,4.240711,28.54,0.08,1.9,12.09
49.396348,4.240711,28.54,-1.71,1.44,9.29
49.396139,4.240493,28.45,-1.14,2.05,8.86
49.396139,4.240493,28.45,-0.15,2.12,10.15
49.395933,4.240268,28.36,-0.61,2.12,9.39
49.395933,4.240268,28.36,-2.25,1.15,10.55
49.395725,4.240048,28.4,-1.49,0.89,8.85
49.395725,4.240048,28.4,-3.23,1.04,9.41
49.39551,4.239832,28.39,-2.48,1.24,10.17
49.39551,4.239832,28.39,-0.81,0.33,12.22
49.395296,4.239622,28.3,-0.42,0.1,11.69
49.395296,4.239622,28.3,-3.41,1.23,8.96
49.395081,4.239413,27.83,-1.05,1.23,10.58
49.395081,4.239413,27.83,-1.62,0.89,11.9
49.394874,4.239198,27.77,0.09,0.93,9.1
49.394662,4.239002,27.79,0.03,2.24,11.03
49.394662,4.239002,27.79,-2.66,0.78,9.25
49.39445,4.238797,27.85,-1.66,1.37,11.97
49.39445,4.238797,27.85,-2.01,0.8,7.86
49.394234,4.238593,27.95,0.33,0.46,9.32
49.394234,4.238593,27.95,-2.63,0.79,10.32
49.394024,4.238389,27.58,-0.84,1.45,12.45
49.394024,4.238389,27.58,-1.43,0.83,9.28
49.393816,4.238187,27.79,-1.21,1.2,10.97
49.393816,4.238187,27.79,-0.99,0.95,9.44
49.39361,4.237979,28.04,0.2,1.3,11.18
49.39361,4.237979,28.04,-1.95,0.31,10.95
49.393406,4.237762,27.85,-0.47,0.71,9.05
49.393406,4.237762,27.85,-2.59,1.78,8.34
49.393201,4.237544,28.15,-2.34,1.04,8.44
49.393201,4.237544,28.15,-2.37,1.62,8.61
49.392989,4.237328,28.49,-2.5,0.39,9.11
49.392989,4.237328,28.49,-0.48,1.65,10.61
49.392776,4.237113,28.28,-0.37,0.82,8.9
49.392776,4.237113,28.28,0.98,1.63,12.9
49.392564,4.236897,28.32,-1.83,0.91,9.23
49.392564,4.236897,28.32,-2.47,-0.05,7.43
49.392354,4.236678,28.61,-1.24,0.98,8.81
49.392354,4.236678,28.61,-1.79,1.57,9.63
49.392146,4.236449,28.99,-0.27,2.15,10.26
49.392146,4.236449,28.99,-1.68,1.04,10.21
49.391929,4.236221,29.29,0.9,1.34,10.66
49.391929,4.236221,29.29,-1.23,0.9,9.8
49.391707,4.235997,29.68,-1.46,1.08,8.88
49.391707,4.235997,29.68,0.02,0.72,11.84
49.391486,4.23576,30.03,-0.41,1.69,12.74
49.391486,4.23576,30.03,0.06,1.81,9.17
49.391267,4.235509,30.26,-1.03,1.46,10.21
49.391267,4.235509,30.26,-0.09,1.13,9.99
49.391048,4.235262,30.48,-1.22,0.97,9.67
49.391048,4.235262,30.48,-2.21,0.13,8.72
49.390826,4.235012,30.62,-1.75,1.6,7.24
49.390826,4.235012,30.62,-0.94,1.61,9.86
49.390607,4.234754,30.68,-2.15,0.23,9.11
49.390607,4.234754,30.68,-1.24,0.37,9.23
49.390388,4.234498,30.62,-1.03,0.92,10.91
49.390388,4.234498,30.62,-0.34,0.58,10.91
49.390167,4.234247,30.32,-0.96,0.85,12.82
49.389946,4.234006,29.97,-0.58,1.01,10.14
49.389946,4.234006,29.97,-1.89,1.08,10.57
49.389732,4.233754,29.78,-0.91,1.3,11.29
49.389732,4.233754,29.78,-0.98,0.8,9.06
49.389517,4.233508,29.48,-1.74,-0.06,11.53
49.389517,4.233508,29.48,-1.88,0.33,8.44
49.389298,4.233294,28.95,-1.12,1.14,9.06
49.389298,4.233294,28.95,-1.38,1.71,8.71
49.389087,4.233059,29.05,-2.68,1.94,8.37
49.389087,4.233059,29.05,-1.1,0.97,8.42
49.38887,4.232834,29.23,-3.07,0.56,9.33
49.38887,4.232834,29.23,-3.29,1.02,10.62
49.388652,4.232603,29.12,-1.78,1.69,12.01
49.388652,4.232603,29.12,-1.02,1.33,8.82
49.388434,4.23238,29.0,-1.8,2.08,8.94
49.388434,4.23238,29.0,-0.93,1.54,9.6
49.388215,4.232158,28.94,0.08,0.24,9.56
49.388215,4.232158,28.94,-0.58,0.06,9.57
49.387999,4.23194,28.58,-0.62,0.42,11.39
49.387999,4.23194,28.58,0.25,0.56,10.78
49.387784,4.231726,28.34,-0.66,1.22,9.24
49.387784,4.231726,28.34,-1.02,1.07,7.44
49.387568,4.231515,28.42,-1.47,1.26,10.41
49.387568,4.231515,28.42,-1.28,0.91,10.02
49.387351,4.231303,28.59,-0.43,1.67,10.79
49.387351,4.231303,28.59,-1.68,0.81,9.58
49.38713,4.231097,28.78,-1.89,0.67,9.63
49.38713,4.231097,28.78,-0.3,0.43,12.22
49.386913,4.230884,28.85,-2.04,0.52,11.34
49.386913,4.230884,28.85,-1.85,0.53,9.6
49.386697,4.230666,29.0,-2.21,0.72,10.04
49.386697,4.230666,29.0,-0.69,1.12,10.32
49.386471,4.230466,29.11,-1.94,2.06,10.84
49.386471,4.230466,29.11,-0.7,0.42,9.75
49.386241,4.230267,29.26,-2.07,0.74,10.93
49.386241,4.230267,29.26,-0.78,0.97,10.71
49.386015,4.230065,29.31,-0.85,2.25,9.59
49.386015,4.230065,29.31,-0.23,1.69,10.09
49.385788,4.229858,29.08,-0.49,0.41,10.95
49.385563,4.229658,28.86,-1.76,0.15,10.08
49.385563,4.229658,28.86,-1.15,-0.11,9.82
49.385337,4.229462,28.79,-0.96,1.07,9.79
49.385337,4.229462,28.79,-1.28,0.65,10.18
49.385109,4.229272,28.9,-1.4,1.58,10.34
49.385109,4.229272,28.9,0.22,1.03,12.41
49.384884,4.229072,29.21,-2.12,0.52,10.75
49.384884,4.229072,29.21,-1.45,1.69,10.42
49.384654,4.228865,29.53,-1.35,1.36,10.11
49.384654,4.228865,29.53,0.07,1.24,12.15
49.384419,4.228663,29.95,-1.28,2.44,9.13
49.384419,4.228663,29.95,-1.22,1.38,13.3
49.384181,4.228458,30.21,-0.31,2.15,9.83
49.384181,4.228458,30.21,-0.98,1.5,9.83
49.38395,4.228239,30.48,0.1,0.51,10.66
49.38395,4.228239,30.48,-0.51,1.72,9.1
49.383718,4.228024,30.17,-1.84,-0.82,10.82
49.383718,4.228024,30.17,-0.55,1.03,11.9
49.383488,4.227809,29.98,0.36,1.21,9.77
49.383488,4.227809,29.98,-0.08,0.97,10.19
49.383259,4.227594,29.96,-0.34,1.94,10.15
49.383259,4.227594,29.96,0.23,-0.31,9.43
49.383034,4.227367,29.49,-0.31,1.33,10.44
49.383034,4.227367,29.49,-1.53,1.73,11.05
49.382812,4.227138,29.33,-0.28,2.33,10.44
49.382812,4.227138,29.33,-0.39,0.57,9.81
49.382589,4.226923,29.42,-0.71,1.26,8.95
49.382589,4.226923,29.42,-1.33,0.77,10.61
49.382369,4.226705,29.52,0.97,1.17,11.47
49.382369,4.226705,29.52,-1.83,0.99,11.58
49.382151,4.226481,29.66,-1.21,1.54,10.8
49.382151,4.226481,29.66,0.28,1.53,11.16
49.381933,4.226249,29.84,-1.44,1.27,9.74
49.381933,4.226249,29.84,-0.67,1.26,10.44
49.38171,4.226024,30.04,-1.19,1.71,10.95
49.38171,4.226024,30.04,-0.32,1.94,9.34
49.381482,4.22581,30.2,-0.98,0.61,11.3
49.381482,4.22581,30.2,-1.82,1.53,7.41
49.381252,4.22559,30.42,-1.99,1.13,9.54
49.381252,4.22559,30.42,-0.71,1.12,9.64
49.38102,4.225366,30.58,-1.81,0.9,8.42
49.38102,4.225366,30.58,-0.72,1.3,10.08
49.380782,4.225153,30.72,-1.95,0.9,9.01
49.380543,4.224932,30.87,-1.9,0.57,9.43
49.380543,4.224932,30.87,-0.83,1.42,10.56
49.380311,4.224693,31.0,-0.49,1.47,9.99
49.380311,4.224693,31.0,-1.07,1.45,11.79
49.380077,4.22446,31.1,0.09,1.93,9.5
49.380077,4.22446,31.1,-1.63,1.52,10.08
49.379845,4.224222,31.16,-0.06,0.74,9.48
49.379845,4.224222,31.16,-0.37,0.87,10.16
49.379608,4.223983,31.3,-1.52,0.93,9.56
49.379608,4.223983,31.3,-0.27,1.44,10.26
49.379369,4.223757,31.48,-1.2,0.32,8.4
49.379369,4.223757,31.48,-1.13,1.47,11.42
49.379127,4.223532,31.57,-2.34,1.3,8.31
49.379127,4.223532,31.57,-1.68,1.87,10.16
49.378885,4.223296,31.65,-0.54,1.55,9.52
49.378885,4.223296,31.65,-2.34,0.44,8.69
49.378643,4.223064,31.82,-1.86,0.38,9.53
49.378643,4.223064,31.82,-1.61,1.34,10.04
49.3784,4.222823,31.96,-0.51,-1.23,10.93
49.3784,4.222823,31.96,-0.32,-0.47,10.32
49.37816,4.222575,31.4,-0.38,0.34,10.2
49.37816,4.222575,31.4,-1.11,1.06,9.38
49.377929,4.222333,30.76,-2.01,0.32,11.66
49.377929,4.222333,30.76,0.3,1.11,11.05
49.377701,4.222101,30.29,0.2,0.85,10.08
49.377701,4.222101,30.29,-0.71,0.92,9.93
49.377474,4.221872,29.98,-2.09,0.38,10.57
49.377474,4.221872,29.98,-1.92,1.68,9.08
49.377249,4.22165,29.92,-0.55,1.5,10.77
49.377249,4.22165,29.92,-0.22,1.53,9.39
49.377024,4.221425,29.94,0.08,1.44,10.66
49.377024,4.221425,29.94,-2.7,0.49,9.84
49.376799,4.221211,29.88,-1.73,2.17,8.52
49.376799,4.221211,29.88,-2.16,0.53,10.43
49.376574,4.220994,30.02,-0.08,1.6,10.75
49.376574,4.220994,30.02,0.54,1.81,12.2
49.376352,4.220759,30.13,-1.24,1.28,7.67
49.376125,4.220539,30.28,-0.98,0.86,10.72
49.376125,4.220539,30.28,-0.43,1.43,9.63
49.375897,4.220315,30.21,-1.06,-0.79,10.75
49.375897,4.220315,30.21,-1.75,1.16,9.1
49.375673,4.220084,29.73,-0.79,1.96,9.23
49.375673,4.220084,29.73,-0.77,0.62,11.34
49.375447,4.219856,29.58,-1.19,1.91,10.33
49.375447,4.219856,29.58,-0.58,2.08,11.06
49.375225,4.219626,29.59,-0.49,0.53,9.09
49.375225,4.219626,29.59,-0.48,1.29,11.56
49.375003,4.219411,29.69,-0.85,1.52,7.59
49.375003,4.219411,29.69,-1.11,1.29,10.92
49.374776,4.219194,29.82,-2.31,1.44,7.21
49.374776,4.219194,29.82,-1.35,1.45,8.18
49.37455,4.218971,29.97,-2.6,0.53,9.19
49.37455,4.218971,29.97,-0.38,1.28,9.71
49.374324,4.218752,29.96,-0.78,0.87,10.23
49.374324,4.218752,29.96,-0.79,1.1,7.92
49.374091,4.21853,30.15,-1.89,1.53,10.04
49.374091,4.21853,30.15,-0.43,1.35,8.75
49.373861,4.218309,30.16,-0.48,0.38,10.58
49.373861,4.218309,30.16,0.39,1.17,9.28
49.373631,4.218079,30.24,0.03,1.61,9.84
49.373631,4.218079,30.24,-0.27,1.05,11.66
49.373403,4.217858,30.25,-0.13,0.08,11.2
49.373403,4.217858,30.25,-0.71,1.59,7.81
49.373173,4.217637,29.6,-0.69,1.52,10.12
49.373173,4.217637,29.6,-0.26,0.02,11.92
49.372948,4.21743,29.5,-1.58,1.47,10.53
49.372948,4.21743,29.5,-1.06,1.95,9.56
49.372726,4.217213,29.46,-0.83,1.37,11.31
49.372726,4.217213,29.46,-1.03,1.13,9.51
49.372501,4.216999,29.5,-1.24,1.33,8.2
49.372501,4.216999,29.5,-1.63,1.55,6.06
49.372276,4.21678,29.53,-0.51,0.83,8.61
49.372276,4.21678,29.53,-1.36,1.22,10.63
49.372055,4.216555,29.53,-1.71,1.45,9.51
49.372055,4.216555,29.53,-1.24,1.34,8.97
49.371832,4.216339,29.48,-2.01,0.85,9.64
49.371832,4.216339,29.48,-0.89,0.91,9.88
49.371608,4.216124,29.45,-0.35,2.27,9.2
49.371382,4.215917,29.41,-0.19,1.58,11.35
49.371382,4.215917,29.41,-1.74,1.04,9.68
49.371157,4.215713,29.29,-1.01,0.68,9.76
49.371157,4.215713,29.29,-1.36,1.75,8.42
49.370938,4.215503,29.3,0.14,0.95,8.87
49.370938,4.215503,29.3,-1.72,0.19,10.39
49.370718,4.215277,29.17,-1.58,1.07,10.48
49.370718,4.215277,29.17,-0.41,1.19,12.33
49.370501,4.215056,29.06,-1.06,1.43,8.09
49.370501,4.215056,29.06,-1.57,2.04,9.69
49.370279,4.214838,28.99,-1.53,1.24,10.36
49.370279,4.214838,28.99,-0.5,1.38,10.72
49.370058,4.214635,29.02,-1.75,0.34,13.29
49.370058,4.214635,29.02,-2.34,0.53,10.39
49.369831,4.214423,29.16,-1.79,2.15,11.03
49.369831,4.214423,29.16,-3.32,-0.34,8.99
49.369603,4.214218,29.32,-1.5,1.3,8.55
49.369603,4.214218,29.32,-0.38,1.0,8.84
49.369369,4.214017,29.43,0.2,2.14,11.15
49.369369,4.214017,29.43,-0.9,1.05,7.79
49.36913,4.213832,29.52,0.3,2.08,8.92
49.36913,4.213832,29.52,-0.79,1.2,10.66
49.368893,4.213641,29.62,-0.41,1.57,9.22
49.368893,4.213641,29.62,-1.66,1.18,9.29
49.368666,4.213435,29.37,0.1,0.08,11.46
49.368666,4.213435,29.37,-0.25,1.7,11.99
49.368446,4.213215,29.24,-0.35,2.16,9.47
49.368446,4.213215,29.24,-1.27,1.67,9.39
49.36822,4.213001,29.29,-0.63,1.94,8.73
49.36822,4.213001,29.29,-2.32,1.15,10.41
49.367993,4.21279,29.49,-1.4,1.46,8.72
49.367993,4.21279,29.49,-0.64,2.24,9.63
49.367776,4.212559,29.61,-2.43,-0.2,8.8
49.367776,4.212559,29.61,-1.09,1.1,9.55
49.367552,4.212338,29.73,-0.91,2.04,9.27
49.367552,4.212338,29.73,-2.58,0.96,10.16
49.36733,4.212117,29.7,-2.37,1.18,11.16
49.36733,4.212117,29.7,-0.7,1.22,8.78
49.367105,4.211896,29.94,-0.49,1.31,10.03
49.367105,4.211896,29.94,-1.21,0.52,8.8
49.366878,4.211671,30.12,-2.7,0.69,11.17
49.366878,4.211671,30.12,-0.86,1.76,10.14
49.366644,4.211454,30.23,-0.5,0.23,10.36
49.366417,4.211234,29.88,-1.62,0.75,8.72
49.366417,4.211234,29.88,0.26,1.03,13.44
49.366192,4.211016,29.63,-0.96,1.06,11.67
49.366192,4.211016,29.63,-1.78,0.89,9.75
49.365967,4.210803,29.47,-0.48,1.31,9.75
49.365967,4.210803,29.47,-0.87,-0.37,9.05
49.365744,4.21059,29.18,-1.27,1.24,10.54
49.365744,4.21059,29.18,-0.97,1.83,10.16
49.365522,4.210373,28.91,-0.0,1.21,9.37
49.365522,4.210373,28.91,-0.67,1.78,7.6
49.365304,4.210165,28.66,-1.36,1.26,8.44
49.365304,4.210165,28.66,-1.29,1.19,10.3
49.365088,4.209955,28.58,-2.38,0.63,7.96
49.365088,4.209955,28.58,-2.19,1.43,8.32
49.36487,4.209748,28.59,-2.1,0.5,9.97
49.36487,4.209748,28.59,-1.26,1.42,8.33
49.364652,4.209542,28.72,-2.24,0.91,8.33
49.364652,4.209542,28.72,-2.52,0.39,7.31
49.364432,4.209337,28.49,-2.57,0.7,10.13
49.364432,4.209337,28.49,-2.89,0.18,7.73
49.364209,4.209135,28.28,-1.38,0.17,6.77
49.364209,4.209135,28.28,-0.49,0.99,10.21
49.363979,4.208956,28.28,-1.13,1.21,11.97
49.363979,4.208956,28.28,-1.92,0.36,9.88
49.363746,4.208796,28.4,-2.8,-0.43,10.61
49.363746,4.208796,28.4,-1.04,0.06,9.58
49.363506,4.208654,28.52,-1.85,0.78,9.39
49.363506,4.208654,28.52,-1.14,0.42,11.11
49.363266,4.208523,28.59,-1.35,0.16,10.92
49.363266,4.208523,28.59,-1.7,0.85,9.58
49.363025,4.208402,28.73,-1.13,0.61,9.72
49.363025,4.208402,28.73,-2.26,1.02,9.29
49.362775,4.208299,28.9,-2.04,1.7,10.96
49.362775,4.208299,28.9,-1.07,1.54,10.69
49.362519,4.208213,28.96,-1.1,0.45,9.41
49.362519,4.208213,28.96,-1.94,0.58,12.53
49.362256,4.208148,29.09,-1.26,0.05,10.19
49.362256,4.208148,29.09,-0.71,1.32,11.98
49.361995,4.208097,29.08,-0.76,1.23,10.46
49.361728,4.208066,29.21,-0.35,1.14,11.16
49.361728,4.208066,29.21,-0.65,0.4,10.36
49.361467,4.20803,28.97,0.63,-0.26,9.14
49.361467,4.20803,28.97,0.24,0.39,10.81
49.361217,4.207995,28.69,-1.35,0.59,9.87
49.361217,4.207995,28.69,-1.5,0.07,10.21
49.360968,4.207965,28.68,-2.34,0.2,8.23
49.360968,4.207965,28.68,-1.41,0.58,9.55
49.360713,4.207925,28.65,-2.11,1.12,10.14
49.360713,4.207925,28.65,0.28,1.58,8.1
49.360453,4.207885,28.99,-1.08,1.99,8.7
49.360453,4.207885,28.99,-0.62,1.81,8.26
49.360193,4.207848,29.07,-0.76,1.61,8.35
49.360193,4.207848,29.07,-1.37,1.36,11.28
49.359931,4.20781,29.15,-0.31,0.8,9.29
49.359931,4.20781,29.15,-1.13,0.53,8.13
49.359671,4.207763,29.29,0.94,2.23,9.21
49.359671,4.207763,29.29,-0.64,2.28,9.68
49.359411,4.207719,29.28,-0.38,0.99,10.11
49.359411,4.207719,29.28,-0.98,1.24,10.1
49.359147,4.207664,29.37,-0.57,1.21,10.59
49.359147,4.207664,29.37,-0.88,2.47,9.37
49.358885,4.207597,29.44,0.04,0.81,10.59
49.358885,4.207597,29.44,-1.88,0.34,9.63
49.358622,4.207526,29.34,-0.42,2.38,9.84
49.358622,4.207526,29.34,-1.42,2.0,9.04
49.358361,4.207444,29.5,0.64,1.75,11.06
49.358361,4.207444,29.5,-0.7,0.06,9.82
49.358099,4.207356,29.64,-0.31,0.87,9.59
49.358099,4.207356,29.64,-0.51,1.33,9.39
49.357837,4.207268,28.92,-1.37,0.89,7.47
49.357837,4.207268,28.92,-1.24,1.93,8.44
49.357587,4.207174,27.99,-1.61,1.19,9.97
49.357587,4.207174,27.99,0.24,1.07,11.18
49.357349,4.207073,27.84,-1.8,1.2,10.42
49.357349,4.207073,27.84,-0.97,0.83,9.97
49.357104,4.206984,27.91,-1.6,1.21,10.58
49.357104,4.206984,27.91,-0.08,1.75,10.55
49.356856,4.206898,27.78,-0.8,1.65,10.68
49.35661,4.206798,27.77,-0.98,1.07,9.86
49.35661,4.206798,27.77,-0.64,2.22,11.03
49.356369,4.206695,27.7,-1.57,1.92,8.1
49.356369,4.206695,27.7,-0.26,1.81,9.44
49.356127,4.206589,27.81,-0.83,0.88,10.91
49.356127,4.206589,27.81,-0.04,0.83,10.61
49.355883,4.206488,27.83,-0.57,1.11,8.7
49.355883,4.206488,27.83,-0.21,2.1,9.79
49.35564,4.206385,27.74,-1.99,1.04,10.29
49.35564,4.206385,27.74,0.63,2.45,11.46
49.355402,4.206274,27.85,-0.96,1.7,7.19
49.355402,4.206274,27.85,-1.66,2.36,7.24
49.355163,4.206151,27.88,-0.76,1.98,10.47
49.355163,4.206151,27.88,0.29,1.42,5.74
49.354929,4.206017,28.22,-0.57,1.92,10.23
49.354929,4.206017,28.22,0.5,0.65,9.31
49.354691,4.205879,28.25,-0.05,1.55,11.4
49.354691,4.205879,28.25,-2.6,1.3,10.07
49.354458,4.205734,28.02,-2.17,1.86,10.07
49.354458,4.205734,28.02,-0.77,1.88,10.4
49.354225,4.205595,28.2,-1.12,0.16,7.04
49.354225,4.205595,28.2,-0.47,0.98,9.48
49.353985,4.205467,28.56,-1.09,0.63,8.17
49.353985,4.205467,28.56,0.31,0.39,7.91
49.353743,4.20534,28.68,-0.57,1.25,7.85
49.353743,4.20534,28.68,-0.91,1.41,8.14
49.353502,4.205211,28.59,-1.14,1.33,8.19
49.353502,4.205211,28.59,0.11,1.53,10.75
49.353261,4.205075,28.71,-0.62,2.46,9.92
49.353261,4.205075,28.71,0.32,1.79,9.45
49.353021,4.204924,28.98,-0.34,2.1,11.56
49.353021,4.204924,28.98,-0.91,1.5,10.95
49.35278,4.204773,29.29,0.55,1.55,10.23
49.35278,4.204773,29.29,0.67,2.19,9.91
49.352539,4.204613,29.39,0.14,2.23,8.98
49.352539,4.204613,29.39,-0.04,1.57,8.73
49.35231,4.204423,29.52,0.88,1.07,10.13
49.35231,4.204423,29.52,-0.31,2.1,10.44
49.35208,4.204216,29.6,-0.08,1.16,10.56
49.35208,4.204216,29.6,-0.91,0.91,10.26
49.351861,4.203986,29.56,-0.9,1.46,8.15
49.351644,4.203756,29.69,0.23,1.08,10.76
49.351644,4.203756,29.69,0.25,1.31,9.94
49.351428,4.203503,29.8,0.11,2.36,10.05
49.351428,4.203503,29.8,0.4,0.77,10.62
49.351231,4.203238,29.2,2.91,1.4,9.13
49.351231,4.203238,29.2,1.15,1.13,10.77
49.351045,4.202964,29.02,0.22,1.42,9.7
49.351045,4.202964,29.02,0.95,0.7,8.75
49.350854,4.202678,28.9,-0.39,2.34,8.16
49.350854,4.202678,28.9,1.26,2.73,9.66
49.350682,4.202382,28.67,0.34,1.49,8.68
49.350682,4.202382,28.67,-0.17,1.81,10.0
49.350513,4.20207,28.85,0.32,1.91,10.46
49.350513,4.20207,28.85,1.06,1.75,9.34
49.350356,4.201746,28.86,0.53,2.03,10.36
49.350356,4.201746,28.86,-0.49,2.02,9.48
49.350204,4.201425,29.02,0.06,1.48,8.74
49.350204,4.201425,29.02,-0.15,0.59,9.6
49.350063,4.201093,29.01,0.79,0.7,10.03
49.350063,4.201093,29.01,0.89,1.51,10.21
49.349935,4.200744,28.63,1.61,1.79,12.25
49.349935,4.200744,28.63,0.2,1.39,9.52
49.349817,4.200381,28.52,0.84,1.13,10.78
49.349817,4.200381,28.52,0.8,1.95,9.89
49.349712,4.200017,28.54,-0.27,1.68,9.65
49.349712,4.200017,28.54,-0.6,1.86,9.79
49.349613,4.199657,28.67,-0.67,1.32,10.22
49.349613,4.199657,28.67,0.6,1.59,10.66
49.349525,4.199279,28.61,-0.18,1.71,11.03
49.349525,4.199279,28.61,-0.23,2.21,10.63
49.349451,4.198903,28.81,1.56,1.85,9.51
49.349451,4.198903,28.81,0.25,2.03,9.65
49.349385,4.198525,28.88,-1.02,1.71,8.81
49.349385,4.198525,28.88,-0.79,1.64,9.37
49.349332,4.198147,28.4,0.09,1.91,10.44
49.349332,4.198147,28.4,0.39,1.6,9.8
49.349287,4.197766,28.4,-1.06,1.77,9.65
49.349287,4.197766,28.4,0.29,1.64,11.41
49.349244,4.197382,28.49,-1.62,0.86,10.26
49.349207,4.196993,28.65,-0.66,1.76,10.48
49.349207,4.196993,28.65,-0.24,1.09,9.26
49.349172,4.196598,28.78,0.04,1.79,9.53
49.349172,4.196598,28.78,-0.36,1.24,9.3
49.349132,4.196205,28.31,-1.56,0.64,10.37
49.349132,4.196205,28.31,-0.72,1.17,10.23
49.349087,4.195819,28.06,-0.38,1.49,10.27
49.349087,4.195819,28.06,-1.73,1.58,10.22
49.349043,4.195432,28.13,-1.46,1.76,9.95
49.349043,4.195432,28.13,-2.67,0.89,8.18
49.348988,4.19506,28.2,-1.39,0.48,10.49
49.348988,4.19506,28.2,-2.23,1.09,10.42
49.348932,4.194681,28.16,-1.4,0.93,9.64
49.348932,4.194681,28.16,-0.78,0.98,9.51
49.348866,4.19431,28.0,-0.03,1.64,9.93
49.348866,4.19431,28.0,-0.96,1.99,11.25
49.348792,4.193944,28.32,-1.68,1.8,9.17
49.348792,4.193944,28.32,-2.59,0.85,8.83
49.348714,4.193573,28.29,-1.54,1.61,10.51
49.348714,4.193573,28.29,-2.21,1.14,11.1
49.348615,4.1932,28.47,-1.1,1.22,9.64
49.348615,4.1932,28.47,-0.17,1.12,9.33
49.348508,4.192845,28.15,-3.49,0.45,9.91
49.348508,4.192845,28.15,-1.33,1.92,10.27
49.348397,4.192491,28.39,-1.96,1.13,9.95
49.348397,4.192491,28.39,-0.67,1.35,10.09
49.348272,4.192138,28.59,-3.66,0.2,11.27
49.348272,4.192138,28.59,-1.96,1.23,10.82
49.348139,4.191793,28.63,-1.72,1.04,10.99
49.348139,4.191793,28.63,-0.37,1.57,9.23
49.347998,4.191463,28.71,-0.86,1.28,12.29
49.347998,4.191463,28.71,-0.96,1.86,10.1
49.347846,4.191151,28.42,-0.95,1.12,10.56
49.347846,4.191151,28.42,-2.45,0.66,9.77
49.347679,4.190859,28.38,-1.66,1.67,10.2
49.347679,4.190859,28.38,-1.36,1.0,11.0
49.347516,4.190554,28.35,0.35,2.03,9.64
49.347516,4.190554,28.35,-2.35,0.5,10.74
49.347334,4.19028,28.39,-2.47,1.02,9.88
49.347158,4.190001,28.46,-0.61,1.75,9.32
49.347158,4.190001,28.46,-1.86,0.33,11.18
49.346969,4.189736,28.75,-0.91,0.68,9.69
49.346969,4.189736,28.75,-1.45,2.43,9.07
49.346777,4.189481,28.88,0.01,2.31,10.6
49.346777,4.189481,28.88,-0.81,2.37,10.03
49.346576,4.189226,28.97,-0.71,1.45,9.92
49.346576,4.189226,28.97,-1.15,0.53,9.25
49.346375,4.188967,29.06,-1.69,0.34,11.29
49.346375,4.188967,29.06,-1.17,1.29,10.26
49.346179,4.188708,29.05,-0.74,1.14,8.34
49.346179,4.188708,29.05,-0.6,2.04,8.37
49.345974,4.188467,29.1,-1.27,1.33,9.02
49.345974,4.188467,29.1,0.08,1.86,9.59
49.345765,4.188234,28.99,-1.24,1.12,10.13
49.345765,4.188234,28.99,-0.17,1.49,10.6
49.345559,4.187989,28.95,-0.7,1.5,11.12
49.345559,4.187989,28.95,-0.08,2.1,9.64
49.345354,4.187742,28.94,-2.6,1.87,9.28
49.345354,4.187742,28.94,-0.58,-0.2,9.62
49.345155,4.187487,28.9,-0.54,1.72,9.77
49.345155,4.187487,28.9,-0.18,1.27,9.14
49.344951,4.187236,28.96,0.86,1.75,11.56
49.344951,4.187236,28.96,-1.23,0.37,12.18
49.344748,4.186984,28.89,-1.4,1.0,11.13
49.344748,4.186984,28.89,-0.68,2.06,10.3
49.344541,4.186741,28.91,-0.57,2.13,10.65
49.344541,4.186741,28.91,-0.67,1.89,8.92
49.344338,4.186488,28.91,-1.38,1.21,8.23
49.344338,4.186488,28.91,-0.17,2.01,9.99
49.344135,4.186238,28.96,-0.05,1.13,10.0
49.344135,4.186238,28.96,-1.01,0.11,9.38
49.343932,4.185987,29.01,-0.73,1.4,9.4
49.343932,4.185987,29.01,-2.49,1.26,10.68
49.343729,4.185739,28.93,-0.91,1.96,11.18
49.343729,4.185739,28.93,1.4,1.99,12.82
49.343526,4.185496,28.95,-2.05,1.25,8.15
49.343526,4.185496,28.95,-1.44,1.69,9.02
49.343325,4.185244,28.91,-0.91,2.06,9.66
49.343325,4.185244,28.91,-0.86,1.98,10.08
49.343121,4.184997,28.88,-0.62,1.43,9.74
49.343121,4.184997,28.88,-0.21,1.35,10.89
49.342914,4.184751,28.83,-0.27,0.78,11.68
49.34271,4.184507,28.74,-1.97,0.45,11.56
49.34271,4.184507,28.74,-2.02,0.76,11.24
49.342509,4.184256,28.63,-2.41,-0.07,9.35
49.342509,4.184256,28.63,-1.98,0.09,9.76
49.342308,4.184013,28.52,-2.77,0.65,8.71
49.342308,4.184013,28.52,-2.05,1.33,9.76
49.342109,4.183767,28.4,-2.1,1.24,11.54
49.342109,4.183767,28.4,-2.23,0.76,9.75
49.341906,4.183529,28.39,-1.87,0.55,9.85
49.341906,4.183529,28.39,-0.1,1.18,9.95
49.341707,4.18329,28.35,0.65,2.24,9.95
49.341707,4.18329,28.35,-0.08,1.44,11.58
49.341509,4.183041,28.26,-0.81,1.43,9.67
49.341509,4.183041,28.26,-0.83,1.08,9.04
49.341312,4.182792,28.2,-1.35,1.56,8.48
49.341312,4.182792,28.2,-0.24,1.5,10.78
49.341116,4.182541,28.16,-0.74,1.62,10.24
49.341116,4.182541,28.16,-1.43,1.19,10.9
49.340916,4.182298,28.15,-2.44,1.02,9.43
49.340916,4.182298,28.15,-2.16,0.37,10.15
49.34072,4.182051,28.04,-0.08,1.54,9.0
49.34072,4.182051,28.04,-2.26,1.97,9.06
49.340522,4.181807,28.02,-1.58,2.02,10.66
49.340522,4.181807,28.02,0.06,1.92,12.08
49.340328,4.18156,27.94,-2.7,2.01,8.91
49.340328,4.18156,27.94,-2.0,0.91,10.66
49.340132,4.181323,28.02,-1.77,0.9,9.4
49.340132,4.181323,28.02,-0.26,2.04,6.47
49.339936,4.181085,28.06,-2.18,1.16,6.11
49.339936,4.181085,28.06,-0.73,1.4,9.89
49.339739,4.180843,28.13,0.63,2.32,9.98
49.339739,4.180843,28.13,-0.92,2.19,9.1
49.339543,4.180597,28.23,-1.36,1.43,12.33
49.339543,4.180597,28.23,-0.53,0.37,10.24
49.339348,4.180353,28.26,-0.57,1.37,9.48
49.339348,4.180353,28.26,-0.0,0.69,8.4
49.339149,4.180115,28.34,-0.76,0.8,7.69
49.339149,4.180115,28.34,-0.27,1.91,9.56
49.338949,4.179869,28.4,-0.26,1.05,9.59
49.338949,4.179869,28.4,-1.05,0.59,10.41
49.338745,4.179634,28.49,-1.2,0.75,9.1
49.338546,4.17939,28.48,-0.56,1.32,10.13
49.338546,4.17939,28.48,-1.19,0.82,8.02
49.338344,4.179147,28.2,-1.49,1.6,10.38
49.338344,4.179147,28.2,-0.8,1.81,9.0
49.338146,4.178907,27.88,-1.2,0.86,11.39
49.338146,4.178907,27.88,-1.29,1.15,10.13
49.337948,4.17867,27.81,0.02,0.61,9.83
49.337948,4.17867,27.81,-1.02,1.81,9.06
49.33775,4.178437,27.83,-0.45,1.55,10.43
49.33775,4.178437,27.83,-2.38,-0.27,8.58
49.337554,4.178197,27.9,-0.8,0.18,10.17
49.337554,4.178197,27.9,-1.82,0.74,7.84
49.337357,4.177958,28.06,-1.53,0.88,8.35
49.337357,4.177958,28.06,-0.71,1.24,7.4
49.337158,4.177727,28.19,-0.85,1.58,9.96
49.337158,4.177727,28.19,-1.55,1.86,10.6
49.336959,4.177487,28.48,-1.55,0.71,10.58
49.336959,4.177487,28.48,-0.58,0.97,9.07
49.336755,4.177251,28.8,-1.73,1.56,10.86
49.336755,4.177251,28.8,-1.35,1.15,9.73
49.336548,4.17702,29.03,-0.51,1.94,6.26
49.336548,4.17702,29.03,-0.48,0.69,10.23
49.33634,4.176777,29.18,-0.91,0.79,9.55
49.33634,4.176777,29.18,-2.56,0.35,10.42
49.336131,4.176528,29.2,0.03,0.95,10.57
49.336131,4.176528,29.2,-0.0,1.41,9.17
49.335925,4.176277,29.32,-1.78,0.74,8.36
49.335925,4.176277,29.32,-1.04,0.32,10.0
49.33572,4.176018,29.31,0.18,1.64,11.54
49.33572,4.176018,29.31,-0.35,0.93,9.52
49.33551,4.175777,29.28,-1.02,2.16,10.13
49.33551,4.175777,29.28,-0.06,0.99,9.69
49.335302,4.175529,29.29,-2.2,1.02,11.09
49.335302,4.175529,29.29,-1.34,1.18,9.47
49.335092,4.17528,29.35,-0.49,2.55,9.0
49.335092,4.17528,29.35,-0.04,1.32,9.46
49.334884,4.17503,29.45,-0.42,1.04,10.11
49.334884,4.17503,29.45,-0.9,0.82,9.23
49.334674,4.174775,29.54,-0.91,2.48,10.82
49.334674,4.174775,29.54,-0.8,0.55,9.53
49.334465,4.174521,29.63,-1.13,0.86,9.2
49.334465,4.174521,29.63,-1.41,1.0,8.27
49.334257,4.17427,29.68,-1.02,0.74,9.35
49.334257,4.17427,29.68,-1.21,1.71,10.85
49.334049,4.174021,29.72,-0.11,1.3,12.08
49.333843,4.173759,29.74,-0.56,0.65,11.0
49.333843,4.173759,29.74,-0.31,1.26,8.84
49.333632,4.173505,29.74,-1.93,2.03,9.67
49.333632,4.173505,29.74,-1.3,0.52,9.23
49.333422,4.173252,30.0,0.08,0.95,10.16
49.333422,4.173252,30.0,-0.36,0.84,10.22
49.33321,4.172993,30.23,-1.7,1.63,9.35
49.33321,4.172993,30.23,-2.55,0.13,9.84
49.332994,4.172739,30.33,-1.0,1.76,10.32
49.332994,4.172739,30.33,-1.99,1.63,11.66
49.332779,4.172484,30.53,-0.37,1.29,9.11
49.332779,4.172484,30.53,-1.47,1.41,11.77
49.332565,4.17222,30.79,-0.44,0.53,9.78
49.332565,4.17222,30.79,-0.93,1.26,10.86
49.332346,4.171953,30.89,-1.74,1.54,10.27
49.332346,4.171953,30.89,-1.42,1.83,10.19
49.332124,4.171688,31.14,0.27,-1.08,10.8
49.332124,4.171688,31.14,0.12,1.72,9.24
49.331904,4.171429,30.62,-0.69,-0.03,10.05
49.331904,4.171429,30.62,0.1,0.65,11.2
49.331691,4.171161,30.32,0.18,1.24,11.07
49.331691,4.171161,30.32,-0.42,1.38,10.75
49.331476,4.170908,30.25,-1.02,0.87,7.37
49.331476,4.170908,30.25,-1.4,0.65,9.75
49.331263,4.170645,30.28,-1.95,0.7,10.6
49.331263,4.170645,30.28,-0.68,0.67,7.98
49.331046,4.170391,30.39,-1.51,2.03,9.66
49.331046,4.170391,30.39,-0.28,1.64,10.97
49.330829,4.170138,30.46,-1.33,1.34,6.64
49.330829,4.170138,30.46,-0.36,-0.2,10.87
49.330613,4.169874,30.59,0.65,1.08,9.56
49.330613,4.169874,30.59,-1.83,0.2,9.6
49.3304,4.169612,30.25,-1.24,0.36,10.22
49.3304,4.169612,30.25,-2.01,1.7,8.74
49.330189,4.169358,30.22,-1.66,0.06,8.15
49.330189,4.169358,30.22,-1.25,0.86,7.91
49.329978,4.169104,30.11,0.41,2.1,10.99
49.329978,4.169104,30.11,-1.96,1.07,9.83
49.329765,4.168848,30.14,-0.75,0.72,9.94
49.329765,4.168848,30.14,-1.33,0.83,8.1
49.329551,4.168585,30.07,-0.89,0.54,10.73
49.329551,4.168585,30.07,-0.77,0.9,9.4
49.32934,4.168325,29.73,-1.67,0.69,10.1
49.329136,4.168071,29.16,-0.11,1.95,8.91
49.329136,4.168071,29.16,-0.48,0.4,10.76
49.32893,4.167832,28.8,0.55,1.14,10.47
49.32893,4.167832,28.8,-1.02,0.32,11.21
49.328721,4.167592,28.72,-1.77,1.16,10.01
49.328721,4.167592,28.72,-1.31,0.48,9.5
49.328519,4.167346,28.88,-1.7,0.09,10.86
49.328519,4.167346,28.88,-2.0,1.7,9.02
49.328317,4.167098,29.02,-1.78,1.38,9.97
49.328317,4.167098,29.02,-1.98,1.39,8.19
49.328113,4.16685,29.05,-1.05,1.52,10.1
49.328113,4.16685,29.05,0.83,2.02,11.65
49.327907,4.166599,29.12,-1.7,0.36,11.15
49.327907,4.166599,29.12,-0.87,1.51,10.21
49.327704,4.166345,29.16,-1.13,1.07,8.9
49.327704,4.166345,29.16,-2.14,1.55,8.16
49.327495,4.166102,29.22,-0.52,1.4,10.29
49.327495,4.166102,29.22,-2.1,1.0,10.5
49.327284,4.165854,29.32,0.88,2.0,9.71
49.327284,4.165854,29.32,-1.33,2.06,8.09
49.327079,4.165602,29.36,-1.38,1.41,8.78
49.327079,4.165602,29.36,-1.8,-0.01,10.18
49.326874,4.165344,29.34,-1.15,0.87,9.47
49.326874,4.165344,29.34,-1.47,1.47,8.3
49.326667,4.165094,29.36,0.92,1.34,9.83
49.326667,4.165094,29.36,-2.98,0.31,10.16
49.326464,4.164836,29.46,-1.36,1.26,9.15
49.326464,4.164836,29.46,-2.68,1.23,8.77
49.326259,4.164582,29.52,-1.47,1.24,10.08
49.326259,4.164582,29.52,-2.26,0.89,9.36
49.326048,4.16433,29.63,0.13,2.85,9.07
49.326048,4.16433,29.63,0.68,1.62,9.91
49.32584,4.164083,29.61,-0.83,0.98,10.79
49.32584,4.164083,29.61,-1.74,0.48,8.09
49.325633,4.163831,29.58,-0.93,0.68,10.91
49.325633,4.163831,29.58,-1.03,0.7,12.31
49.325427,4.163579,29.01,-2.05,-0.2,8.26
49.325427,4.163579,29.01,-2.03,0.28,8.01
49.325219,4.163342,28.78,-0.97,1.2,10.09
49.325219,4.163342,28.78,-2.4,-0.11,7.21
49.325015,4.163096,28.66,-2.69,-0.2,7.6
49.325015,4.163096,28.66,-0.75,1.29,9.37
49.324813,4.162845,28.67,-0.66,0.88,9.88
49.324813,4.162845,28.67,-1.15,0.41,9.66
49.32461,4.162608,28.6,-0.73,1.33,13.3
49.324408,4.162369,28.39,-1.64,0.52,11.46
49.324408,4.162369,28.39,-0.88,0.12,9.56
49.324212,4.162122,28.22,0.13,0.02,9.97
49.324212,4.162122,28.22,0.08,0.68,9.37
49.324017,4.16187,28.11,-0.25,1.49,10.65
49.324017,4.16187,28.11,-0.36,1.66,10.19
49.32382,4.161631,28.03,-0.42,1.69,8.15
49.32382,4.161631,28.03,-1.15,1.25,10.94
49.323622,4.161397,27.97,-0.91,0.27,9.4
49.323622,4.161397,27.97,-0.09,1.26,11.21
49.323419,4.161165,28.03,-2.15,1.06,10.31
49.323419,4.161165,28.03,-0.32,1.51,9.69
49.323223,4.160926,28.03,0.36,2.17,9.51
49.323223,4.160926,28.03,-0.14,0.88,12.96
49.323025,4.160685,28.1,-1.43,1.24,10.63
49.323025,4.160685,28.1,-1.25,0.69,9.67
49.32283,4.160448,28.25,-1.13,1.37,10.1
49.32283,4.160448,28.25,-1.18,1.23,11.88
49.322627,4.160207,28.37,-1.82,0.76,9.5
49.322627,4.160207,28.37,-1.95,0.97,6.96
49.322427,4.159968,28.45,0.23,2.26,9.03
49.322427,4.159968,28.45,-1.69,1.79,9.02
49.322227,4.159728,28.56,-1.7,1.2,9.01
49.322227,4.159728,28.56,-0.53,0.85,9.44
49.322025,4.159481,28.7,-2.17,1.29,8.19
49.322025,4.159481,28.7,-1.63,1.39,9.93
49.321823,4.159239,28.74,-0.93,1.08,9.59
49.321823,4.159239,28.74,-0.59,1.51,9.38
49.32162,4.158995,28.82,-0.04,1.87,11.81
49.32162,4.158995,28.82,-0.02,0.91,10.54
49.321415,4.158751,28.85,-0.31,1.35,11.38
49.321415,4.158751,28.85,-3.0,0.81,9.8
49.321213,4.1585,28.96,-0.67,1.41,9.42
49.321213,4.1585,28.96,-0.62,1.34,11.19
49.321011,4.158246,29.09,-0.55,1.55,9.35
49.321011,4.158246,29.09,-0.27,1.03,9.39
49.320806,4.157999,29.23,-0.31,1.12,10.12
49.320806,4.157999,29.23,-1.41,0.95,9.53
49.320602,4.157746,29.27,-0.6,1.44,9.39
49.320396,4.157495,29.27,-0.97,1.12,9.17
49.320396,4.157495,29.27,0.01,1.98,10.74
49.320396,4.157495,29.27,-1.72,1.08,9.28
49.320191,4.157245,29.26,-0.36,0.87,10.77
49.31999,4.156989,29.24,-1.36,1.39,9.2
49.31999,4.156989,29.24,-0.02,1.7,9.9
49.319783,4.156737,29.24,-1.27,0.72,10.36
49.319783,4.156737,29.24,-0.5,1.13,9.73
49.319576,4.156483,29.27,-1.28,1.58,9.67
49.319576,4.156483,29.27,-1.05,0.23,9.31
49.319371,4.156226,29.18,-0.42,0.99,12.12
49.319371,4.156226,29.18,-0.42,1.23,11.14
49.319163,4.155982,29.12,-0.95,0.67,11.51
49.319163,4.155982,29.12,-0.94,1.24,11.08
49.318956,4.155736,29.03,-1.54,0.94,8.51
49.318956,4.155736,29.03,-2.02,1.62,10.69
49.31875,4.155492,29.02,-3.17,1.6,7.51
49.31875,4.155492,29.02,-1.88,1.58,7.92
49.318545,4.155243,29.1,-1.64,1.42,9.94
49.318545,4.155243,29.1,1.18,1.32,12.22
49.318339,4.154992,29.08,-1.27,0.95,11.12
49.318339,4.154992,29.08,-0.84,0.73,6.82
49.318137,4.154741,29.11,-0.26,1.12,10.3
49.318137,4.154741,29.11,-1.43,1.06,10.44
49.317933,4.154494,29.14,-0.14,0.89,11.72
49.317933,4.154494,29.14,-2.26,1.84,11.88
49.317728,4.154248,29.18,-1.86,2.02,8.98
49.317728,4.154248,29.18,-2.31,2.32,8.78
49.317521,4.154,29.25,0.77,2.55,9.62
49.317521,4.154,29.25,0.36,1.62,11.81
49.317317,4.153745,29.31,-0.49,1.08,10.32
49.317317,4.153745,29.31,-1.9,0.59,10.32
49.317113,4.153491,29.31,-1.33,0.92,8.74
49.317113,4.153491,29.31,-0.78,1.43,8.12
49.31691,4.15324,29.34,-1.8,0.91,10.65
49.31691,4.15324,29.34,0.27,1.54,10.63
49.316705,4.152985,29.28,0.37,1.58,10.01
49.316705,4.152985,29.28,0.36,2.01,10.88
49.3165,4.152729,29.28,-0.69,1.37,11.41
49.3165,4.152729,29.28,-1.87,0.69,9.15
49.316291,4.152482,29.28,-1.21,1.28,8.91
49.316291,4.152482,29.28,-1.02,1.14,10.25
49.316081,4.152236,29.25,-0.33,1.91,10.04
49.315878,4.151985,29.26,-0.81,1.31,11.67
49.315878,4.151985,29.26,-0.36,1.2,9.88
49.315673,4.151731,29.36,-0.51,2.01,10.42
49.315673,4.151731,29.36,-0.52,1.67,10.36
49.315468,4.151477,29.44,-2.87,0.04,9.67
49.315468,4.151477,29.44,-1.27,1.72,11.47
49.31526,4.151229,29.55,-1.55,1.79,9.39
49.31526,4.151229,29.55,-0.43,2.02,9.33
49.315054,4.150974,29.47,-0.79,1.43,12.59
49.315054,4.150974,29.47,-3.36,0.59,9.18
49.314846,4.150722,30.0,-0.43,1.51,7.15
49.314846,4.150722,30.0,-1.02,1.59,11.14
49.314637,4.150461,29.82,-1.68,1.92,9.17
49.314637,4.150461,29.82,-1.05,1.27,9.51
49.314425,4.150203,29.86,-0.6,1.02,9.01
49.314425,4.150203,29.86,-0.52,2.43,11.0
49.314213,4.149948,29.94,-2.01,0.61,11.45
49.314213,4.149948,29.94,-2.05,1.44,7.13
49.314002,4.14969,30.03,-1.5,1.2,9.07
49.314002,4.14969,30.03,-2.48,1.56,5.85
49.31379,4.149437,30.05,-0.7,1.07,10.07
49.31379,4.149437,30.05,-1.39,0.91,8.19
49.313582,4.149179,30.0,0.07,1.51,9.81
49.313582,4.149179,30.0,-0.97,0.99,11.06
49.313375,4.14892,29.7,-1.4,1.69,7.81
49.313375,4.14892,29.7,-1.29,0.08,10.72
49.313169,4.148659,29.41,-2.15,0.55,10.78
49.313169,4.148659,29.41,0.11,1.13,11.11
49.312965,4.148409,29.31,-1.61,1.03,8.06
49.312965,4.148409,29.31,-0.51,0.77,10.12
49.312758,4.148159,29.19,-1.9,0.33,8.72
49.312758,4.148159,29.19,-0.61,1.71,11.07
49.312551,4.147909,29.22,-1.18,2.25,9.92
49.312551,4.147909,29.22,-0.8,2.04,8.97
49.312339,4.147667,29.35,-0.35,1.48,9.79
49.312339,4.147667,29.35,-0.29,1.97,11.37
49.31213,4.147419,29.46,-0.95,2.41,9.52
49.31213,4.147419,29.46,0.42,1.25,10.2
49.311922,4.14717,29.57,-1.54,1.13,10.74
49.311922,4.14717,29.57,-1.63,1.43,11.35
49.311713,4.146915,29.7,0.52,2.15,10.83
49.311713,4.146915,29.7,0.52,1.29,10.34
49.311503,4.146662,29.78,-0.79,0.94,8.57
49.311503,4.146662,29.78,-1.24,-0.04,9.39
49.311295,4.146411,29.22,0.66,0.47,11.09
49.311092,4.146151,29.24,-2.06,0.77,10.12
49.311092,4.146151,29.24,-1.97,0.98,6.58
49.310887,4.145899,29.27,-3.35,0.84,9.69
49.310887,4.145899,29.27,-1.2,1.42,9.67
49.310682,4.145646,29.34,-1.46,0.3,10.61
49.310682,4.145646,29.34,-2.03,1.2,9.53
49.310474,4.145397,29.38,-1.37,2.61,8.75
49.310474,4.145397,29.38,-0.9,1.03,8.8
49.310265,4.145156,29.42,-0.57,1.59,10.08
49.310265,4.145156,29.42,-2.08,1.58,9.75
49.310058,4.144905,29.48,-1.42,1.83,7.55
49.310058,4.144905,29.48,-0.45,1.89,10.27
49.309848,4.144657,29.53,-2.03,-0.19,10.33
49.309848,4.144657,29.53,-1.2,1.76,9.4
49.309642,4.1444,29.52,-1.23,1.11,9.14
49.309642,4.1444,29.52,-0.89,1.73,9.53
49.309436,4.144141,29.42,-0.87,1.43,10.57
49.309436,4.144141,29.42,-1.27,2.1,10.08
49.309229,4.143883,29.37,-1.64,1.1,9.19
49.309229,4.143883,29.37,-0.96,1.24,9.59
49.309021,4.14363,29.36,-1.08,0.0,8.14
49.309021,4.14363,29.36,-0.53,1.36,10.94
49.308812,4.143386,29.29,-1.17,1.37,9.29
49.308812,4.143386,29.29,-0.55,1.67,11.62
49.308605,4.143139,29.21,-2.64,0.35,9.36
49.308605,4.143139,29.21,-0.07,1.66,10.41
49.308401,4.142887,29.11,-1.39,2.26,8.56
49.308401,4.142887,29.11,-1.5,1.41,9.3
49.308198,4.142631,29.04,-2.01,0.73,8.14
49.308198,4.142631,29.04,-0.29,0.74,9.6
49.30799,4.142389,29.02,-1.06,0.57,9.12
49.30799,4.142389,29.02,-1.73,0.66,11.13
49.307786,4.142144,29.01,-0.99,0.6,10.44
49.307786,4.142144,29.01,-0.91,1.31,8.25
49.307584,4.141896,29.09,-2.04,1.95,8.71
49.307584,4.141896,29.09,-1.34,1.51,10.13
49.307383,4.141643,29.05,-2.31,0.55,9.92
49.307383,4.141643,29.05,-2.89,0.76,10.29
49.30718,4.141386,29.14,-1.61,0.47,10.22
49.30718,4.141386,29.14,-0.02,1.34,8.48
49.306974,4.141137,29.2,-0.67,1.55,10.99
49.306974,4.141137,29.2,0.56,1.96,11.08
49.306769,4.140883,29.21,-2.38,0.66,10.18
49.306565,4.140625,29.28,-0.86,1.94,11.25
49.306565,4.140625,29.28,-0.49,2.64,9.59
49.306357,4.140383,29.32,-0.57,1.21,10.09
49.306357,4.140383,29.32,-1.06,0.5,9.0
49.30615,4.140136,29.33,-0.93,1.77,9.85
49.30615,4.140136,29.33,-1.12,1.04,8.66
49.305941,4.139883,29.46,-0.72,1.59,9.63
49.305941,4.139883,29.46,-1.48,0.82,9.39
49.305737,4.139634,29.48,-1.39,1.32,8.77
49.305737,4.139634,29.48,-0.86,0.63,9.05
49.305526,4.139386,29.58,0.4,0.66,10.17
49.305526,4.139386,29.58,0.26,2.06,10.63
49.305317,4.139136,29.66,-0.54,1.63,9.92
49.305317,4.139136,29.66,-0.96,0.3,10.44
49.305108,4.138874,29.78,-1.32,0.89,11.83
49.305108,4.138874,29.78,-1.42,2.15,9.59
49.304899,4.138617,29.74,-0.36,1.04,10.75
49.304899,4.138617,29.74,-1.09,0.98,9.74
49.30469,4.138357,29.77,-2.16,1.72,8.47
49.30469,4.138357,29.77,-2.9,0.38,9.83
49.304484,4.1381,29.75,-1.46,0.79,8.44
49.304484,4.1381,29.75,-0.35,0.65,11.24
49.304275,4.137852,29.72,-0.74,1.41,9.62
49.304275,4.137852,29.72,-1.73,2.2,9.1
49.304062,4.137601,29.76,-0.02,1.05,11.29
49.304062,4.137601,29.76,-1.09,2.0,9.49
49.30385,4.13735,29.75,-0.82,2.07,9.96
49.30385,4.13735,29.75,-2.12,0.11,9.59
49.303642,4.137092,29.71,-1.35,0.98,9.61
49.303642,4.137092,29.71,-1.06,1.74,8.32
49.303437,4.136836,29.6,0.15,1.57,10.26
49.303437,4.136836,29.6,-1.12,0.49,9.27
49.303231,4.136586,29.66,-1.46,1.05,9.28
49.303231,4.136586,29.66,-2.75,1.02,9.79
49.303016,4.136349,29.66,-1.93,1.07,8.41
49.303016,4.136349,29.66,-1.41,2.14,8.78
49.302801,4.136108,29.58,-2.87,0.85,8.87
49.302584,4.135875,29.5,-2.49,1.56,9.92
49.302584,4.135875,29.5,-0.49,1.18,8.87
49.302367,4.13564,29.44,-2.2,0.3,9.37
49.302367,4.13564,29.44,-0.55,1.95,9.93
49.302143,4.135415,29.52,-1.03,1.96,9.88
49.302143,4.135415,29.52,-1.64,1.02,11.61
49.301914,4.1352,29.6,-1.05,1.16,9.03
49.301914,4.1352,29.6,-1.63,0.82,9.43
49.301683,4.134995,29.53,-0.66,2.04,10.28
49.301683,4.134995,29.53,-2.86,1.42,9.69
49.30145,4.134793,29.59,-2.42,1.2,9.7
49.30145,4.134793,29.59,-0.76,1.24,10.55
49.301218,4.134592,29.69,-2.49,0.88,10.41
49.301218,4.134592,29.69,-2.64,1.17,8.97
49.300982,4.134399,29.66,-1.29,1.07,10.3
49.300982,4.134399,29.66,-1.47,1.71,9.39
49.300745,4.134207,29.65,-1.78,1.7,9.86
49.300745,4.134207,29.65,-0.7,1.85,10.81
49.300505,4.134022,29.67,-1.8,1.02,9.21
49.300505,4.134022,29.67,-1.19,1.18,9.62
49.300271,4.133829,29.7,-0.53,0.98,10.73
49.300271,4.133829,29.7,-1.38,1.13,10.22
49.300032,4.133648,29.71,-0.14,0.55,9.27
49.300032,4.133648,29.71,-2.32,0.91,10.6
49.29979,4.133484,29.75,-0.45,1.21,10.18
49.29979,4.133484,29.75,-0.89,1.14,8.92
49.299545,4.133331,29.75,-1.75,0.96,8.99
49.299545,4.133331,29.75,-1.69,0.82,8.45
49.299294,4.133175,29.72,-0.44,0.71,11.08
49.299294,4.133175,29.72,-0.93,0.7,9.02
49.29905,4.133007,29.76,-1.42,2.89,6.93
49.29905,4.133007,29.76,-1.41,0.98,8.63
49.298805,4.132837,29.81,-0.87,1.89,8.45
49.298805,4.132837,29.81,0.33,1.84,12.57
49.298559,4.132679,29.87,-1.73,0.29,8.8
49.298559,4.132679,29.87,-1.71,1.33,9.39
49.298314,4.132511,29.91,-1.92,0.77,11.3
49.298314,4.132511,29.91,-0.23,0.71,11.4
49.29807,4.13236,29.9,-0.17,1.32,10.56
49.29807,4.13236,29.9,-1.53,1.59,9.95
49.297824,4.132193,29.93,-1.55,2.02,7.84
49.29758,4.132016,29.96,-1.41,1.16,11.05
49.29758,4.132016,29.96,-2.34,1.71,8.81
49.297335,4.131847,29.92,-0.5,0.52,10.37
49.297335,4.131847,29.92,-0.17,1.98,11.88
49.297092,4.131679,29.43,-0.65,1.86,8.12
49.297092,4.131679,29.43,-0.74,1.05,9.33
49.296853,4.131507,29.21,-0.4,0.28,9.54
49.296853,4.131507,29.21,-0.93,-0.07,11.69
49.296615,4.131336,28.99,-0.19,1.47,11.1
49.296615,4.131336,28.99,-0.54,1.06,10.49
49.296382,4.13116,28.92,-1.02,1.34,10.88
49.296382,4.13116,28.92,-1.21,1.88,9.48
49.296142,4.131005,28.86,-0.78,1.42,10.64
49.296142,4.131005,28.86,-0.06,0.67,10.08
49.295907,4.130839,28.71,-0.91,1.01,8.52
49.295907,4.130839,28.71,-0.85,0.99,9.87
49.295673,4.130682,28.49,-1.2,0.92,10.77
49.295673,4.130682,28.49,-1.26,0.88,10.33
49.295436,4.130522,28.75,-1.52,0.5,9.42
49.295436,4.130522,28.75,-1.05,0.97,10.32
49.295193,4.130373,28.72,-1.83,0.04,7.49
49.295193,4.130373,28.72,-0.21,0.9,9.92
49.29496,4.13021,28.93,-1.96,1.31,8.36
49.29496,4.13021,28.93,-0.03,1.92,9.09
49.294719,4.130068,29.05,-0.64,1.18,8.97
49.294719,4.130068,29.05,-1.46,0.41,10.81
49.294475,4.129916,29.24,-1.45,1.43,9.77
49.294475,4.129916,29.24,-1.15,1.46,8.94
49.294234,4.129746,29.31,-0.91,1.42,9.48
49.294234,4.129746,29.31,-0.98,0.46,10.11
49.293994,4.12957,29.32,-1.84,1.04,9.99
49.293994,4.12957,29.32,-1.09,1.91,10.17
49.293754,4.129399,29.3,-1.1,0.39,8.1
49.293754,4.129399,29.3,-0.12,1.53,10.44
49.29351,4.129243,29.28,-0.84,0.46,10.71
49.29351,4.129243,29.28,-0.76,1.57,11.71
49.293266,4.129079,29.35,0.48,1.44,9.33
49.293266,4.129079,29.35,-0.78,2.06,8.38
49.293024,4.128909,29.35,-0.39,0.42,10.18
49.292785,4.128731,29.44,-0.05,1.89,11.18
49.292785,4.128731,29.44,-0.34,1.59,9.02
49.292548,4.128544,29.47,-0.01,1.48,10.82
49.292548,4.128544,29.47,-1.17,1.16,12.55
49.292309,4.128346,29.47,-1.29,1.14,9.78
49.292309,4.128346,29.47,-1.24,1.89,8.03
49.292076,4.128152,29.48,-0.91,1.57,9.03
49.292076,4.128152,29.48,-1.84,1.13,10.73
49.291843,4.127954,29.36,-0.57,1.35,9.76
49.291843,4.127954,29.36,-0.19,1.95,10.39
49.291608,4.127748,29.5,-0.11,2.08,10.49
49.291608,4.127748,29.5,-1.66,0.46,9.46
49.291373,4.127546,29.43,-1.02,1.5,9.09
49.291373,4.127546,29.43,0.49,1.83,8.68
49.291146,4.127335,29.47,-0.43,1.04,13.28
49.291146,4.127335,29.47,-1.45,1.36,10.08
49.290918,4.127117,29.6,-0.5,2.81,9.5
49.290918,4.127117,29.6,0.16,0.22,10.08
49.290688,4.126908,29.7,-1.13,1.86,10.35
49.290688,4.126908,29.7,-0.39,1.79,10.75
49.290467,4.126676,29.81,-0.71,0.23,8.84
49.290467,4.126676,29.81,-0.07,2.25,12.03
49.290245,4.126448,29.68,-0.39,1.49,9.84
49.290245,4.126448,29.68,-0.61,1.32,10.88
49.290023,4.126222,29.82,-0.48,1.62,7.45
49.290023,4.126222,29.82,0.66,1.34,11.17
49.289803,4.126002,29.79,-0.55,1.54,9.54
49.289803,4.126002,29.79,-0.29,1.75,8.08
49.289589,4.125772,29.66,-0.42,0.44,10.49
49.289589,4.125772,29.66,-0.74,1.48,9.52
49.289378,4.125525,29.52,0.92,1.98,10.14
49.289378,4.125525,29.52,-0.54,1.38,9.93
49.289167,4.125274,29.49,0.24,1.9,8.65
49.289167,4.125274,29.49,-0.4,1.51,10.09
49.288957,4.125027,29.59,-0.09,0.66,8.57
49.288957,4.125027,29.59,-1.03,0.86,9.5
49.288746,4.124778,29.61,-0.88,1.94,9.3
49.288746,4.124778,29.61,-1.62,1.13,8.82
49.288538,4.124529,29.47,-1.47,0.13,10.05
49.288538,4.124529,29.47,-1.32,1.75,7.8
49.28833,4.124274,29.32,-0.45,1.65,7.82
49.288125,4.12402,29.32,-0.46,0.66,9.31
49.288125,4.12402,29.32,-0.06,0.66,9.74
49.287924,4.123753,29.16,-0.87,1.55,10.3
49.287924,4.123753,29.16,-0.8,1.53,9.42
49.287723,4.123487,29.48,-0.37,1.95,10.61
49.287723,4.123487,29.48,-0.38,1.62,10.93
49.287526,4.123223,29.13,-0.03,1.29,11.26
49.287526,4.123223,29.13,-0.53,0.63,9.8
