Location-lat,Location-long,Speed,Accelerometer-X,Accelerometer-Y,Accelerometer-Z
0,0,0,-1.12,1.04,10.07
0,0,0,3.06,0.46,10.17
0,0,0,3.7,1.39,10.3
0,0,0,0.93,1.6,6.02
0,0,0,-0.45,1.93,9.72
0,0,0,-0.54,1.9,9.8
0,0,0,-0.59,1.81,9.67
0,0,0,-0.38,1.81,9.69
0,0,0,-0.55,1.76,9.52
0,0,0,-0.39,1.94,9.87
0,0,0,-0.52,1.86,9.68
0,0,0,-0.57,1.96,9.78
0,0,0,-0.5,1.84,9.64
0,0,0,-0.6,1.81,9.63
0,0,0,-0.47,1.89,9.66
0,0,0,-0.34,1.91,9.74
0,0,0,-0.52,1.9,9.74
0,0,0,-0.58,1.82,9.67
0,0,0,-0.53,1.85,9.68
0,0,0,-0.52,1.79,9.72
0,0,0,-0.53,1.81,9.57
0,0,0,-0.51,1.87,9.69
0,0,0,-0.49,1.81,9.63
0,0,0,-0.56,1.82,9.65
0,0,0,-0.52,1.82,9.69
0,0,0,-0.53,1.84,9.68
0,0,0,-0.54,1.82,9.69
0,0,0,-0.57,1.79,9.69
0,0,0,-0.53,1.83,9.65
0,0,0,-0.56,1.85,9.68
0,0,0,-0.57,1.85,9.66
0,0,0,-0.56,1.82,9.68
0,0,0,-0.57,1.85,9.72
0,0,0,-0.53,1.82,9.66
0,0,0,-0.55,1.84,9.69
0,0,0,-0.55,1.82,9.65
0,0,0,-0.43,1.82,9.66
0,0,0,-0.68,1.81,9.7
0,0,0,-0.68,1.79,9.7
0,0,0,-0.49,1.83,9.65
0,0,0,-0.5,1.81,9.66
0,0,0,-0.6,1.83,9.68
0,0,0,-0.51,1.85,9.68
0,0,0,-0.53,1.82,9.63
0,0,0,-0.55,1.81,9.67
0,0,0,-0.57,1.81,9.72
0,0,0,-0.55,1.83,9.68
0,0,0,-0.54,1.8,9.65
0,0,0,-0.58,1.91,9.72
0,0,0,-0.57,1.81,9.68
0,0,0,-0.51,1.38,9.77
0,0,0,-0.45,1.37,9.74
0,0,0,-0.57,1.46,9.65
0,0,0,-0.6,1.5,9.74
0,0,0,-0.67,1.58,9.81
0,0,0,-0.72,1.73,9.55
0,0,0,-0.51,1.81,9.79
0,0,0,-0.68,1.88,9.62
0,0,0,-0.62,2.19,9.54
0,0,0,-0.58,2.41,9.48
0,0,0,-0.67,2.48,9.71
0,0,0,-0.71,2.26,9.54
0,0,0,-0.51,1.82,9.78
0,0,0,-0.64,1.7,9.68
0,0,0,-0.62,1.75,9.68
0,0,0,-0.5,2.45,9.44
0,0,0,-0.25,2.2,9.62
0,0,0,-0.38,2.03,9.5
0,0,0,-0.45,1.92,9.72
0,0,0,-0.28,1.75,9.7
0,0,0,-0.07,1.85,9.93
0,0,0,-0.57,1.43,9.67
0,0,0,-0.45,1.49,9.55
0,0,0,-0.72,1.52,9.75
0,0,0,-0.56,1.58,9.6
0,0,0,-0.57,2.15,9.77
0,0,0,-0.32,2,9.65
0,0,0,-0.56,1.87,9.72
0,0,0,-0.37,1.9,10.04
0,0,0,-0.5,1.24,9.69
0,0,0,-0.35,1.37,9.85
0,0,0,-0.55,1.7,9.53
0,0,0,-0.62,2.18,9.57
0,0,0,-0.59,2.28,9.57
0,0,0,-0.58,2.15,9.56
0,0,0,-0.5,1.96,9.67
0,0,0,-0.48,1.78,9.69
0,0,0,-0.55,1.84,9.69
0,0,0,-0.44,2.01,9.69
0,0,0,-0.23,2.25,9.67
0,0,0,-0.23,2.61,9.52
0,0,0,-0.13,2.98,9.47
0,0,0,0.13,2.68,9.57
0,0,0,-0.06,2.49,9.34
0,0,0,-0.28,2.6,9.15
0,0,0,0.02,2.61,10.08
0,0,0,-0.74,2.35,9.54
0,0,0,-0.24,2.23,9.72
0,0,0,-0.23,1.85,9.5
0,0,0,-0.49,1.64,9.5
0,0,0,-0.32,1.81,9.98
0,0,0,-0.64,1.67,10.36
0,0,0,-0.51,1.72,9.57
0,0,0,-0.4,1.81,9.73
0,0,0,-0.43,1.63,9.16
0,0,0,-0.04,1.85,9.86
0,0,0,-0.42,2,9.78
0,0,0,-0.54,1.62,10.37
0,0,0,-0.19,1.63,9.58
0,0,0,-0.37,1.86,9.44
0,0,0,-0.53,1.64,9.52
0,0,0,-0.63,1.35,10.06
0,0,0,-0.52,1.25,9.62
0,0,0,-0.79,1.43,9.93
0,0,0,-0.69,1.29,9.39
0,0,0,-0.58,1.38,10.28
0,0,0,-0.23,1.31,9.62
0,0,0,-0.35,1.5,9.9
0,0,0,-0.57,1.64,9.8
0,0,0,-0.33,1.6,9.62
0,0,0,-0.36,1.67,9.75
0,0,0,0.38,1.76,9.78
0,0,0,0,1.48,9.39
0,0,0,-0.57,1.42,9.68
0,0,0,-0.35,1.14,9.44
0,0,0,-0.17,1.46,9.74
0,0,0,0.5,1.69,9.52
0,0,0,0.33,1.84,9.64
0,0,0,0.23,1.77,9.53
0,0,0,-0.77,1.9,9.64
0,0,0,-0.67,1.81,9.4
0,0,0,-0.93,1.63,9.76
0,0,0,-0.71,1.38,10.07
0,0,0,-0.32,1.96,9.99
0,0,0,0,1.94,9.55
0,0,0,-0.49,1.98,9.48
0,0,0,-0.89,1.89,9.76
0,0,0,-0.73,1.98,9.84
0,0,0,-0.33,2.12,9.66
0,0,0,-0.14,1.99,9.53
0,0,0,-0.11,2.06,9.51
0,0,0,-0.53,1.93,9.58
0,0,0,-0.77,2.01,9.74
0,0,0,-0.7,1.95,9.72
0,0,0,-0.4,2.06,9.73
0,0,0,-0.23,2.03,9.6
0,0,0,-0.38,2.1,9.63
0,0,0,-0.05,2.07,9.47
0,0,0,-0.26,1.92,9.47
0,0,0,-0.58,1.92,9.61
0,0,0,-0.72,1.93,9.73
0,0,0,-0.72,2,9.78
0,0,0,-0.45,2.04,9.69
0,0,0,-0.16,2.03,9.62
0,0,0,-0.09,2.01,9.53
0,0,0,-0.44,1.94,9.61
0,0,0,-0.72,1.88,9.61
0,0,0,-0.73,1.91,9.7
0,0,0,-0.57,1.96,9.71
0,0,0,-0.66,2.04,9.73
0,0,0,-0.07,1.96,9.48
0,0,0,-0.41,1.98,9.49
0,0,0,-0.19,2,9.51
0,0,0,-0.53,1.96,9.54
0,0,0,-0.77,1.95,9.65
0,0,0,-0.71,1.93,9.79
0,0,0,-0.57,2.03,9.72
0,0,0,-0.3,2.1,9.62
0,0,0,-0.05,2.03,9.54
0,0,0,-0.3,1.98,9.53
0,0,0,-0.59,1.96,9.56
0,0,0,-0.71,1.94,9.68
0,0,0,-0.7,1.92,9.89
0,0,0,-0.45,2.04,9.69
0,0,0,-0.2,2.09,9.61
0,0,0,-0.03,2.05,9.44
0,0,0,-0.34,1.97,9.53
0,0,0,-0.29,2.22,9.28
0,0,0,-0.97,2.08,9.7
0,0,0,-0.2,2.25,9.95
0,0,0,-0.66,2.19,9.9
0,0,0,-0.28,2.18,9.62
0,0,0,-0.08,2.25,9.46
0,0,0,-0.29,2.04,9.51
0,0,0,-0.62,2.03,9.28
0,0,0,-0.85,1.52,9.39
0,0,0,-1.13,1.87,9.62
0,0,0,-1.08,1.62,9.47
0,0,0,-0.63,1.32,9.74
0,0,0,-0.41,0.88,9.86
0,0,0,-0.57,1.13,9.59
0,0,0,-0.26,1.1,9.69
0,0,0,-0.99,0.61,9.74
0,0,0,-0.79,0.92,10.07
0,0,0,-0.51,1.27,10.04
0,0,0,0.69,1.38,9
0,0,0,0.28,1.88,9.28
0,0,0,-0.88,2.52,9.32
0,0,0,-1.74,2.4,10.12
0,0,0,-0.52,2.9,10.04
0,0,0,-1.13,2.92,9.81
0,0,0,-1.21,2.78,8.25
0,0,0,-1.93,2.61,9.37
0,0,0,-1.43,2.38,9.82
0,0,0,-2.41,2.37,9.37
0,0,0,-1.56,2.37,9.42
0,0,0,-1.19,2.28,9.51
0,0,0,-2.04,2.03,8.83
0,0,0,-2.98,1.55,9.43
0,0,0,-3.15,1.64,9.58
0,0,0,-3.32,1.29,9.36
0,0,0,-2.71,1.57,9.57
0,0,0,-2.31,2.42,9.46
0,0,0,-1.27,2.27,9.07
0,0,0,-0.87,2.13,9.96
0,0,0,-0.27,2.5,9.65
0,0,0,-0.45,2.25,10.11
0,0,0,0.34,2.22,9.78
0,0,0,-0.46,2.58,9.63
0,0,0,-0.94,2.44,9.53
0,0,0,-0.85,2,9.5
0,0,0,-0.64,1.72,9.89
0,0,0,-1.83,1.65,9.52
0,0,0,-0.62,2,10.28
0,0,0,-0.59,1.48,9.9
0,0,0,-1.21,1.8,10.82
0,0,0,-1.45,1,10.39
0,0,0,-0.98,1.06,9.26
0,0,0,-1.21,1.16,9.91
0,0,0,-0.95,1.72,11.06
0,0,0,-0.57,0.82,9.81
0,0,0,-0.2,0.98,11.01
0,0,0,-0.61,1.6,10.48
0,0,0,-1.04,1.29,10.12
0,0,0,-0.97,0.68,9.38
0,0,0,-0.82,0.89,8.95
0,0,0,-1.02,1.47,10.16
0,0,0,-0.71,0.64,9.73
0,0,0,-1.28,0.52,9.85
0,0,0,-0.95,-0.02,10.44
0,0,0,-1.24,-0.06,10.29
0,0,0,-0.51,1.17,9.68
0,0,0,-1.01,1.58,10.33
0,0,0,-0.81,1.81,7.15
0,0,0,-0.42,2.53,9.57
0,0,0,-0.44,2.41,9.51
0,0,0,-0.22,2.44,9.68
49.261064,4.020999,11.54,-0.3,2.58,9.21
49.261064,4.020999,11.54,-0.47,2.38,8.37
49.261064,4.020999,11.54,-0.93,1.74,10.42
49.261064,4.020999,11.54,-0.3,1.92,9.84
49.261064,4.020999,11.54,-0.45,2.17,11.36
49.261064,4.020999,11.54,-0.41,1.48,10.4
49.261064,4.020999,11.54,0.06,1.74,9.57
49.261064,4.020999,11.54,-0.59,2.38,10.75
49.261064,4.020999,11.54,0.19,1.33,10.03
49.261064,4.020999,11.54,-0.89,1.5,10.85
49.261064,4.020999,11.54,-1.43,1.1,9.3
49.261064,4.020999,11.54,-1.04,0.94,9.62
49.261064,4.020999,11.54,-0.65,1.12,10.59
49.261064,4.020999,11.54,-0.6,1.5,8.82
49.261064,4.020999,11.54,-0.35,1.01,9.97
49.261064,4.020999,11.54,-0.36,0.98,10.22
49.261064,4.020999,11.54,-0.8,0.77,9.47
49.261064,4.020999,11.54,-0.63,0.93,10.17
49.261064,4.020999,11.54,-1.21,0.74,9.81
49.261064,4.020999,11.54,-0.04,0.89,10.26
49.261064,4.020999,11.54,-0.76,0.56,10.57
49.260365,4.020103,6.92,-0.83,0.94,10.98
49.260365,4.020103,6.92,-0.87,0.36,9.75
49.260396,4.019893,0,-0.79,0.68,9.23
49.260396,4.019893,0,-0.91,0.91,10.47
49.260373,4.019821,0,-0.22,0.41,10.5
49.260373,4.019821,0,-0.94,0.29,10.01
49.260373,4.019821,0,-0.45,0.04,9.35
49.260354,4.019733,0,-1.13,0.2,10.71
49.260354,4.019733,0,-0.26,0.17,9.37
49.26033,4.019709,0,-1.13,0.24,9.84
49.26033,4.019709,0,-0.63,-0.07,10.07
49.260314,4.019685,2.23,-0.65,0.04,9.73
49.260314,4.019685,2.23,-0.78,0.47,9.31
49.260314,4.019685,0,-0.66,0.76,9.5
49.260314,4.019685,0,-0.62,1.48,10.09
49.260314,4.019685,0,-0.69,1.92,9.45
49.260314,4.019685,0,-0.7,0.9,9.79
49.260314,4.019685,0,-0.15,0.89,9.48
49.260314,4.019685,0,-0.33,0.92,9.42
49.260314,4.019685,0,-0.75,1.46,9.75
49.260314,4.019685,0,-0.61,1.51,9.82
49.260314,4.019685,0,-0.75,1.27,9.69
49.260314,4.019685,0,-0.58,1.42,9.74
49.260314,4.019685,0,-0.62,1.32,10.18
49.260314,4.019685,0,-0.62,1.47,9.55
49.260314,4.019685,0,-0.65,1.95,9.7
49.260314,4.019685,0,-0.58,2.7,8.86
49.260314,4.019685,0,-0.7,3.17,9.36
49.260314,4.019685,0,-1.61,2.84,9.41
49.260335,4.019667,1.83,-1.56,2.9,9.2
49.260335,4.019667,1.83,-2.09,3.22,9.5
49.260328,4.019656,3.61,-2.75,2.67,9.37
49.260328,4.019656,3.61,-3.34,2.23,8.47
49.260305,4.019644,5.11,-3.19,2.98,9.22
49.260267,4.019643,5.71,-1.51,2.99,10.08
49.260267,4.019643,5.71,-1.33,3.15,9.31
49.260227,4.01968,7.13,-0.79,2.56,9.86
49.260227,4.01968,7.13,-1.33,1.78,9.18
49.260177,4.019742,7.87,-1.35,1.24,9.21
49.260177,4.019742,7.87,-0.31,1.09,9.44
49.260117,4.019804,8,-0.51,1.44,10.06
49.260117,4.019804,8,-0.75,1.05,9.78
49.260059,4.019864,7.52,-0.35,0.93,10.5
49.260059,4.019864,7.52,-1,0.24,8.94
49.259996,4.019919,6.89,-0.54,0.51,10.3
49.259996,4.019919,6.89,-0.88,0.81,9.06
49.259937,4.019972,6.12,-0.77,0.69,9.71
49.259937,4.019972,6.12,-0.26,0.64,10.11
49.259886,4.020018,5.61,-1.15,1.08,10.49
49.259886,4.020018,5.61,-1.44,0.55,9.71
49.25984,4.02006,5.09,-0.97,0.72,9.93
49.25984,4.02006,5.09,-1.14,0.68,9.42
49.259801,4.020095,4.46,-1.14,0.19,9.05
49.259801,4.020095,4.46,-1.16,0.15,9.95
49.259767,4.020127,3.28,-0.96,0.21,9.92
49.259767,4.020127,3.28,-0.73,0.44,9.35
49.259742,4.020146,2.57,-0.91,0.39,9.91
49.259742,4.020146,2.57,-0.82,0.44,9.97
49.259719,4.020169,1.6,-1.34,0.47,9.61
49.259719,4.020169,1.6,-1.06,0.35,9.84
49.259701,4.020181,1.4,-1.11,0.82,10.07
49.259701,4.020181,1.4,-0.89,1,9.85
49.259686,4.02019,0.91,-0.78,0.88,9.8
49.259686,4.02019,0.91,-0.92,0.69,10.08
49.259686,4.02019,0,-0.95,0.68,10.11
49.259686,4.02019,0,-0.98,1.38,9.75
49.259686,4.02019,0,-1,1.09,9.9
49.259686,4.02019,0,-0.79,1.14,9.89
49.259686,4.02019,0,-1.02,1.17,9.68
49.259686,4.02019,0,-0.9,1.15,9.98
49.259686,4.02019,0,-0.88,1.16,9.89
49.259686,4.02019,0,-1.15,1.28,9.78
49.259686,4.02019,0,-1.13,1.25,9.79
49.259686,4.02019,0,-0.64,1.19,9.66
49.259686,4.02019,0,-0.79,1.17,9.62
49.259686,4.02019,0,-1.12,1.29,9.75
49.259686,4.02019,0,-1.11,1.13,9.67
49.259686,4.02019,0,-1.04,1.27,9.82
49.259686,4.02019,0,-0.71,1.2,9.67
49.259686,4.02019,0,-0.81,1.25,9.82
49.259686,4.02019,0,-1.15,1.26,9.72
49.259686,4.02019,0,-1.02,1.2,9.72
49.259686,4.02019,0,-1.01,1.2,9.84
49.259686,4.02019,0,-0.73,1.35,9.89
49.259686,4.02019,0,-0.65,1.13,9.72
49.259686,4.02019,0,-0.96,1.25,9.8
49.259686,4.02019,0,-1.11,1.33,9.77
49.259686,4.02019,0,-0.77,1.24,9.55
49.259686,4.02019,0,-1,1.22,9.5
49.259686,4.02019,0,-0.85,1.3,9.75
49.259686,4.02019,0,-0.85,1.65,9.79
49.259686,4.02019,0,-0.86,1.4,9.85
49.259686,4.02019,0,-0.9,1.57,9.63
49.259686,4.02019,0,-1.01,1.73,9.62
49.259686,4.02019,0,-1.07,1.03,9.82
49.259686,4.02019,0,-1.02,1.16,9.77
49.259686,4.02019,0,-1.03,1.22,9.78
49.259686,4.02019,0,-1,1.16,9.64
49.259686,4.02019,0,-0.96,1.22,9.66
49.259686,4.02019,0,-1.02,1.29,9.69
49.259686,4.02019,0,-1.02,1.23,9.63
49.259686,4.02019,0,-0.99,1.16,9.73
49.259686,4.02019,0,-1,1.22,9.72
49.259686,4.02019,0,-0.95,1.81,9.71
49.259686,4.02019,0,-0.99,2.07,9.66
49.259686,4.02019,0,-0.97,2.44,9.95
49.259686,4.02019,0,-0.61,2.44,9.62
49.259686,4.02019,0,-0.69,2.38,9.8
49.259686,4.02019,0,-0.82,2.25,9.24
49.259643,4.020221,0.86,-0.85,2.51,9.91
49.259643,4.020221,0.86,-0.74,2.22,9.34
49.259622,4.020241,3.35,-0.74,2.25,9.35
49.259592,4.020263,3.38,-0.96,2.38,9.31
49.259592,4.020263,3.38,-1.14,1.62,9.36
49.259558,4.020286,3.43,-1.26,0.92,9.24
49.259558,4.020286,3.43,-1.36,1.29,9.7
49.259526,4.020314,3.48,-1.09,0.95,10.23
49.259526,4.020314,3.48,-0.79,0.39,10.45
49.259496,4.020339,3.53,-1.22,1.03,10.43
49.259496,4.020339,3.53,-0.98,1.25,10.06
49.259471,4.020366,3.56,-1.37,1.18,9.96
49.259471,4.020366,3.56,-1.25,1.8,9.5
49.259444,4.020397,3.58,-0.75,1.97,8.25
49.259444,4.020397,3.58,-1.36,1.84,9.53
49.259415,4.020424,3.61,-1.12,1.87,9.96
49.259415,4.020424,3.61,-1.89,1.52,9.72
49.259379,4.020453,3.69,-1.51,2.24,8.9
49.259379,4.020453,3.69,-0.13,1.92,10.18
49.259339,4.02049,3.79,-1.41,0.79,10.46
49.259339,4.02049,3.79,-0.31,2,10.45
49.259299,4.020524,3.91,-0.13,1.36,9.39
49.259299,4.020524,3.91,-0.41,1.08,9.86
49.259257,4.020563,4.05,-0.52,1.21,9.62
49.259257,4.020563,4.05,-0.7,0.94,10.55
49.259211,4.020601,4.19,-0.99,1.39,9.03
49.259211,4.020601,4.19,-0.68,1.62,9.33
49.259165,4.020638,5.4,-0.52,1.41,9.69
49.259165,4.020638,5.4,-0.57,1.44,9.39
49.259121,4.020677,5.34,-0.65,1.49,8.89
49.259121,4.020677,5.34,-0.72,1.33,9.45
49.259078,4.02072,5.36,-0.8,1.62,10.54
49.259078,4.02072,5.36,-0.82,1.53,9.79
49.259029,4.020762,5.75,-0.77,1.68,9.69
49.259029,4.020762,5.75,-1.03,1.6,9.09
49.258969,4.020812,6.8,-0.91,1.74,9.55
49.258969,4.020812,6.8,-1.02,1.17,9.73
49.25891,4.020864,7,-1.18,1.78,9.29
49.25891,4.020864,7,-1.54,1.18,10.08
49.258851,4.020914,7.16,-1.06,1.43,9.31
49.258851,4.020914,7.16,-0.7,1.75,9.52
49.258791,4.020964,7.37,-1.07,1.53,9.06
49.258791,4.020964,7.37,-0.84,1.68,9.36
49.258731,4.021013,7.59,-1.22,1.43,9.37
49.258731,4.021013,7.59,-1.52,0.98,10.68
49.258665,4.021066,7.87,-0.67,1.77,9.53
49.258665,4.021066,7.87,-0.48,1.32,10.8
49.258603,4.021118,7.64,-1.19,1.77,10.08
49.258603,4.021118,7.64,-0.76,1.56,11.01
49.25854,4.021169,8.04,-0.35,1.41,7.91
49.258477,4.021218,7.82,-0.59,1.82,9.59
49.258477,4.021218,7.82,-1.16,1.37,9.39
49.258415,4.02127,8.47,-0.6,1.33,9.12
49.258415,4.02127,8.47,-1.51,-0.05,10.12
49.258343,4.021327,8.29,-1.11,0.86,10.67
49.258343,4.021327,8.29,-1.24,1.82,10.18
49.258274,4.021382,7.93,-0.61,1.46,10.41
49.258274,4.021382,7.93,-0.79,1.36,9.95
49.258207,4.021436,7.71,-1.02,0.86,9.51
49.258207,4.021436,7.71,-0.67,1.74,10.57
49.258138,4.021495,7.77,-0.32,1.07,11.19
49.258138,4.021495,7.77,-1.01,1.09,10.36
49.258074,4.021553,7.92,-0.13,1.23,8.23
49.258074,4.021553,7.92,-0.72,1.13,9.57
49.258013,4.021607,7.57,-1.31,1.5,8.76
49.258013,4.021607,7.57,-0.58,0.99,8.92
49.257956,4.021659,7.46,-1.03,0.75,9.92
49.257956,4.021659,7.46,0.74,1.02,7.91
49.257898,4.021714,7.36,-1.08,0.83,10.16
49.257898,4.021714,7.36,-0.9,0.88,9.87
49.257841,4.021765,6.84,-0.84,0.95,9.95
49.257841,4.021765,6.84,-0.91,1.21,10.81
49.257783,4.021818,6.9,-1.06,1.11,9.49
49.257783,4.021818,6.9,-0.98,1.06,9.82
49.257727,4.021871,6.68,-1.83,1.26,9.55
49.257727,4.021871,6.68,-1.47,1.19,10.3
49.25767,4.02192,6.73,-1.43,0.41,9.57
49.25767,4.02192,6.73,-0.99,0.79,9.99
49.257618,4.021967,6.16,-1,0.57,9.31
49.257618,4.021967,6.16,-0.91,0.58,10.25
49.257577,4.022006,5.24,-1.32,0.96,10.23
49.257577,4.022006,5.24,-1.15,1.15,8.77
49.257549,4.022032,4.71,-0.34,1.11,9.52
49.257549,4.022032,4.71,-0.84,0.97,10.12
49.257522,4.02206,4.99,-0.68,1.13,10.1
49.257522,4.02206,4.99,-0.94,0.86,9.5
49.257522,4.02206,4.99,-1.06,0.86,8.97
49.257522,4.02206,4.99,-0.99,0.91,9.71
49.257479,4.022102,3.15,-1.05,1.45,9.81
49.257479,4.022102,3.15,-0.69,1.55,9.46
49.257479,4.022102,3.15,-0.45,1.72,9.71
49.257421,4.022166,0,-0.91,1.91,9.42
49.257421,4.022166,0,-0.95,2.05,10.38
49.25741,4.02219,3.59,-0.12,1.72,9.95
49.25741,4.02219,3.59,-1.61,2.11,10.1
49.25738,4.022223,4.37,-0.45,2.83,9.92
49.25738,4.022223,4.37,-0.76,2.02,8.76
49.257348,4.022264,5.27,-0.7,2.07,9.99
49.257348,4.022264,5.27,-0.93,1.62,9.41
49.257307,4.022321,5.97,-0.97,0.75,10.26
49.257307,4.022321,5.97,-0.43,0.68,9.1
49.257254,4.022418,5.79,-1.07,0.63,9.67
49.257254,4.022418,5.79,-0.76,1.16,9.4
49.257214,4.022496,4.99,-0.8,0.68,10.05
49.257214,4.022496,4.99,-0.79,0.86,9.84
49.257183,4.022559,4.59,-0.97,1.05,9.91
49.257183,4.022559,4.59,-1.08,1.18,9.19
49.257158,4.02262,4.27,-0.93,1.04,9.76
49.257158,4.02262,4.27,-0.9,1.13,10.23
49.257135,4.02267,4.01,-0.87,0.65,10.52
49.257135,4.02267,4.01,-0.9,0.36,9.77
49.257116,4.022709,3.29,-0.78,0.16,10.34
49.257116,4.022709,3.29,-1.04,0.05,9.63
49.257102,4.022735,2.09,-0.9,-0.06,10.41
49.257102,4.022735,2.09,-0.78,0.17,9.8
49.257102,4.022735,0,-0.71,0.42,9.86
49.257102,4.022735,0,-0.65,1.67,9.54
49.257102,4.022735,0,-0.74,1.39,9.78
49.257102,4.022735,0,-0.79,1.34,9.79
49.257102,4.022735,0,-0.79,1.37,9.77
49.257102,4.022735,0,-0.8,1.38,9.72
49.257102,4.022735,0,-0.77,1.36,9.78
49.257102,4.022735,0,-0.83,1.38,9.68
49.257102,4.022735,0,-0.82,1.33,9.75
49.257102,4.022735,0,-0.73,1.36,9.75
49.257102,4.022735,0,-0.81,1.36,9.78
49.257102,4.022735,0,-0.77,1.35,9.8
49.257102,4.022735,0,-0.74,1.36,9.84
49.257102,4.022735,0,-0.71,1.36,9.82
49.257102,4.022735,0,-0.79,1.26,9.82
49.257102,4.022735,0,-0.8,1.38,9.76
49.257102,4.022735,0,-0.77,1.44,9.78
49.257102,4.022735,0,-0.73,1.48,9.77
49.257102,4.022735,0,-0.8,1.34,9.81
49.257102,4.022735,0,-0.81,1.33,9.75
49.257102,4.022735,0,-0.8,1.37,9.84
49.257102,4.022735,0,-0.76,1.37,9.78
49.257102,4.022735,0,-0.79,1.3,9.75
49.257102,4.022735,0,-0.75,1.36,9.78
49.257102,4.022735,0,-0.89,1.37,9.64
49.257102,4.022735,0,-0.79,1.34,9.74
49.257102,4.022735,0,-0.76,1.35,9.75
49.257102,4.022735,0,-0.76,1.35,9.81
49.257102,4.022735,0,-0.78,1.33,9.77
49.257102,4.022735,0,-0.8,1.34,9.78
49.257102,4.022735,0,-0.82,1.34,9.77
49.257102,4.022735,0,-0.74,1.35,9.87
49.257102,4.022735,0,-0.79,1.41,9.77
49.257102,4.022735,0,-0.77,1.38,9.8
49.257102,4.022735,0,-0.75,1.37,9.78
49.257102,4.022735,0,-0.8,1.36,9.72
49.257102,4.022735,0,-0.83,1.36,9.76
49.257102,4.022735,0,-0.8,1.39,9.74
49.257102,4.022735,0,-0.78,1.38,9.73
49.257102,4.022735,0,-0.78,1.43,9.77
49.257102,4.022735,0,-0.74,1.36,9.82
49.257102,4.022735,0,-0.77,1.41,9.8
49.257102,4.022735,0,-0.78,1.36,9.76
49.257102,4.022735,0,-0.77,1.36,9.85
49.257102,4.022735,0,-0.79,1.39,9.77
49.257102,4.022735,0,-0.76,1.41,9.79
49.257102,4.022735,0,-0.78,1.32,9.73
49.257102,4.022735,0,-0.89,1.34,9.64
49.257102,4.022735,0,-0.79,1.41,9.78
49.257094,4.022763,0.01,-0.77,1.39,9.72
49.257094,4.022763,0.01,-0.76,1.37,9.81
49.257094,4.022763,0.01,-0.78,1.36,9.89
49.257094,4.022763,0.01,-0.76,1.36,9.77
49.257094,4.022763,0,-0.81,1.36,9.77
49.257094,4.022763,0,-0.8,1.35,9.81
49.257095,4.022763,0,-0.8,1.36,9.72
49.257095,4.022763,0,-0.76,1.39,9.77
49.257095,4.022763,0,-0.78,1.37,9.73
49.257095,4.022763,0,-0.79,1.4,9.78
49.257095,4.022763,0,-0.76,1.33,9.8
49.257095,4.022763,0,-0.76,1.31,9.82
49.257095,4.022763,0,-0.77,1.36,9.8
49.257095,4.022763,0,-0.79,1.41,9.79
49.257095,4.022763,0,-0.86,1.3,9.6
49.257095,4.022763,0,-0.86,1.3,9.67
49.257095,4.022763,0,-0.84,1.33,9.73
49.257095,4.022762,0,-0.79,1.35,9.76
49.257095,4.022762,0,-0.77,1.33,9.79
49.257095,4.022762,0.01,-0.72,1.36,9.77
49.257095,4.022762,0.01,-0.77,1.37,9.86
49.257096,4.022762,0,-0.78,1.34,9.79
49.257096,4.022762,0,-0.76,1.39,9.79
49.257096,4.022761,0.01,-0.74,1.37,9.78
49.257096,4.022761,0.01,-0.75,1.34,9.79
49.257096,4.022761,0.03,-0.84,1.35,9.64
49.257096,4.022761,0.03,-0.83,1.33,9.64
49.257096,4.022761,0.02,-0.74,1.38,9.76
49.257096,4.022761,0.02,-0.78,1.36,9.81
49.257096,4.022761,0,-0.78,1.38,9.71
49.257096,4.022761,0,-0.8,1.39,9.75
49.257096,4.022761,0.01,-0.75,1.39,9.81
49.257096,4.022761,0.01,-0.79,1.36,9.71
49.257096,4.022761,0.01,-0.8,1.37,9.78
49.257096,4.022761,0.01,-0.78,1.35,9.74
49.257096,4.022761,0.01,-0.8,1.32,9.73
49.257096,4.022761,0.01,-0.82,1.36,9.75
49.257096,4.022761,0.01,-0.82,1.35,9.71
49.257096,4.022761,0.01,-0.76,1.35,9.8
49.257096,4.022761,0.01,-0.86,1.32,9.69
49.257096,4.022761,0.01,-0.79,1.29,9.83
49.257096,4.022762,0.02,-0.84,1.39,9.74
49.257096,4.022762,0.02,-0.77,1.38,9.79
49.257096,4.022761,0.01,-0.74,1.36,9.81
49.257096,4.022761,0.01,-0.77,1.37,9.83
49.257096,4.022761,0.01,-0.77,1.33,9.76
49.257096,4.022761,0.01,-0.82,1.36,9.7
49.257096,4.022761,0.01,-0.8,1.24,9.75
49.257096,4.022761,0.01,-0.79,1.31,9.78
49.257096,4.022761,0.01,-0.76,1.35,9.74
49.257096,4.022761,0.01,-0.81,1.36,9.79
49.257096,4.022761,0.01,-0.8,1.32,9.84
49.257096,4.022761,0.01,-0.75,1.38,9.77
49.257096,4.022761,0.01,-0.81,1.36,9.87
49.257096,4.022761,0.01,-0.86,1.36,9.72
49.257096,4.022761,0.01,-0.73,1.37,9.83
49.257096,4.02276,0.02,-0.87,1.82,9.92
49.257096,4.02276,0.02,-0.67,2.18,9.4
49.257096,4.022761,0.01,-0.68,2.65,9.42
49.257096,4.022761,0.01,-0.68,2.44,9.45
49.257096,4.022761,0.05,-0.8,2.57,10.17
49.257096,4.022761,0.05,-1.01,2.12,9.1
49.257094,4.022766,0.62,-0.3,2.22,8.44
49.257094,4.022766,0.62,-0.74,2.27,10.12
49.257084,4.02279,1.41,-0.92,2.24,9.67
49.257084,4.02279,1.41,-0.46,2.27,10.04
49.257064,4.022832,2.54,-0.05,1.92,8.86
49.257064,4.022832,2.54,0.74,1.62,9.79
49.257037,4.022892,3.49,1.47,1.47,9.47
49.257037,4.022892,3.49,2.15,1.61,9
49.256997,4.022951,4.21,1.96,1.12,8.64
49.256997,4.022951,4.21,2.39,1.66,9.31
49.25695,4.022982,4.81,1.54,1.79,9.6
49.25695,4.022982,4.81,0.68,2.17,9.97
49.256896,4.022977,5.21,0.45,2.23,9.39
49.256896,4.022977,5.21,-0.27,2.05,10.15
49.256844,4.022923,6.9,0.24,2.04,9.32
49.256844,4.022923,6.9,-0.19,2.46,9.36
49.256795,4.022841,8.28,-1.07,1.91,9.23
49.256795,4.022841,8.28,-0.35,1.61,9.55
49.256732,4.022757,8.83,-0.97,1.38,9.8
49.256732,4.022757,8.83,-0.81,1.07,9.66
49.256667,4.022671,8.98,-1.23,0.68,10.28
49.256667,4.022671,8.98,-0.68,0.71,9.82
49.256606,4.022581,8.73,-0.09,0.79,9.62
49.256606,4.022581,8.73,-1.32,0.92,9.88
49.256548,4.0225,8.24,-1.06,0.25,9.84
49.256548,4.0225,8.24,-0.94,0.62,10.46
49.256494,4.022425,7.46,-0.55,0.92,10.37
49.256494,4.022425,7.46,-0.63,0.82,10.7
49.256445,4.022358,6.78,-0.88,0.57,9.68
49.256445,4.022358,6.78,-0.82,0.18,10.15
49.256396,4.022297,6.17,-0.68,0.59,10.32
49.256396,4.022297,6.17,-0.79,0.55,9.34
49.256354,4.022245,5.5,-0.74,0.58,9.57
49.256314,4.0222,5.21,-0.73,0.66,10.53
49.256314,4.0222,5.21,-0.39,0.69,8.94
49.256275,4.022157,4.79,-0.6,0.8,8.95
49.256275,4.022157,4.79,-1.15,0.6,9.5
49.256242,4.02212,4.22,-0.86,1.1,9.93
49.256242,4.02212,4.22,-0.77,1.02,10.18
49.256212,4.022081,3.98,-0.91,1.01,9.57
49.256212,4.022081,3.98,-0.5,0.53,9.66
49.256186,4.022048,3.54,-0.59,0.22,9.36
49.256186,4.022048,3.54,-0.69,0.27,10.13
49.256162,4.022019,2.64,-0.97,0.41,9.95
49.256162,4.022019,2.64,-0.75,0.3,9.94
49.256149,4.022001,1.76,-0.53,0.5,9.63
49.256149,4.022001,1.76,-0.72,0.47,10.21
49.256143,4.021989,0.94,-0.81,0.49,9.72
49.256143,4.021989,0.94,-0.75,0.87,9.74
49.256143,4.021989,0,-0.64,1.22,9.85
49.256143,4.021989,0,-0.77,1,9.7
49.256143,4.021989,0,-0.67,1.02,9.91
49.256143,4.021989,0,-0.72,0.98,9.79
49.256143,4.021989,0,-0.8,0.96,9.76
49.256143,4.021989,0,-0.72,1.22,9.81
49.256143,4.021989,0,-0.68,1.24,9.63
49.256143,4.021989,0,-0.76,1.6,9.7
49.256143,4.021989,0,-0.64,1.87,9.52
49.256143,4.021989,0,-0.59,1.68,9.8
49.256143,4.021989,0,-0.72,2.35,9.69
49.256143,4.021989,0,-0.87,2.71,9.34
49.256143,4.021989,0,-0.74,2.66,8.56
49.256143,4.021989,0,-0.82,2.73,9.35
49.256122,4.021937,2.6,-0.8,3.07,9.9
49.256122,4.021937,2.6,-0.37,2.56,8.29
49.256095,4.021904,4,-0.86,2.84,10.06
49.256095,4.021904,4,-0.26,2.93,9.84
49.256052,4.021864,5.89,-0.27,2.39,7.16
49.256052,4.021864,5.89,-0.81,2.6,9.44
49.256007,4.021804,6.84,-0.67,2.48,8.27
49.256007,4.021804,6.84,-0.82,2.87,8.41
49.255955,4.021729,8.18,-1.43,1.42,9.87
49.255955,4.021729,8.18,-0.61,1.96,9.67
49.255893,4.021622,9.72,-1.16,1.67,9.03
49.255825,4.021518,10.43,-0.91,2.54,9.87
49.255825,4.021518,10.43,-1.75,1.56,9.26
49.255754,4.021418,11.1,-0.61,1.96,8.98
49.255754,4.021418,11.1,-1.36,1.69,8.7
49.255677,4.021316,11.64,-0.74,1.57,9.42
49.255677,4.021316,11.64,-1.28,1.26,8.71
49.255598,4.021213,11.72,-1.52,1.49,10.54
49.255598,4.021213,11.72,-2.15,1.44,8.98
49.255517,4.021109,11.87,-1.09,2.3,10.32
49.255517,4.021109,11.87,-0.86,2.51,7.93
49.255434,4.021002,12.26,-0.43,1.66,9.64
49.255434,4.021002,12.26,-0.05,1.73,9.93
49.255348,4.020895,12.63,-1.5,1.87,8.06
49.255348,4.020895,12.63,-0.74,1.89,10.5
49.255257,4.020786,13.08,-1.75,2.05,8.21
49.255257,4.020786,13.08,-1.02,2.27,10.64
49.255161,4.020673,13.74,-0.23,2.31,9.95
49.255161,4.020673,13.74,-0.95,2.3,9.1
49.255056,4.020554,14.57,-0.61,1.94,10.34
49.255056,4.020554,14.57,-1.31,1.12,10.36
49.254945,4.020432,15.12,-0.85,1.72,9.72
49.254945,4.020432,15.12,-0.5,1.4,10.41
49.254831,4.020307,15.61,-1.8,1.54,10.29
49.254831,4.020307,15.61,-1.25,1.36,10.24
49.254715,4.020178,15.77,-0.25,1.02,10.64
49.254715,4.020178,15.77,-0.97,1.61,9.11
49.254597,4.020052,15.94,-1.83,1.52,9.88
49.254597,4.020052,15.94,-1.29,1.88,9.64
49.254479,4.019927,16,-1.61,1.31,9.9
49.254479,4.019927,16,-1.23,2.03,10.51
49.254361,4.019799,15.63,-0.76,1.29,11.03
49.254361,4.019799,15.63,-2.19,2.19,9.97
49.254247,4.019673,15.57,-1.59,1.29,8.74
49.254247,4.019673,15.57,-1.03,1.48,9.46
49.254134,4.019548,15.33,-0.9,1.38,10.96
49.254134,4.019548,15.33,-1.47,1.75,10.9
49.254023,4.019425,15.02,-1.02,0.82,10.19
49.254023,4.019425,15.02,-0.96,1.13,8.54
49.253917,4.019309,14.78,-1.12,1.92,9.62
49.253917,4.019309,14.78,-0.93,1.36,10.7
49.253807,4.019196,14.52,-1.92,1.51,9.29
49.253807,4.019196,14.52,-1.72,1.68,9.83
49.253699,4.019086,14.54,-1.74,1.42,11
49.253584,4.018977,14.41,-1.12,1.43,7.59
49.253584,4.018977,14.41,-0.71,1.36,10.14
49.253473,4.018869,14.39,0.35,1.68,9.18
49.253473,4.018869,14.39,-1.08,0.37,11.09
49.253368,4.018765,14.13,-0.68,1.78,9.76
49.253368,4.018765,14.13,-0.35,1.49,9.17
49.25326,4.018663,13.83,-0.7,1.47,8.85
49.25326,4.018663,13.83,-0.22,1.23,8.19
49.253151,4.01856,13.75,-1.07,0.83,12.05
49.253151,4.01856,13.75,-0.91,1.72,8.51
49.253046,4.018453,13.63,-0.81,1.2,9.59
49.253046,4.018453,13.63,-0.68,1.13,9.12
49.252941,4.018345,13.61,0.17,1.56,9.31
49.252941,4.018345,13.61,-0.59,1.64,9.76
49.252837,4.018236,13.56,-0.85,1.2,9.47
49.252837,4.018236,13.56,-0.73,0.97,12.27
49.252731,4.018128,13.66,-0.82,0.7,9.28
49.252731,4.018128,13.66,-0.02,1.67,8.92
49.25263,4.018021,13.47,-0.57,0.91,10.01
49.25263,4.018021,13.47,-0.58,0.93,8.85
49.252528,4.017917,13.3,-0.65,1.13,10.46
49.252528,4.017917,13.3,-0.62,0.95,9.6
49.252428,4.017815,13.15,-0.48,0.25,7.4
49.252428,4.017815,13.15,-0.58,-0.16,9.04
49.252327,4.017714,12.7,-0.87,0.33,9.33
49.252327,4.017714,12.7,-0.81,0.07,9.99
49.252235,4.017622,12.02,-2.37,0.21,9.84
49.252235,4.017622,12.02,-1.36,-0.15,9.75
49.252145,4.017539,11.73,-1.47,-0.19,11.11
49.252145,4.017539,11.73,-1.88,-0.64,9.86
49.252065,4.017462,10.54,-1.64,-0.68,9.27
49.252065,4.017462,10.54,-1.55,-0.31,10.22
49.251993,4.017405,8.97,-1.26,0.47,10.7
49.251993,4.017405,8.97,-0.39,1.78,10.51
49.251922,4.017369,8.58,0.2,1.46,9.12
49.251922,4.017369,8.58,-0.05,1.24,10.06
49.251852,4.01733,8.58,0.77,0.44,9.33
49.251852,4.01733,8.58,0.89,1.18,9.24
49.251782,4.017284,8.14,0.43,1.2,9.43
49.251782,4.017284,8.14,0.5,1.49,9.43
49.251721,4.017214,8.85,0.61,1.63,10.69
49.251659,4.01713,9.11,0.23,1.41,11.87
49.251659,4.01713,9.11,0.43,1.01,11.16
49.251611,4.017022,9.14,0.33,1.08,10.69
49.251611,4.017022,9.14,0.36,0.91,10.22
49.251578,4.016899,9.33,0.47,0.93,10.79
49.251578,4.016899,9.33,0.26,1.1,9.77
49.251558,4.016768,9.39,0.7,0.91,9.55
49.251558,4.016768,9.39,0.28,1.11,9.08
49.251548,4.016629,9.34,0.6,0.59,9.45
49.251548,4.016629,9.34,0.01,0.72,9.36
49.251552,4.016494,8.93,0.26,1.13,9.45
49.251552,4.016494,8.93,0.33,1.03,10.72
49.251569,4.016366,8.84,-0.08,0.54,9.08
49.251569,4.016366,8.84,0.41,0.14,9.71
49.251598,4.016245,8.18,0.04,0.32,10.38
49.251598,4.016245,8.18,0.77,0.92,9.22
49.251643,4.016145,7.79,1.12,0.4,9.13
49.251643,4.016145,7.79,1.43,0.79,9.17
49.251695,4.016065,7.41,1.58,0.74,9.63
49.251695,4.016065,7.41,2.04,1.79,10.46
49.25175,4.016004,6.92,1.55,1.17,10.48
49.25175,4.016004,6.92,0.43,1.07,10.18
49.251818,4.015969,7.67,-0.67,1.76,8.96
49.251818,4.015969,7.67,-1.85,1.83,9.66
49.251892,4.015954,8.09,-1.42,1.8,8.48
49.251892,4.015954,8.09,-1.17,1.84,9.77
49.251969,4.015936,8.48,0.11,1.92,9.84
49.251969,4.015936,8.48,0.81,1.78,9.57
49.252051,4.015912,9.28,0.9,1,9.9
49.252051,4.015912,9.28,0.8,0.92,11.99
49.252137,4.015894,8.94,0.78,1.43,10
49.252137,4.015894,8.94,1.57,0.57,9.03
49.252227,4.015893,8.83,1.48,1.11,9.64
49.252227,4.015893,8.83,1.11,1.26,10.56
49.252321,4.01592,8.71,1.05,1.53,9.82
49.252321,4.01592,8.71,0.64,1.65,8.76
49.252419,4.015998,10.34,1.76,1.38,10.03
49.252419,4.015998,10.34,1.31,1.47,9.35
49.252507,4.016119,10.83,0.45,1.78,10.15
49.252507,4.016119,10.83,0.66,1.66,8.77
49.252581,4.016266,11.02,2.33,1.47,9.81
49.252581,4.016266,11.02,0.9,1.82,11.97
49.252632,4.016433,11.41,1.4,1.46,10.41
49.252659,4.016609,11.59,2.2,1.49,9.09
49.252659,4.016609,11.59,0.68,1.48,9.38
49.252657,4.016781,12.13,1.49,1.73,11.05
49.252657,4.016781,12.13,0.47,2.17,9.47
49.252638,4.016958,12.76,0.38,2.31,9.92
49.252638,4.016958,12.76,0.29,1.68,9.97
49.252603,4.017142,13.54,-0.2,1.72,10.36
49.252603,4.017142,13.54,-0.32,1.87,9.37
49.252559,4.017334,14.36,0.19,2.17,8.6
49.252559,4.017334,14.36,-0.14,2.49,9.02
49.252508,4.017527,15.09,-0.95,2.51,10.11
49.252508,4.017527,15.09,-0.29,1.75,11.52
49.252451,4.017716,15.5,0.11,1.89,8.93
49.252451,4.017716,15.5,-1.65,1.19,10.73
49.252395,4.017916,15.84,-1.26,1.41,8.05
49.252395,4.017916,15.84,-0.62,1.42,8.56
49.252335,4.018131,16.71,-0.29,1.26,9.74
49.252335,4.018131,16.71,0.39,1.85,11.96
49.25227,4.018351,17.23,-0.47,1.36,9.43
49.25227,4.018351,17.23,0.11,2.06,8.95
49.2522,4.018572,17.58,-0.16,1.98,7.34
49.2522,4.018572,17.58,-0.26,1.45,10.96
49.252118,4.018791,18.13,0.52,1.25,8.93
49.252118,4.018791,18.13,-0.08,1.73,9.41
49.25203,4.019011,18.12,-0.4,1.46,10.39
49.25203,4.019011,18.12,-0.89,1.39,7.97
49.251942,4.019231,18.21,-0.58,1.31,9.51
49.251942,4.019231,18.21,-0.53,1.8,10.27
49.251854,4.01945,18.43,-0.95,1.56,10.83
49.251854,4.01945,18.43,-1.09,1.43,9.76
49.251767,4.019673,18.79,-1.19,2.52,10.41
49.251767,4.019673,18.79,-0.48,1.94,9.45
49.251684,4.019885,19.32,-0.19,1.88,9.14
49.251684,4.019885,19.32,-0.72,2.03,10.28
49.251588,4.020105,19.82,-0.12,2.04,8.91
49.251588,4.020105,19.82,-0.13,2.01,10.62
49.251483,4.020325,20.29,-0.28,1.65,9.42
49.251483,4.020325,20.29,0.62,1.9,9.57
49.251375,4.020543,20.93,0.09,1.4,9.65
49.251256,4.020772,21.52,-0.77,2.65,10.12
49.251256,4.020772,21.52,-0.34,2.26,10.4
49.251129,4.021005,22.03,-0.99,1.82,9.52
49.251129,4.021005,22.03,-0.72,1.72,9.48
49.250995,4.021241,22.54,-0.54,1.59,9.85
49.250995,4.021241,22.54,-0.21,1.47,8.69
49.250853,4.021477,23.08,-0.02,1.96,10.29
49.250853,4.021477,23.08,-0.45,1.86,9.71
49.250715,4.021715,23.25,-0.45,0.94,9.82
49.250715,4.021715,23.25,-0.48,2.42,10.01
49.250567,4.021946,23.52,-0.75,1.27,9.84
49.250567,4.021946,23.52,-0.84,1.81,10.37
49.250409,4.02217,23.87,-0.06,1.7,8.69
49.250409,4.02217,23.87,0.17,2.45,7.74
49.250251,4.022398,24.12,-0.59,1.72,9.8
49.250251,4.022398,24.12,-0.35,1.42,9.43
49.250092,4.022622,24.38,-0.36,2.02,10.67
49.250092,4.022622,24.38,-0.57,1.72,12.13
49.249929,4.022852,24.65,-1.34,1.17,9.36
49.249929,4.022852,24.65,0.03,1.52,9.95
49.249761,4.023081,24.73,-0.81,1.08,7.93
49.249761,4.023081,24.73,-0.53,0.87,9.19
49.249593,4.023306,25.01,-0.8,1.4,9.78
49.249593,4.023306,25.01,-1.02,1.57,11.2
49.249426,4.023534,24.95,-0.7,1.15,8.69
49.249426,4.023534,24.95,-0.87,2.29,8.4
49.24926,4.023766,25.14,-0.43,1.34,12.62
49.24926,4.023766,25.14,-0.94,2.05,9.46
49.249096,4.024001,25.16,-1.4,0.91,12.04
49.249096,4.024001,25.16,-1.53,2.22,9.89
49.248929,4.024234,25.32,-1.2,1.57,9.05
49.248929,4.024234,25.32,-0.28,1.66,9.61
49.248765,4.024468,25.36,-0.85,1.64,8.37
49.248765,4.024468,25.36,-1.04,0.6,10.35
49.248595,4.024703,25.4,-0.68,1.36,9.66
49.248595,4.024703,25.4,-1.05,1.39,10.54
49.248426,4.024939,25.43,-0.55,1.02,10.5
49.248426,4.024939,25.43,-0.94,1.35,8.93
49.24826,4.025169,25.42,-0.75,0.93,10.11
49.24826,4.025169,25.42,-0.84,1.67,9.14
49.248093,4.025408,25.38,-1.03,1.45,8.2
49.247923,4.025637,25.36,-0.77,1.26,13.58
49.247923,4.025637,25.36,-0.29,2.04,9.33
49.24775,4.025866,25.43,-0.42,1.19,8.25
49.24775,4.025866,25.43,-0.52,1.49,10.93
49.247576,4.026099,25.42,0.1,1.7,9.79
49.247576,4.026099,25.42,-0.38,1.92,8.54
49.247405,4.026331,25.46,-0.9,1.45,10.79
49.247405,4.026331,25.46,-0.51,1.68,7.39
49.247238,4.02656,25.52,-0.44,0.94,11.1
49.247238,4.02656,25.52,0.12,1.3,8.12
49.247064,4.026791,25.41,-0.99,1.53,9.49
49.247064,4.026791,25.41,0,1.13,8.67
49.246892,4.02702,25.3,-0.37,1.38,7.95
49.246892,4.02702,25.3,-1.24,0.54,11.74
49.246719,4.027244,25.28,-0.43,1.21,8.91
49.246719,4.027244,25.28,-0.76,1.1,11.7
49.246542,4.027459,25.24,-0.22,0.99,10.16
49.246542,4.027459,25.24,-0.48,0.88,10.55
49.246359,4.027664,25.2,-0.46,1.4,10.16
49.246359,4.027664,25.2,-0.5,1.14,11.35
49.246177,4.027868,25.17,-0.18,1.27,6.65
49.246177,4.027868,25.17,-0.15,0.77,10.12
49.245989,4.028072,25.22,-0.43,1.36,9.08
49.245989,4.028072,25.22,0.4,1.28,11.14
49.245798,4.02827,25.2,0.2,0.83,8.16
49.245798,4.02827,25.2,-0.73,1.43,11.08
49.245606,4.028464,25.11,-0.08,1.18,11.2
49.245606,4.028464,25.11,-0.36,1.15,10.73
49.245406,4.028646,25.24,0.08,1.73,8.61
49.245406,4.028646,25.24,-0.98,1.07,9.88
49.245212,4.028827,25.22,-1.59,1.37,9.06
49.245212,4.028827,25.22,-0.5,1.04,10.07
49.245019,4.029004,24.82,-1.71,1.74,8.65
49.245019,4.029004,24.82,-1.3,1.33,11.1
49.244823,4.029182,24.65,-0.76,1.83,8.37
49.244823,4.029182,24.65,-0.89,1.27,10.71
49.24463,4.029364,25.07,-1.22,1.39,8.89
49.24463,4.029364,25.07,0.38,1.49,9.86
49.244435,4.029551,25.11,-0.31,1.82,9.43
49.244435,4.029551,25.11,-0.36,1.12,9.88
49.244251,4.029734,25.05,-0.41,1.05,9.79
49.244251,4.029734,25.05,0.22,1.02,8.14
49.244067,4.029931,25.11,0.19,1.01,11.62
49.243878,4.030114,24.87,0.31,0.34,9.68
49.243878,4.030114,24.87,-0.17,0.71,8.63
49.243691,4.030279,24.2,0.15,1.24,10.54
49.243691,4.030279,24.2,-0.72,0.47,8.8
49.243505,4.030444,23.69,-0.45,1.28,10.69
49.243505,4.030444,23.69,-0.93,1.83,10.07
49.243315,4.030605,23.77,-0.84,2.32,9.3
49.243315,4.030605,23.77,-1.31,1.7,9.7
49.243125,4.03078,24.25,-0.18,2.14,10.57
49.243125,4.03078,24.25,-0.18,1.95,10.41
49.242935,4.03096,24.9,0.22,2.07,10
49.242935,4.03096,24.9,0.92,2.03,9.24
49.242743,4.031154,25.48,-0.25,1.23,9.52
49.242743,4.031154,25.48,-0.87,2.02,5.93
49.242547,4.03135,25.83,0.4,2.02,10.86
49.242547,4.03135,25.83,0.35,1.87,7.63
49.242352,4.03153,26.14,0,1.68,7.12
49.242352,4.03153,26.14,-0.4,1.61,7.37
49.242156,4.031709,26.47,0.24,0.92,8.26
49.242156,4.031709,26.47,-0.29,1.52,8.91
49.241956,4.031898,26.65,0.12,2.35,9.92
49.241956,4.031898,26.65,-0.4,1.3,10.33
49.241753,4.032089,26.74,0.32,1.87,10.7
49.241753,4.032089,26.74,0.06,2.43,8.31
49.241547,4.03228,26.8,-0.04,0.34,10.18
49.241547,4.03228,26.8,-0.77,1.25,9.28
49.24134,4.032469,27.05,-0.46,1.86,10.39
49.24134,4.032469,27.05,-0.18,1.81,7.98
49.241131,4.032664,27.2,0.03,1.29,11.85
49.241131,4.032664,27.2,0.47,0.81,8.74
49.240921,4.032856,27.35,-0.57,1.19,10.13
49.240921,4.032856,27.35,-0.7,2.21,11.37
49.240715,4.033045,27.71,0.65,1.2,8.81
49.240715,4.033045,27.71,0.38,1.66,10.17
49.240503,4.03324,27.63,0.79,1.42,10.2
49.240503,4.03324,27.63,0.09,1.13,10.25
49.240287,4.033433,27.59,-0.12,1.75,10.92
49.240287,4.033433,27.59,0.44,0.89,8.15
49.240077,4.033625,27.29,-0.79,1.27,6.07
49.240077,4.033625,27.29,-0.28,1.24,9.13
49.23987,4.033811,27.07,-0.35,1.26,10.44
49.239662,4.033991,26.77,-0.57,0.66,9.09
49.239662,4.033991,26.77,-0.42,1.28,10.12
49.239453,4.034173,26.68,0,1.16,9.61
49.239453,4.034173,26.68,-1.03,1.2,11.22
49.23924,4.034365,26.56,-0.91,0.47,11.28
49.23924,4.034365,26.56,-0.68,0.89,9.19
49.239031,4.034565,26.3,-0.78,0.69,9.5
49.239031,4.034565,26.3,0.22,0.18,10.3
49.238829,4.034764,25.84,0.27,0.37,8.73
49.238829,4.034764,25.84,0.26,0.49,10.36
49.238641,4.034968,24.98,0.59,0.41,9.65
49.238641,4.034968,24.98,-0.13,0.95,11.05
49.23846,4.035157,24.38,-1.46,0,9.9
49.23846,4.035157,24.38,-1.12,-0.98,9.46
49.238273,4.035333,23.03,-1.95,-1,9.35
49.238273,4.035333,23.03,-1.58,-0.04,8.85
49.238107,4.035499,21.24,-0.44,0.42,8.92
49.238107,4.035499,21.24,-1.26,0.42,10.92
49.237951,4.035668,20.72,-1.21,0.45,9.69
49.237951,4.035668,20.72,-1.05,0.68,9.37
49.237801,4.035837,20.49,-0.76,1.22,10.49
49.237801,4.035837,20.49,-0.32,1.25,9.73
49.237661,4.036,20.39,-0.41,0.85,10.31
49.237661,4.036,20.39,-0.54,1.24,9.9
49.237503,4.036164,20.25,-0.83,0.94,8.12
49.237503,4.036164,20.25,-0.66,1,8.35
49.237357,4.036331,20.07,-1.02,1.44,9.96
49.237357,4.036331,20.07,-0.69,1.91,10.24
49.23722,4.036493,19.92,-1.34,1.17,10.32
49.23722,4.036493,19.92,-0.17,0.47,8.22
49.237078,4.03666,19.91,0.08,1.61,9.7
49.237078,4.03666,19.91,-0.8,0.94,10.67
49.236932,4.03682,19.71,-1.29,1.13,9.26
49.236932,4.03682,19.71,-0.86,1.21,10.6
49.236799,4.036985,19.7,-0.78,1.62,8.03
49.236799,4.036985,19.7,-0.41,0.91,10.05
49.236664,4.037137,19.58,-0.91,1.02,9.54
49.236664,4.037137,19.58,-1.5,1.44,10.3
49.236523,4.037287,19.55,-0.55,0.79,10.11
49.236523,4.037287,19.55,-0.91,0.59,10.57
49.236385,4.037444,19.45,-0.78,0.69,10.31
49.236246,4.037599,19.16,-0.51,0.14,9.33
49.236246,4.037599,19.16,-0.38,0.2,10.3
49.236113,4.037751,18.32,-0.27,1.47,10.43
49.236113,4.037751,18.32,-0.4,0.28,10.26
49.235983,4.037892,17.66,0.14,0.69,8.42
49.235983,4.037892,17.66,-0.45,0.31,9.41
49.235856,4.038024,16.97,-0.79,0.22,10.23
49.235856,4.038024,16.97,-0.72,-0.68,10.65
49.235726,4.038138,15.45,-0.52,0.12,10.82
49.235726,4.038138,15.45,-0.2,0.63,11.49
49.2356,4.038246,14.61,-1.31,0.8,9.8
49.2356,4.038246,14.61,-0.18,1.16,8.91
49.235484,4.038349,14,-0.6,0.66,10.49
49.235484,4.038349,14,-0.53,0.76,10.1
49.235379,4.038446,13.29,-1.27,0.35,11.02
49.235379,4.038446,13.29,-0.71,1.27,10.71
49.23528,4.038536,12.86,-1.02,0.75,10.61
49.23528,4.038536,12.86,-1.32,0.81,9.61
49.235188,4.038621,11.75,-0.68,0.88,10.23
49.235188,4.038621,11.75,-0.66,1.21,10.15
49.235103,4.0387,10.63,-0.96,0.94,10.13
49.235103,4.0387,10.63,-0.85,0.35,9.25
49.235037,4.03877,9.7,-0.61,0.46,10.26
49.235037,4.03877,9.7,-0.77,-0.03,9.61
49.234974,4.038834,8.2,-0.27,0.09,8.66
49.234974,4.038834,8.2,-0.34,-0.11,10.1
49.23491,4.038885,6.43,-0.29,0.01,9.88
49.23491,4.038885,6.43,-1.07,0.15,10.65
49.234872,4.038926,4.58,-0.58,-0.35,10.15
49.234872,4.038926,4.58,-0.36,-0.03,9.07
49.234846,4.038955,2.95,-0.82,0.58,9.85
49.234846,4.038955,2.95,-0.74,1.47,9.88
49.234846,4.038955,0,-0.49,1.52,9.5
49.234846,4.038955,0,-0.69,2.09,9.28
49.234846,4.038955,0,-0.68,2.28,10.19
49.234846,4.038955,0,-0.65,2.25,9.46
49.234846,4.038955,0,-0.78,2.57,10.02
49.234846,4.038955,0,-0.46,2.47,9.66
49.234785,4.039012,2.92,-0.65,2.7,8.96
49.234785,4.039012,2.92,-0.9,2.24,9.53
49.234759,4.039034,3.79,-0.7,2.49,9.89
49.234759,4.039034,3.79,-0.63,2.07,8.81
49.234728,4.039062,4.35,-0.5,2.14,8.8
49.234688,4.039098,5.02,-0.72,2.38,10.45
49.234688,4.039098,5.02,-0.95,2.69,10.1
49.234643,4.039135,5.87,-0.59,2.47,10.12
49.234643,4.039135,5.87,-0.69,2.32,9
49.234587,4.039185,6.83,-0.66,2.57,9.61
49.234587,4.039185,6.83,-0.66,2.83,9.62
49.234525,4.039246,7.54,-0.63,2.18,8.63
49.234525,4.039246,7.54,-0.57,1.47,10.33
49.234466,4.039309,7.98,-0.84,1.73,9.96
49.234466,4.039309,7.98,-0.83,1.11,9.59
49.234407,4.039373,7.67,-0.21,1.28,9.83
49.234407,4.039373,7.67,-1.42,0.87,9.51
49.23435,4.039432,6.99,-0.58,1.37,9.49
49.23435,4.039432,6.99,-0.7,0.79,9.8
49.234293,4.039486,6.34,-0.73,0.47,9.47
49.234293,4.039486,6.34,-0.96,0.45,10.38
49.234247,4.039538,5.34,-0.91,0.64,10.13
49.234247,4.039538,5.34,-0.79,0.51,9.73
49.234209,4.039576,4.64,-0.73,0.46,9.69
49.234209,4.039576,4.64,-0.79,0.45,9.79
49.234181,4.039609,3.39,-0.49,0.15,10.41
49.234181,4.039609,3.39,-0.65,0.12,10.02
49.234181,4.039609,0,-0.46,0.57,9.53
49.234181,4.039609,0,-0.72,0.55,9.7
49.234181,4.039609,0,-0.66,0.81,9.96
49.234181,4.039609,0,-0.67,1.43,9.63
49.234181,4.039609,0,-0.6,1.39,9.65
49.234181,4.039609,0,-0.71,1.45,9.64
49.234181,4.039609,0,-0.64,1.1,9.68
49.234181,4.039609,0,-0.65,1.53,9.69
49.234181,4.039609,0,-0.59,1.7,9.75
49.234181,4.039609,0,-0.64,1.64,9.67
49.234181,4.039609,0,-0.66,1.63,9.71
49.234181,4.039609,0,-0.64,1.63,9.73
49.234181,4.039609,0,-0.66,1.65,9.71
49.234181,4.039609,0,-0.66,1.62,9.64
49.234181,4.039609,0,-0.63,1.58,9.73
49.234181,4.039609,0,-0.61,1.57,9.77
49.234181,4.039609,0,-0.64,1.57,9.57
49.234181,4.039609,0,-0.61,1.59,9.68
49.234181,4.039609,0,-0.62,1.69,9.77
49.234181,4.039609,0,-0.63,1.58,9.68
49.234181,4.039609,0,-0.62,1.68,9.7
49.234181,4.039609,0,-0.61,1.68,9.83
49.234181,4.039609,0,-0.68,1.61,9.73
49.234181,4.039609,0,-0.69,1.6,9.72
49.234181,4.039609,0,-0.65,1.59,9.63
49.234181,4.039609,0,-0.64,1.66,9.72
49.234181,4.039609,0,-0.65,1.63,9.66
49.234181,4.039609,0,-0.66,1.58,9.74
49.234181,4.039609,0,-0.68,1.66,9.7
49.234181,4.039609,0,-0.62,1.7,9.78
49.234181,4.039609,0,-0.61,1.66,9.79
49.234181,4.039609,0,-0.61,1.66,9.66
49.234181,4.039609,0,-0.63,1.61,9.75
49.234181,4.039609,0,-0.65,1.52,9.67
49.234181,4.039609,0,-0.58,1.7,9.69
49.234181,4.039609,0,-0.67,1.57,9.66
49.234181,4.039609,0,-0.66,1.62,9.72
49.234181,4.039609,0,-0.63,1.57,9.71
49.234181,4.039609,0,-0.65,1.61,9.7
49.234181,4.039609,0,-0.64,1.63,9.73
49.234181,4.039609,0,-0.63,1.61,9.7
49.234181,4.039609,0,-0.64,1.59,9.69
49.234181,4.039609,0,-0.6,1.64,9.72
49.234181,4.039609,0,-0.62,1.68,9.73
49.234181,4.039609,0,-0.65,1.63,9.71
49.234181,4.039609,0,-0.65,1.7,9.83
49.234181,4.039609,0,-0.63,1.64,9.68
49.234181,4.039609,0,-0.64,1.64,9.72
49.234181,4.039609,0,-0.66,1.65,9.83
49.234181,4.039609,0,-0.64,1.63,9.72
49.234181,4.039609,0,-0.63,1.61,9.76
49.234181,4.039609,0,-0.64,1.63,9.76
49.234181,4.039609,0,-0.55,1.65,9.73
49.234181,4.039609,0,-0.75,1.64,9.59
49.234181,4.039609,0,-0.69,1.6,9.65
49.234181,4.039609,0,-0.57,1.63,9.75
49.234181,4.039609,0,-0.64,1.62,9.67
49.234181,4.039609,0,-0.64,1.59,9.61
49.234181,4.039609,0,-0.62,1.59,9.6
49.234181,4.039609,0,-0.62,1.63,9.75
49.234181,4.039609,0,-0.59,1.65,9.66
49.234181,4.039609,0,-0.64,1.58,9.68
49.234181,4.039609,0,-0.63,1.59,9.71
49.234181,4.039609,0,-0.68,1.67,9.71
49.234181,4.039609,0,-0.66,1.6,9.74
49.234181,4.039609,0,-0.65,1.6,9.69
49.234181,4.039609,0,-0.62,1.59,9.7
49.234181,4.039609,0,-0.6,1.58,9.76
49.234181,4.039609,0,-0.6,1.62,9.67
49.234181,4.039609,0,-0.66,1.47,9.74
49.234181,4.039609,0,-0.58,1.79,9.8
49.234181,4.039609,0,-0.61,1.64,9.69
49.234181,4.039609,0,-0.57,1.78,9.89
49.234181,4.039609,0,-0.72,1.58,9.57
49.234181,4.039609,0,-0.69,1.6,9.67
49.234181,4.039609,0,-0.62,1.61,9.73
49.234181,4.039609,0,-0.71,1.56,9.7
49.234181,4.039609,0,-0.6,1.59,9.74
49.234181,4.039609,0,-0.65,1.65,9.7
49.234181,4.039609,0,-0.58,1.61,9.86
49.234181,4.039609,0,-0.62,1.6,9.75
49.234181,4.039609,0,-0.66,1.66,9.69
49.234181,4.039609,0,-0.58,1.59,9.78
49.234181,4.039609,0,-0.66,1.56,9.69
49.234181,4.039609,0,-0.65,1.53,9.65
49.234181,4.039609,0,-0.65,1.54,9.63
49.234181,4.039609,0,-0.63,1.64,9.71
49.234181,4.039609,0,-0.63,1.61,9.68
49.234181,4.039609,0,-0.62,1.63,9.73
49.234181,4.039609,0,-0.59,1.71,9.73
49.234181,4.039609,0,-0.65,1.58,9.65
49.234181,4.039609,0,-0.66,1.61,9.75
49.234181,4.039609,0,-0.65,1.6,9.75
49.234181,4.039609,0,-0.63,1.63,9.73
49.234181,4.039609,0,-0.63,1.69,9.86
49.234181,4.039609,0,-0.63,1.58,9.64
49.234181,4.039609,0,-0.64,1.52,9.69
49.234181,4.039609,0,-0.6,1.58,9.7
49.234181,4.039609,0,-0.62,1.64,9.73
49.234181,4.039609,0,-0.63,1.62,9.76
49.234181,4.039609,0,-0.65,1.55,9.62
49.234181,4.039609,0,-0.6,1.65,9.73
49.234181,4.039609,0,-0.66,1.63,9.72
49.234181,4.039609,0,-0.65,1.63,9.71
49.234181,4.039609,0,-0.66,1.6,9.71
49.234181,4.039609,0,-0.64,1.67,9.68
49.234181,4.039609,0,-0.64,1.58,9.75
49.234181,4.039609,0,-0.7,1.6,9.68
49.234181,4.039609,0,-0.61,1.63,9.7
49.234181,4.039609,0,-0.65,1.58,9.69
49.234181,4.039609,0,-0.6,1.62,9.71
49.234181,4.039609,0,-0.66,1.59,9.7
49.234181,4.039609,0,-0.66,1.64,9.71
49.234181,4.039609,0,-0.62,1.63,9.73
49.234181,4.039609,0,-0.63,1.64,9.71
49.234181,4.039609,0,-0.65,1.6,9.7
49.234181,4.039609,0,-0.65,1.63,9.67
49.234181,4.039609,0,-0.62,1.59,9.68
49.234181,4.039609,0,-0.61,1.6,9.68
49.234181,4.039609,0,-0.64,1.64,9.73
49.234181,4.039609,0,-0.64,1.59,9.69
49.234181,4.039609,0,-0.62,1.61,9.71
49.234181,4.039609,0,-0.63,1.59,9.71
49.234181,4.039609,0,-0.64,1.6,9.68
49.234181,4.039609,0,-0.67,1.68,9.67
49.234181,4.039609,0,-0.64,1.54,9.59
49.234181,4.039609,0,-0.66,1.68,9.73
49.234181,4.039609,0,-0.72,1.68,9.7
49.234181,4.039609,0,-0.65,1.64,9.74
49.234181,4.039609,0,-0.58,1.71,9.65
49.234181,4.039609,0,-0.59,1.74,9.61
49.234181,4.039609,0,-0.67,1.66,9.74
49.234181,4.039609,0,-0.57,1.81,9.54
49.234181,4.039609,0,-0.53,1.57,9.35
49.234181,4.039609,0,-0.68,1.4,9.74
49.234181,4.039609,0,-0.65,1.86,9.58
49.234181,4.039609,0,-0.55,2.74,9.61
49.234181,4.039609,0,-0.53,2.7,9.54
49.234181,4.039609,0,-0.61,2.64,9.23
49.234181,4.039609,0,-0.73,2.42,9.32
49.234181,4.039609,0,-0.57,2.41,9.29
49.234181,4.039609,0,-0.79,2.3,9.32
49.234181,4.039609,0,-0.79,2.39,9.18
49.234141,4.03969,3.17,-0.29,2.27,10.76
49.234141,4.03969,3.17,-1.24,1.71,9.75
49.234117,4.039724,3.83,-0.98,2.25,9.29
49.234117,4.039724,3.83,-1.7,1.68,8.83
49.234089,4.039764,4.41,-2.09,1.26,10.76
49.234089,4.039764,4.41,-2.22,1.1,10.12
49.234066,4.039817,4.48,-2.98,1.02,9.42
49.234066,4.039817,4.48,-3.34,1.06,9.27
49.234049,4.039877,4.43,-2.2,1.75,9.92
49.234046,4.039942,4.64,-2.18,1.89,6.88
49.234046,4.039942,4.64,-2.64,1.77,9.7
49.234063,4.040004,4.95,-1.77,1.34,9.17
49.234063,4.040004,4.95,-1.3,1.34,10.41
49.234095,4.040065,5.46,-0.8,1.72,9.39
49.234095,4.040065,5.46,-0.76,1.61,9.4
49.234132,4.040123,5.76,-0.01,1.76,8.79
49.234132,4.040123,5.76,-0.92,1.21,9.25
49.234169,4.040184,5.74,-0.57,1.14,9.5
49.234169,4.040184,5.74,-0.55,0.92,10.26
49.234203,4.040241,5.4,-0.7,1.43,10.25
49.234203,4.040241,5.4,-0.47,1.29,9.67
49.234234,4.040288,5.06,-0.69,1.24,9.09
49.234234,4.040288,5.06,-0.86,1.3,10.01
49.234263,4.040336,4.79,-0.44,1.47,9.97
49.234263,4.040336,4.79,-0.43,1.37,10.01
49.234291,4.040382,4.67,-0.52,1.19,10.5
49.234291,4.040382,4.67,-0.75,0.86,10.16
49.234318,4.040428,4.46,-0.83,1.43,9.88
49.234318,4.040428,4.46,-0.87,1.51,9.84
49.234344,4.040475,4.41,-0.11,1.15,9.5
49.234344,4.040475,4.41,-0.68,1.43,10.18
49.23437,4.04052,4.25,-1.3,1.85,8.22
49.23437,4.04052,4.25,-0.85,1.59,9.64
49.234393,4.040562,4.07,-0.71,1.24,9.82
49.234393,4.040562,4.07,-0.54,1.22,10.05
49.234418,4.040603,3.92,-0.92,0.91,9.39
49.234418,4.040603,3.92,-0.78,1.05,10.41
49.234444,4.040646,3.62,-1.38,1.12,9.84
49.234444,4.040646,3.62,-1.01,0.94,10.34
49.234467,4.040682,3.35,-0.48,1.3,9.27
49.234467,4.040682,3.35,-0.29,1.58,9.42
49.234488,4.040719,3.38,-0.2,1.64,10.63
49.234488,4.040719,3.38,-0.86,1.49,9.8
49.234509,4.040755,3.51,-0.74,1.31,9.56
49.234509,4.040755,3.51,-0.76,1.32,9.27
49.234531,4.04079,3.48,-0.74,1.84,9.36
49.234531,4.04079,3.48,-0.46,1.89,9.73
49.23455,4.040821,3.69,-0.57,1.5,9.26
49.23455,4.040821,3.69,-0.53,1.66,9.69
49.234571,4.040858,3.93,-0.9,1.83,9.49
49.234571,4.040858,3.93,-0.55,2.15,10.18
49.234595,4.040899,4.37,-0.65,2.16,9.47
49.234623,4.040948,5.02,-0.63,2.21,9.73
49.234623,4.040948,5.02,-0.38,2.03,9.91
49.234654,4.041005,5.74,-0.68,2.61,8.98
49.234654,4.041005,5.74,-0.11,3.4,9.12
49.234691,4.041073,7.01,-0.72,3.08,10.52
49.234691,4.041073,7.01,-0.55,2.58,9.68
49.23474,4.041158,8.53,-0.32,2.26,9.06
49.23474,4.041158,8.53,0.01,2.26,8.85
49.234798,4.04126,9.66,-0.82,2.72,10.01
49.234798,4.04126,9.66,-0.24,2.23,9.33
49.234859,4.041367,10.55,-0.88,2.63,9.51
49.234859,4.041367,10.55,-0.39,2.97,10.41
49.234926,4.041481,11.33,-0.24,2.19,10.42
49.234926,4.041481,11.33,-0.2,2.09,7.81
49.234996,4.041603,11.9,0.33,2.72,10.01
49.234996,4.041603,11.9,-0.04,1.23,10.23
49.23507,4.041734,12.79,-0.51,2.7,9.32
49.23507,4.041734,12.79,0.06,2.37,9.28
49.235145,4.041874,13.52,-0.51,2.65,9.93
49.235145,4.041874,13.52,-0.67,2.87,10.85
49.235225,4.042023,14.55,-0.86,1.8,11.37
49.235225,4.042023,14.55,-0.33,2.87,6.6
49.23531,4.042179,15.24,-0.52,2,9.83
49.23531,4.042179,15.24,-1.13,2.16,9.03
49.2354,4.042343,15.96,-0.63,2.35,11.05
49.2354,4.042343,15.96,-0.44,2.73,9.35
49.235495,4.042513,16.62,-0.22,2.4,10.64
49.235495,4.042513,16.62,-0.39,1.47,8.28
49.235596,4.042689,17,-1.47,2.28,10.42
49.235596,4.042689,17,-1.15,1.75,10.65
49.235702,4.042862,17.34,-1.18,1.84,8.52
49.235702,4.042862,17.34,-0.99,1.39,7.73
49.235816,4.043025,17.76,-0.86,2.22,10.52
49.235816,4.043025,17.76,-1.57,1.56,11.66
49.235941,4.043184,18.18,-0.88,1.31,8.91
49.235941,4.043184,18.18,-0.71,2.08,11.6
49.236072,4.043335,18.19,-0.96,1.57,9.77
49.236072,4.043335,18.19,-1.23,1.64,11.21
49.236207,4.043481,18.37,-1.05,1.89,10.82
49.236207,4.043481,18.37,-1.16,1.24,7.65
49.236348,4.043627,18.51,-0.9,1.28,8.5
49.236348,4.043627,18.51,-1.09,1.07,10.21
49.236491,4.043759,18.44,-1,1.16,9.85
49.236491,4.043759,18.44,-0.44,0.86,10.32
49.236638,4.043886,18.47,-0.94,1.28,10.79
49.236799,4.044,18.52,-1.01,0.96,9.24
49.236799,4.044,18.52,-1.35,1.36,10.81
49.236956,4.044101,18.31,-0.4,0.88,8.72
49.236956,4.044101,18.31,0.12,1.74,10.34
49.237108,4.044191,17.99,-0.18,1.51,9.44
49.237108,4.044191,17.99,0.33,1.11,11.52
49.237261,4.044282,17.64,-0.08,1.87,8.63
49.237261,4.044282,17.64,-0.11,0.87,8.85
49.237408,4.044372,17.18,-0.19,1.13,8.46
49.237408,4.044372,17.18,0.66,1.63,9.03
49.237549,4.044458,16.7,-1.05,0.6,9.38
49.237549,4.044458,16.7,-0.61,1.01,11.46
49.237686,4.044539,16.24,-0.26,1.73,9.5
49.237686,4.044539,16.24,-0.79,1.27,10.04
49.23782,4.044618,15.68,-0.37,1.87,11.35
49.23782,4.044618,15.68,-0.4,1.25,9.14
49.237947,4.044696,15.38,-0.15,1.31,8.84
49.237947,4.044696,15.38,-0.46,1.51,10.27
49.238067,4.044771,15.12,-0.77,1.49,10.22
49.238067,4.044771,15.12,-0.03,0.94,8.53
49.23819,4.044849,14.83,0.42,1,6.94
49.23819,4.044849,14.83,-0.93,-0.49,8.96
49.238306,4.044922,13.79,-0.58,0.22,11.5
49.238306,4.044922,13.79,-0.98,0.1,10.09
49.238417,4.04499,12.68,-0.16,0.63,10.29
49.238417,4.04499,12.68,-1.58,0.92,9.47
49.238524,4.04505,11.68,-1.97,-0.02,8.72
49.238524,4.04505,11.68,-1.73,0.34,10.25
49.23862,4.045093,10.53,-1.44,0,8.23
49.23862,4.045093,10.53,-0.48,0.63,9.71
49.238707,4.045121,9.53,-1.16,0.89,10.17
49.238707,4.045121,9.53,-0.98,-0.18,9.59
49.23879,4.045139,8.3,-0.61,-0.11,10.03
49.23879,4.045139,8.3,0.34,-0.16,9.82
49.238861,4.045148,6.8,-0.57,-0.29,9.96
49.238861,4.045148,6.8,-0.68,-0.5,9.42
49.238914,4.045152,4.91,0.01,-0.26,9.62
49.238914,4.045152,4.91,-0.4,-0.23,10.52
49.238953,4.04515,3.4,-0.12,-0.5,9.98
49.238953,4.04515,3.4,-0.11,-0.36,9.64
49.238953,4.04515,0,-0.14,0,10.07
49.238953,4.04515,0,-0.12,0.88,9.82
49.238953,4.04515,0,-0.11,1.4,9.84
49.238953,4.04515,0,-0.18,1.35,9.95
49.238953,4.04515,0,-0.16,1.56,9.68
49.238953,4.04515,0,-0.18,1.7,9.62
49.238953,4.04515,0,-0.08,1.74,9.73
49.238953,4.04515,0,-0.02,2.24,9.55
49.238953,4.04515,0,-0.3,2.61,9.37
49.238953,4.04515,0,-0.06,2.39,9.8
49.238953,4.04515,0,-0.26,2.39,9.37
49.239014,4.045113,2.8,-0.35,2.39,10.24
49.239014,4.045113,2.8,-0.18,2.03,10.11
49.239047,4.04511,3.69,-0.28,2.13,10.18
49.239047,4.04511,3.69,0.08,1.95,10.39
49.239079,4.045106,4.49,-0.14,1.93,10.14
49.239079,4.045106,4.49,-0.37,2.05,9.58
49.23912,4.045103,5.22,-0.35,1.71,8.9
49.23912,4.045103,5.22,-0.35,2.01,9.74
49.239163,4.045095,5.77,-0.27,1.63,9.5
49.239163,4.045095,5.77,-0.67,2.08,9.41
49.239217,4.045088,6.44,-0.02,1.91,9.65
49.239217,4.045088,6.44,-0.34,1.87,10.1
49.239277,4.045078,7,-0.28,1.75,9.15
49.239277,4.045078,7,-0.11,1.75,10.07
49.239347,4.045066,7.48,-0.05,1.59,9.27
49.239347,4.045066,7.48,-0.06,1.19,11.09
49.239418,4.045048,7.81,-0.02,1.32,9.29
49.239418,4.045048,7.81,0.1,0.9,9.91
49.239491,4.045031,7.49,0.05,0.11,10.1
49.239491,4.045031,7.49,0.16,0.75,10.14
49.239558,4.045017,6.97,0.43,0.5,10.25
49.239558,4.045017,6.97,0.18,-0.45,10.05
49.239617,4.045008,5.71,0.13,0.17,9.3
49.239617,4.045008,5.71,-0.01,-0.36,10.33
49.239661,4.045005,4.04,0.03,-0.12,10.19
49.239661,4.045005,4.04,-0.32,-0.26,10.09
49.239661,4.045005,0,-0.21,-0.38,9.58
49.239661,4.045005,0,-0.21,0.82,9.96
49.239661,4.045005,0,-0.2,0.99,9.81
49.239661,4.045005,0,-0.37,0.66,9.82
49.239661,4.045005,0,-0.27,0.88,9.68
49.239661,4.045005,0,-0.31,1.33,9.78
49.239661,4.045005,0,-0.14,1.28,9.79
49.239661,4.045005,0,-0.07,1.64,9.97
49.239661,4.045005,0,-0.15,1.36,9.72
49.239661,4.045005,0,-0.2,1.38,9.78
49.239661,4.045005,0,-0.17,1.35,9.71
49.239661,4.045005,0,-0.18,1.36,9.79
49.239661,4.045005,0,-0.26,1.25,9.73
49.239661,4.045005,0,-0.17,1.35,9.78
49.239661,4.045005,0,-0.12,1.27,9.62
49.239661,4.045005,0,-0.22,1.38,9.76
49.239661,4.045005,0,-0.22,1.35,9.83
49.239661,4.045005,0,-0.22,1.36,9.75
49.239661,4.045005,0,-0.21,1.31,9.78
49.239661,4.045005,0,-0.21,1.19,9.52
49.239661,4.045005,0,-0.21,1.32,9.72
49.239661,4.045005,0,-0.17,1.35,9.76
49.239661,4.045005,0,-0.23,1.32,9.74
49.239661,4.045005,0,-0.19,1.31,9.75
49.239661,4.045005,0,-0.11,1.37,9.73
49.239661,4.045005,0,-0.22,1.26,9.83
49.239661,4.045005,0,-0.17,1.32,9.55
49.239661,4.045005,0,-0.18,1.31,9.69
49.239661,4.045005,0,-0.21,1.31,9.76
49.239661,4.045005,0,-0.21,1.33,9.75
49.239661,4.045005,0,-0.21,1.36,9.76
49.239661,4.045005,0,-0.22,1.38,9.69
49.239661,4.045005,0,-0.17,1.34,9.68
49.239661,4.045005,0,-0.21,1.33,9.79
49.239661,4.045005,0,-0.18,1.36,9.74
49.239661,4.045005,0,-0.2,1.35,9.75
49.239661,4.045005,0,-0.13,1.47,9.67
49.239661,4.045005,0,-0.24,1.41,9.78
49.239661,4.045005,0,-0.18,1.75,9.62
49.239661,4.045005,0,-0.17,1.72,9.61
49.239661,4.045005,0,-0.23,1.92,9.71
49.239661,4.045005,0,-0.11,2.36,9.55
49.239661,4.045005,0,-0.07,2.53,9.61
49.239661,4.045005,0,-0.12,2.42,9.75
49.239661,4.045005,0,-0.04,2.24,9.13
49.239661,4.045005,0,-0.16,2.18,9.84
49.239661,4.045005,0,-0.03,2.12,9.86
49.239754,4.04501,3.4,0.23,2.16,9.78
49.239754,4.04501,3.4,-0.05,1.92,10.09
49.239787,4.045017,3.84,-0.15,2.15,9.91
49.239828,4.045031,3.89,-0.22,1.88,9.97
49.239828,4.045031,3.89,-0.34,2.03,9.06
49.239871,4.045043,4.73,-0.03,2.13,7.81
49.239871,4.045043,4.73,-0.82,1.94,9.91
49.239917,4.045064,5.26,-0.96,1.84,10.01
49.239917,4.045064,5.26,-1.04,1.43,9.9
49.239967,4.045083,5.74,-0.47,1.13,9.72
49.239967,4.045083,5.74,-0.49,1.01,9.11
49.240022,4.045097,5.68,-0.39,0.73,10.69
49.240022,4.045097,5.68,-0.46,0.19,9.84
49.240072,4.045097,5.15,-0.45,1.13,9.4
49.240072,4.045097,5.15,-0.08,0.76,9.37
49.240116,4.045091,4.7,-0.34,0.89,10.16
49.240116,4.045091,4.7,-0.35,0.81,9.87
49.240149,4.045085,4.28,-0.09,1.07,9.62
49.240149,4.045085,4.28,-0.13,0.99,9.55
49.240185,4.045076,4.07,-0.05,1.02,9.36
49.240185,4.045076,4.07,0.11,0.47,9.65
49.240222,4.045066,3.62,-0.24,0.2,10.35
49.240222,4.045066,3.62,-0.22,-0.12,10.11
49.240222,4.045066,0,0.01,-0.16,9.95
49.240222,4.045066,0,-0.21,0.43,9.83
49.240222,4.045066,0,-0.12,0.91,9.8
49.240222,4.045066,0,-0.13,1.14,9.91
49.240222,4.045066,0,-0.07,1.09,9.91
49.240222,4.045066,0,-0.25,1.41,9.78
49.240222,4.045066,0,-0.2,1.36,9.68
49.240222,4.045066,0,-0.17,1.39,9.73
49.240222,4.045066,0,-0.19,1.36,9.77
49.240222,4.045066,0,-0.18,1.36,9.74
49.240222,4.045066,0,-0.11,1.39,9.82
49.240222,4.045066,0,-0.26,1.36,9.72
49.240222,4.045066,0,-0.22,1.38,9.84
49.240222,4.045066,0,-0.13,1.39,9.67
49.240222,4.045066,0,-0.15,1.41,9.75
49.240222,4.045066,0,-0.16,1.35,9.74
49.240222,4.045066,0,-0.19,1.36,9.78
49.240222,4.045066,0,-0.16,1.38,9.76
49.240222,4.045066,0,-0.17,1.38,9.72
49.240222,4.045066,0,-0.17,1.37,9.8
49.240222,4.045066,0,-0.17,1.38,9.76
49.240222,4.045066,0,-0.17,1.37,9.75
49.240222,4.045066,0,-0.15,1.38,9.77
49.240222,4.045066,0,-0.15,1.37,9.78
49.240222,4.045066,0,-0.18,1.4,9.73
49.240222,4.045066,0,-0.2,1.39,9.73
49.240222,4.045066,0,-0.17,1.45,9.78
49.240222,4.045066,0,-0.17,1.36,9.74
49.240222,4.045066,0,-0.17,1.34,9.78
49.240222,4.045066,0,-0.13,1.35,9.78
49.240222,4.045066,0,-0.19,1.36,9.77
49.240222,4.045066,0,-0.19,1.37,9.77
49.240222,4.045066,0,-0.16,1.38,9.74
49.240222,4.045066,0,-0.19,1.36,9.78
49.240222,4.045066,0,-0.16,1.36,9.8
49.240222,4.045066,0,-0.2,1.34,9.79
49.240222,4.045066,0,-0.2,1.38,9.74
49.240222,4.045066,0,-0.17,1.33,9.73
49.240222,4.045066,0,-0.18,1.35,9.74
49.240222,4.045066,0,-0.17,1.4,9.77
49.240222,4.045066,0,-0.15,1.39,9.77
49.240222,4.045066,0,-0.22,1.22,9.76
49.240222,4.045066,0,-0.17,1.98,9.55
49.240222,4.045066,0,-0.09,2.62,9.47
49.240222,4.045066,0,-0.23,2.74,9.33
49.240222,4.045066,0,-0.09,2.77,9.61
49.240222,4.045066,0,0.01,2.74,9.44
49.240222,4.045066,0,0.2,2.49,9.61
49.240222,4.045066,0,-0.51,2.89,9.7
49.240325,4.04505,3.78,0.19,2.84,8.5
49.240325,4.04505,3.78,1.01,2.06,9.09
49.240371,4.045048,4.97,0.89,2.43,9.96
49.240371,4.045048,4.97,1.02,2.69,10.54
49.240419,4.045049,6.18,1.06,2.72,9.76
49.240419,4.045049,6.18,-0.55,3.16,9.92
49.240473,4.045054,7.14,1.12,3.75,9.07
49.240473,4.045054,7.14,0.71,4.14,12.9
49.240539,4.045065,8.16,-0.19,2.65,9.51
49.240539,4.045065,8.16,0.85,3.75,10.74
49.240616,4.045085,9.14,1.92,1.86,11.65
49.240616,4.045085,9.14,0.91,1.5,10.72
49.240698,4.045112,9.95,1.95,0.42,6.67
49.240698,4.045112,9.95,-0.44,1.44,7.68
49.240789,4.045157,10.16,0.72,2.32,8.08
49.24088,4.045226,11.02,-0.46,2.25,11.18
49.24088,4.045226,11.02,-0.53,1.73,10.43
49.240974,4.045313,11.38,-0.67,0.81,10.22
49.240974,4.045313,11.38,-1.72,0.59,9.01
49.241067,4.045396,11.29,-1.79,0.69,9.57
49.241067,4.045396,11.29,-0.74,0.98,10.86
49.241157,4.045464,11.02,-0.59,0.74,10.75
49.241157,4.045464,11.02,0.57,0.87,8.51
49.24125,4.045526,10.77,1.09,0.49,10.6
49.24125,4.045526,10.77,1.62,1.13,9.44
49.24134,4.045588,10.64,2.8,1.51,11.35
49.24134,4.045588,10.64,2.03,1.85,9.64
49.241414,4.045685,10.34,2.51,2.02,8.33
49.241414,4.045685,10.34,1.65,2.12,10.44
49.241469,4.045819,11.12,0.82,2.58,9.51
49.241469,4.045819,11.12,0.13,2.23,10.09
49.24151,4.045971,11.69,-0.28,2.65,9.44
49.24151,4.045971,11.69,-1.09,2.49,10.38
49.241549,4.046127,12.2,-0.83,2.65,10.4
49.241549,4.046127,12.2,-0.66,2.01,9.34
49.241592,4.04629,12.72,-1.58,2.1,9.51
49.241592,4.04629,12.72,-1.9,1.75,10.05
49.241649,4.046445,12.93,-1.09,1.63,8.06
49.241649,4.046445,12.93,-1.85,1.58,9.35
49.241704,4.046601,13.3,-1.91,1.18,9.31
49.241704,4.046601,13.3,-2.4,0.85,9.83
49.241766,4.046747,13.04,-0.93,1.99,8.91
49.241766,4.046747,13.04,-0.35,1.46,8.64
49.241843,4.046873,13.01,-0.23,1.79,8.76
49.241843,4.046873,13.01,0.02,1.72,9.97
49.241925,4.046991,13.01,-0.16,1.27,11.63
49.241925,4.046991,13.01,-0.4,1.11,8.6
49.242007,4.047108,12.76,-0.68,1.86,9.24
49.242007,4.047108,12.76,-0.4,1.63,9.29
49.242089,4.047224,12.53,-0.46,1.06,10.94
49.242089,4.047224,12.53,-0.69,1.81,11.03
49.242169,4.04734,12.45,-0.61,1.4,8.19
49.242169,4.04734,12.45,-0.31,1.4,9.97
49.242251,4.047459,12.36,-0.87,1.45,9.48
49.242251,4.047459,12.36,-0.99,1.78,10.73
49.242333,4.047576,12.26,-0.54,1.32,9.28
49.242414,4.047691,12.2,-0.91,1.29,9.96
49.242414,4.047691,12.2,-0.19,1.59,7.28
49.242494,4.047805,12.09,-0.91,1.58,10
49.242494,4.047805,12.09,-0.57,1.83,9.98
49.242568,4.047911,11.98,-1.01,1.23,9.48
49.242568,4.047911,11.98,-0.73,1.89,9.29
49.242651,4.048016,11.95,-1.1,1.75,8.96
49.242651,4.048016,11.95,-0.71,1.6,9.7
49.242736,4.048116,11.89,-1.24,1.47,9.54
49.242736,4.048116,11.89,-1.17,1.63,10.22
49.242824,4.048212,11.73,-0.53,1.21,11.38
49.242824,4.048212,11.73,-0.63,1.31,9.69
49.24291,4.048304,11.47,-0.89,0.87,10.43
49.24291,4.048304,11.47,-0.48,2.02,9.28
49.242994,4.048396,11.22,-0.43,1.84,9.95
49.242994,4.048396,11.22,-0.7,1.47,9.45
49.243076,4.048487,10.9,-1.08,0.45,9.42
49.243076,4.048487,10.9,-0.36,1.14,10.82
49.243154,4.048576,10.45,-0.21,0.96,8.22
49.243154,4.048576,10.45,-0.8,0.65,10.75
49.243228,4.048658,9.8,0.24,1.12,10.1
49.243228,4.048658,9.8,-0.92,1.22,9.11
49.243298,4.048736,9.2,-0.3,1.06,9.41
49.243298,4.048736,9.2,-0.29,0.26,8.64
49.243362,4.048811,8.56,-1.04,0.03,9.39
49.243362,4.048811,8.56,-0.5,0.21,9.62
49.24342,4.048877,7.26,-0.56,0.38,10.61
49.24342,4.048877,7.26,-0.15,0.97,9.73
49.243468,4.048934,6.22,-0.57,0.8,9.67
49.243468,4.048934,6.22,-0.55,0.83,10.32
49.24351,4.048983,5.52,-0.4,1.22,9.76
49.24351,4.048983,5.52,-0.68,1.07,9.8
49.243547,4.049026,5.01,-0.52,1.31,10.22
49.243547,4.049026,5.01,-0.61,1.24,10.03
49.24358,4.049066,4.6,-0.39,1.04,9.86
49.24358,4.049066,4.6,-0.62,1.34,9.74
49.243612,4.049103,4.2,-0.69,0.99,9.62
49.243612,4.049103,4.2,-0.69,1.17,9.97
49.243638,4.049135,3.66,-0.43,1.06,10.2
49.243638,4.049135,3.66,-0.33,1.36,9.97
49.243662,4.049162,3.04,-0.41,1.2,9.78
49.243662,4.049162,3.04,-0.49,1.08,10.07
49.243683,4.049185,2.65,-0.66,0.65,10.02
49.2437,4.049203,2.04,-0.69,0.69,9.7
49.2437,4.049203,2.04,-0.74,0.95,9.79
49.243712,4.049216,1.21,-0.66,1.12,9.37
49.243712,4.049216,1.21,-0.74,1.05,10.19
49.243718,4.049222,0.87,-0.58,1.23,9.56
49.243718,4.049222,0.87,-0.6,1.36,9.58
49.243718,4.049222,0,-0.63,1.5,9.74
49.243718,4.049222,0,-0.7,1.33,9.93
49.243718,4.049222,0,-0.77,1.2,9.73
49.243718,4.049222,0,-0.57,1.69,9.57
49.243718,4.049222,0,-0.66,1.59,9.56
49.243718,4.049222,0,-0.62,1.61,9.67
49.243718,4.049222,0,-0.58,1.72,9.7
49.243718,4.049222,0,-0.59,1.67,9.61
49.243718,4.049222,0,-0.63,1.63,9.72
49.243718,4.049222,0,-0.64,1.67,9.63
49.243718,4.049222,0,-0.62,1.64,9.74
49.243718,4.049222,0,-0.62,1.68,9.68
49.243718,4.049222,0,-0.62,1.61,9.7
49.243718,4.049222,0,-0.62,1.63,9.68
49.243718,4.049222,0,-0.65,1.66,9.67
49.243718,4.049222,0,-0.68,1.62,9.72
49.243718,4.049222,0,-0.61,1.7,9.78
49.243718,4.049222,0,-0.65,1.63,9.73
49.243718,4.049222,0,-0.62,1.65,9.72
49.243718,4.049222,0,-0.61,1.64,9.68
49.243718,4.049222,0,-0.6,1.63,9.73
49.243718,4.049222,0,-0.66,1.69,9.7
49.243718,4.049222,0,-0.61,1.6,9.65
49.243718,4.049222,0,-0.66,1.73,9.74
49.243718,4.049222,0,-0.6,1.72,9.82
49.243718,4.049222,0,-0.74,1.57,9.64
49.243718,4.049222,0,-0.65,1.64,9.69
49.243718,4.049222,0,-0.64,1.65,9.72
49.243718,4.049222,0,-0.62,1.64,9.7
49.243718,4.049222,0,-0.66,1.66,9.7
49.243718,4.049222,0,-0.65,1.68,9.65
49.243718,4.049222,0,-0.64,1.78,9.73
49.243718,4.049222,0,-0.64,1.62,9.73
49.243718,4.049222,0,-0.6,1.67,9.67
49.243718,4.049222,0,-0.64,1.65,9.7
49.243718,4.049222,0,-0.59,1.64,9.68
49.243718,4.049222,0,-0.62,1.65,9.7
49.243718,4.049222,0,-0.62,1.64,9.72
49.243718,4.049222,0,-0.65,1.66,9.7
49.243718,4.049222,0,-0.61,1.66,9.74
49.243718,4.049222,0,-0.61,1.63,9.73
49.243718,4.049222,0,-0.57,1.66,9.75
49.243718,4.049222,0,-0.66,1.66,9.7
49.243718,4.049222,0,-0.59,1.65,9.68
49.243718,4.049222,0,-0.62,1.68,9.66
49.243718,4.049222,0,-0.62,1.65,9.69
49.243718,4.049222,0,-0.65,1.67,9.73
49.243718,4.049222,0,-0.67,1.6,9.69
49.243718,4.049222,0,-0.6,1.66,9.72
49.243718,4.049222,0,-0.59,1.66,9.72
49.243718,4.049222,0,-0.63,1.64,9.71
49.243718,4.049222,0,-0.64,1.65,9.72
49.243718,4.049222,0,-0.64,1.66,9.72
49.243718,4.049222,0,-0.64,1.64,9.73
49.243718,4.049222,0,-0.59,1.73,9.74
49.243718,4.049222,0,-0.61,1.62,9.69
49.243718,4.049222,0,-0.59,1.66,9.7
49.243718,4.049222,0,-0.68,1.66,9.79
49.243718,4.049222,0,-0.65,1.65,9.75
49.243718,4.049222,0,-0.62,1.65,9.73
49.243718,4.049222,0,-0.65,1.73,9.71
49.243718,4.049222,0,-0.58,1.68,9.76
49.243718,4.049222,0,-0.65,1.65,9.71
49.243718,4.049222,0,-0.62,1.66,9.67
49.243718,4.049222,0,-0.65,1.63,9.71
49.243718,4.049222,0,-0.58,1.67,9.72
49.243718,4.049222,0,-0.65,1.62,9.71
49.243718,4.049222,0,-0.61,1.7,9.77
49.243718,4.049222,0,-0.61,1.66,9.7
49.243718,4.049222,0,-0.65,1.66,9.68
49.243718,4.049222,0,-0.61,1.68,9.67
49.243718,4.049222,0,-0.63,1.67,9.72
49.243718,4.049222,0,-0.61,1.64,9.7
49.243718,4.049222,0,-0.63,1.64,9.72
49.243718,4.049222,0,-0.66,1.66,9.72
49.243718,4.049222,0,-0.62,1.66,9.69
49.243718,4.049222,0,-0.6,1.77,9.73
49.243718,4.049222,0,-0.62,1.65,9.7
49.243718,4.049222,0,-0.61,1.67,9.71
49.243718,4.049222,0,-0.64,1.68,9.7
49.243718,4.049222,0,-0.63,1.66,9.68
49.243718,4.049222,0,-0.64,1.64,9.74
49.243718,4.049222,0,-0.63,1.68,9.73
49.243718,4.049222,0,-0.61,1.66,9.69
49.243718,4.049222,0,-0.65,1.67,9.69
49.243718,4.049222,0,-0.63,1.64,9.7
49.243718,4.049222,0,-0.6,1.72,9.78
49.243718,4.049222,0,-0.63,1.67,9.72
49.243718,4.049222,0,-0.63,1.63,9.69
49.243718,4.049222,0,-0.62,1.7,9.7
49.243718,4.049222,0,-0.63,1.65,9.66
49.243718,4.049222,0,-0.64,1.67,9.71
49.243718,4.049222,0,-0.61,1.74,9.78
49.243718,4.049222,0,-0.67,1.62,9.67
49.243718,4.049222,0,-0.62,1.64,9.71
49.243718,4.049222,0,-0.63,1.78,9.82
49.243718,4.049222,0,-0.64,1.67,9.65
49.243718,4.049222,0,-0.62,1.65,9.64
49.243718,4.049222,0,-0.6,1.67,9.7
49.243718,4.049222,0,-0.65,1.65,9.71
49.243718,4.049222,0,-0.63,1.67,9.72
49.243718,4.049222,0,-0.63,1.65,9.72
49.243718,4.049222,0,-0.65,1.64,9.7
49.243718,4.049222,0,-0.64,1.64,9.64
49.243718,4.049222,0,-0.62,1.7,9.72
49.243718,4.049222,0,-0.64,1.59,9.67
49.243718,4.049222,0,-0.64,1.69,9.7
49.243718,4.049222,0,-0.61,1.65,9.69
49.243718,4.049222,0,-0.57,1.86,9.69
49.243718,4.049222,0,-0.64,1.8,9.56
49.243718,4.049222,0,-0.63,2.15,9.67
49.243718,4.049222,0,-0.57,2.83,9.55
49.243718,4.049222,0,-0.68,2.72,9.89
49.243718,4.049222,0,-0.43,2.7,9.7
49.243733,4.049232,0.94,-0.63,2.7,9.41
49.243733,4.049232,0.94,-0.86,2.51,10.31
49.243748,4.049247,2.78,-0.43,2.7,9.1
49.243748,4.049247,2.78,-0.92,2.74,9.25
49.243774,4.049275,3.91,-0.36,2.76,8.75
49.243774,4.049275,3.91,-1.08,2.94,9.86
49.243807,4.049312,4.94,-0.13,1.98,10.74
49.243847,4.049357,5.9,0.03,2.52,8.8
49.243847,4.049357,5.9,0.07,2.69,10.32
49.243891,4.049412,6.84,-0.99,2.29,8.53
49.243891,4.049412,6.84,-0.59,2.21,9.15
49.24394,4.049477,7.68,0.1,1.74,9.02
49.24394,4.049477,7.68,-0.37,2.12,9.78
49.243997,4.049547,8.09,-0.14,2.04,9.32
49.243997,4.049547,8.09,0.35,2.03,10.29
49.244057,4.049621,8.42,0.03,1.83,9.57
49.244057,4.049621,8.42,0.52,1.11,9.8
49.244116,4.049697,8.27,0.31,1.24,8.77
49.244116,4.049697,8.27,0.81,1.94,11.35
49.244171,4.049773,8.02,-0.39,1.74,9.14
49.244171,4.049773,8.02,2.48,1.04,8.78
49.244225,4.049855,8.14,-0.64,2.23,9.3
49.244225,4.049855,8.14,0.19,1.78,8
49.244273,4.049949,8.46,-1.96,1.49,8.12
49.244273,4.049949,8.46,0.97,4.6,10.92
49.244313,4.050062,9,-1.25,0.89,12.41
49.244313,4.050062,9,-0.06,2.38,10.05
49.244349,4.050179,9.15,-0.3,2.49,10.03
49.244349,4.050179,9.15,-0.6,2.06,7.89
49.244383,4.050298,9.7,-1.41,2.48,8.73
49.244383,4.050298,9.7,-0.67,1.75,11.47
49.244415,4.050429,10.14,-1.11,2.23,9.2
49.244415,4.050429,10.14,-1.4,1.43,9.83
49.244444,4.050566,10.42,-2.54,0.92,4.31
49.244444,4.050566,10.42,-1.78,1.4,9.46
49.244473,4.050708,10.61,-1.58,1.54,9.07
49.244473,4.050708,10.61,-1.05,1.87,10.74
49.244505,4.05085,10.72,-0.91,1.55,9.78
49.244505,4.05085,10.72,-0.19,1.17,8.99
49.244538,4.05099,10.61,-0.59,1.46,11.1
49.244538,4.05099,10.61,0.72,1.7,8.83
49.244568,4.051125,10.42,2.25,1.64,13.67
49.244568,4.051125,10.42,0.78,1.31,11.42
49.244594,4.051262,10.39,-0.59,0.5,7.27
49.244613,4.0514,10.23,-0.48,1.58,9.98
49.244613,4.0514,10.23,-0.01,0.62,8.63
49.244621,4.051549,10.05,-1.27,1.23,9.35
49.244621,4.051549,10.05,-1.25,1.47,9.55
49.244632,4.051688,10.05,-0.01,1.64,10.93
49.244632,4.051688,10.05,0.34,1.9,8.54
49.244643,4.051825,10.15,-1.27,2.04,11.58
49.244643,4.051825,10.15,-0.34,1.73,9.78
49.244652,4.05196,10.21,-0.75,1.5,10.36
49.244652,4.05196,10.21,-0.71,1.3,8.79
49.24466,4.052098,10.2,-1.01,2.04,10.98
49.24466,4.052098,10.2,-0.82,2.17,10.02
49.244667,4.052234,10.47,-0.3,1.62,10.31
49.244667,4.052234,10.47,-0.73,2.15,10.25
49.244678,4.052376,10.52,0.03,1.5,10.47
49.244678,4.052376,10.52,-0.81,1.11,10.57
49.244691,4.05252,10.4,1.22,2.4,9.76
49.244691,4.05252,10.4,0.12,1.11,10.27
49.244706,4.052662,10.41,-0.94,1.35,9.6
49.244706,4.052662,10.41,-0.05,1.81,10.44
49.244719,4.052807,10.46,-0.16,2.16,9.29
49.244719,4.052807,10.46,0.11,2.51,11.36
49.244731,4.052951,10.59,-0.71,1.7,8.62
49.244731,4.052951,10.59,0.41,2.06,9.94
49.244745,4.0531,10.57,-1.3,1.62,10.07
49.244745,4.0531,10.57,-0.3,0.57,8.95
49.244759,4.053246,10.65,-1.45,2.57,9
49.244759,4.053246,10.65,-0.19,2.42,9.84
49.244772,4.053394,10.66,-1.37,-0.16,7.04
49.244772,4.053394,10.66,-1.54,0.42,6.79
49.244785,4.05354,10.48,0.17,3.1,8.41
49.244785,4.05354,10.48,-0.36,1.58,10.78
49.244798,4.053681,10.35,-1.12,1.28,8.41
49.244798,4.053681,10.35,0.08,0.61,10.03
49.244813,4.053819,10.09,-0.99,1.23,9.06
49.244813,4.053819,10.09,-1.25,0.97,8.98
49.24483,4.053954,9.68,-0.53,1.33,11.59
49.24483,4.053954,9.68,-1.02,0.58,10.88
49.244847,4.054078,8.93,-0.27,1.01,8.99
49.244847,4.054078,8.93,-0.16,0.79,9.38
49.244865,4.054193,8.28,-0.67,0.23,11.74
49.244865,4.054193,8.28,1.33,1.28,8.46
49.244881,4.054299,7.65,1.27,0.79,8.68
49.244898,4.054398,7.07,0.26,0.83,10.93
49.244898,4.054398,7.07,1.12,0.75,8.17
49.244912,4.054483,6.05,1.05,0.85,10.81
49.244912,4.054483,6.05,0.14,0.72,9.96
49.244922,4.054562,5.08,0.08,0.91,10
49.244922,4.054562,5.08,0.14,1.05,9.22
49.244929,4.05463,4.45,0.15,0.88,9.71
49.244929,4.05463,4.45,-0.13,1.26,10.09
49.244935,4.054688,3.8,-0.05,1.29,9.87
49.244935,4.054688,3.8,-0.03,1.18,10.04
49.24494,4.054736,3.28,-0.03,1.17,10.01
49.24494,4.054736,3.28,-0.11,1.23,10.51
49.244943,4.054776,2.89,-0.02,1.32,9.49
49.244943,4.054776,2.89,0.08,1.44,9.79
49.244948,4.05481,2.53,-0.06,1.13,10
49.244948,4.05481,2.53,0.02,1.27,8.6
49.244952,4.054839,2.21,-0.06,0.98,10.01
49.244952,4.054839,2.21,0.09,0.68,9.96
49.244954,4.054864,1.4,-0.35,0.9,9.84
49.244954,4.054864,1.4,-0.19,0.88,9.76
49.244954,4.054864,0,-0.16,1.02,9.91
49.244954,4.054864,0,-0.11,1.02,9.81
49.244954,4.054864,0,-0.06,1.63,10.03
49.244954,4.054864,0,-0.08,1.64,9.66
49.244954,4.054864,0,-0.09,1.59,9.74
49.244954,4.054864,0,-0.09,1.6,9.77
49.244954,4.054864,0,-0.05,1.65,9.72
49.244954,4.054864,0,-0.07,1.62,9.73
49.244954,4.054864,0,-0.09,1.63,9.7
49.244954,4.054864,0,-0.09,1.59,9.7
49.244954,4.054864,0,-0.06,1.6,9.77
49.244954,4.054864,0,-0.11,1.62,9.73
49.244954,4.054864,0,-0.09,1.6,9.77
49.244954,4.054864,0,-0.09,1.61,9.73
49.244954,4.054864,0,-0.14,1.64,9.71
49.244954,4.054864,0,-0.04,1.6,9.78
49.244954,4.054864,0,-0.08,1.63,9.73
49.244954,4.054864,0,-0.06,1.57,9.77
49.244954,4.054864,0,-0.1,1.6,9.73
49.244954,4.054864,0,-0.06,1.6,9.76
49.244954,4.054864,0,-0.07,1.61,9.75
49.244954,4.054864,0,-0.12,1.62,9.77
49.244954,4.054864,0,-0.06,1.58,9.69
49.244954,4.054864,0,-0.12,1.61,9.67
49.244954,4.054864,0,-0.1,1.59,9.74
49.244954,4.054864,0,-0.12,1.66,9.76
49.244954,4.054864,0,-0.04,1.65,9.78
49.244954,4.054864,0,-0.11,1.52,9.63
49.244954,4.054864,0,0.05,1.71,9.77
49.244954,4.054864,0,-0.1,1.59,9.69
49.244954,4.054864,0,-0.07,1.6,9.71
49.244954,4.054864,0,-0.08,1.7,9.76
49.244954,4.054864,0,-0.1,1.57,9.82
49.244954,4.054864,0,-0.06,1.62,9.75
49.244954,4.054864,0,-0.08,1.63,9.69
49.244954,4.054864,0,-0.1,1.58,9.69
49.244954,4.054864,0,-0.13,1.55,9.7
49.244954,4.054864,0,-0.12,1.58,9.65
49.244954,4.054864,0,-0.07,1.59,9.78
49.244954,4.054864,0,-0.07,1.59,9.74
49.244954,4.054864,0,-0.08,1.59,9.69
49.244954,4.054864,0,-0.11,1.6,9.7
49.244954,4.054864,0,-0.07,1.62,9.71
49.244954,4.054864,0,-0.11,1.58,9.73
49.244954,4.054864,0,-0.1,1.6,9.75
49.244954,4.054864,0,-0.06,1.56,9.71
49.244954,4.054864,0,-0.07,1.6,9.7
49.244954,4.054864,0,-0.06,1.58,9.71
49.244954,4.054864,0,-0.09,1.59,9.68
49.244954,4.054864,0,-0.1,1.62,9.73
49.244954,4.054864,0,-0.13,1.63,9.74
49.244954,4.054864,0,-0.09,1.59,9.78
49.244954,4.054864,0,-0.09,1.54,9.7
49.244954,4.054864,0,-0.11,1.54,9.71
49.244954,4.054864,0,-0.03,1.58,9.73
49.244954,4.054864,0,-0.07,1.62,9.74
49.244954,4.054864,0,-0.11,1.62,9.72
49.244954,4.054864,0,-0.07,1.61,9.74
49.244954,4.054864,0,-0.03,1.63,9.73
49.244954,4.054864,0,-0.09,1.58,9.73
49.244954,4.054864,0,-0.11,1.55,9.74
49.244954,4.054864,0,-0.05,1.61,9.76
49.244954,4.054864,0,-0.07,1.57,9.74
49.244954,4.054864,0,-0.06,1.61,9.7
49.244954,4.054864,0,-0.09,1.6,9.68
49.244954,4.054864,0,-0.17,1.63,9.82
49.244954,4.054864,0,-0.07,1.61,9.75
49.244954,4.054864,0,-0.08,1.67,9.76
49.244954,4.054864,0,-0.04,1.6,9.71
49.244954,4.054864,0,-0.09,1.58,9.67
49.244954,4.054864,0,-0.1,1.57,9.66
49.244954,4.054864,0,-0.06,1.6,9.69
49.244954,4.054864,0,-0.09,1.59,9.77
49.244954,4.054864,0,-0.11,1.58,9.81
49.244954,4.054864,0,-0.08,1.58,9.73
49.244954,4.054864,0,-0.07,1.63,9.71
49.244954,4.054864,0,-0.08,1.58,9.64
49.244954,4.054864,0,-0.07,1.6,9.64
49.244954,4.054864,0,-0.08,1.61,9.75
49.244954,4.054864,0,0.01,1.65,9.77
49.244954,4.054864,0,-0.07,1.54,9.7
49.244954,4.054864,0,-0.06,1.61,9.73
49.244954,4.054864,0,-0.05,1.63,9.76
49.244954,4.054864,0,-0.05,1.63,9.76
49.244954,4.054864,0,-0.07,1.51,9.66
49.244954,4.054864,0,-0.08,1.58,9.7
49.244954,4.054864,0,-0.07,1.58,9.71
49.244954,4.054864,0,-0.12,1.61,9.71
49.244954,4.054864,0,-0.07,1.63,9.71
49.244954,4.054864,0,-0.17,1.86,9.68
49.244954,4.054864,0,0.02,2.02,9.6
49.244954,4.054864,0,0.09,2.67,9.27
49.244954,4.054864,0,0.01,2.82,9.49
49.244954,4.054864,0,0,2.83,9.3
49.244954,4.054864,0,0.11,2.63,9.22
49.244954,4.054864,0,0.03,2.75,9.94
49.244965,4.054915,2.36,-0.05,2.66,9.8
49.244965,4.054915,2.36,-0.65,2.39,9.83
49.244968,4.054964,3.55,-0.04,2.63,9.65
49.244968,4.054964,3.55,0.2,2.76,9.9
49.244969,4.055029,4.68,-0.49,2.52,9.55
49.244969,4.055029,4.68,-0.62,2.34,9.31
49.244969,4.055102,5.55,-0.58,2.34,8.44
49.244968,4.055185,6.39,-0.79,3.1,8.97
49.244968,4.055185,6.39,-0.42,2.87,10.94
49.244974,4.055278,7.88,-0.76,2.37,9.54
49.244974,4.055278,7.88,-0.52,2.42,10.08
49.244998,4.05539,8.72,-1.3,2.22,9.17
49.244998,4.05539,8.72,-0.48,1.89,10.78
49.245031,4.055509,9.5,-0.25,1.75,10.29
49.245031,4.055509,9.5,0.59,2.08,8.86
49.245072,4.055648,11,0.89,2.12,9.46
49.245072,4.055648,11,0.22,1.51,10.85
49.245118,4.055798,11.72,-0.98,1.33,10.32
49.245118,4.055798,11.72,-0.12,1.46,9.9
49.245163,4.055958,12.27,-0.46,1.79,10.35
49.245163,4.055958,12.27,-0.05,0.49,9.79
49.24521,4.056116,12.2,0.38,1.34,10.46
49.24521,4.056116,12.2,0.17,1,10.22
49.245257,4.056274,12.15,-0.32,0.4,10.02
49.245257,4.056274,12.15,0.65,0.82,9.8
49.245299,4.056428,11.95,-0.59,-0.52,8.92
49.245299,4.056428,11.95,0.77,1.12,5.66
49.245337,4.056578,11.76,-0.23,0.81,9.08
49.245337,4.056578,11.76,-0.55,1.33,9.31
49.245376,4.056726,11.69,0.02,1,10.14
49.245376,4.056726,11.69,-0.28,0.69,9.94
49.245412,4.056871,11.6,-0.76,1.02,10.98
49.245412,4.056871,11.6,-1.13,1.97,10.8
49.245448,4.057019,11.42,-0.04,1.31,10.98
49.245448,4.057019,11.42,-0.07,0.88,9.54
49.245484,4.057165,11.26,-0.1,0.76,10.41
49.245484,4.057165,11.26,-0.5,1.08,9.33
49.245522,4.057309,11.25,-0.17,0.75,10.13
49.245522,4.057309,11.25,-0.2,2.6,6.39
49.245559,4.057451,11.28,-0.38,1.59,10.27
49.245559,4.057451,11.28,0.4,1.23,11.08
49.245597,4.057593,11.37,-0.41,1.22,8.77
49.245597,4.057593,11.37,-0.11,1.4,10
49.245635,4.057736,11.46,-0.5,0.8,10.15
49.245635,4.057736,11.46,-0.06,1.48,8.77
49.245671,4.057881,11.44,-0.36,1.39,8.9
49.245671,4.057881,11.44,-0.57,0.72,9.42
49.245709,4.058024,11.34,-0.32,0.52,8.79
49.245745,4.058169,11.14,0.11,1.13,10
49.245745,4.058169,11.14,-0.48,0.68,9.41
49.245785,4.058311,11.06,-0.23,1.3,10.23
49.245785,4.058311,11.06,0.3,1.53,8.5
49.245822,4.058452,11.07,0.69,1.36,9.4
49.245822,4.058452,11.07,1.3,1.82,8.71
49.245858,4.058594,11.16,0.96,1.28,11.07
49.245858,4.058594,11.16,0.63,1.43,8.86
49.245892,4.058741,11.3,1.22,0.56,10.54
49.245892,4.058741,11.3,-1.23,2.59,10.35
49.245919,4.058893,11.39,1.52,1.27,10.06
49.245919,4.058893,11.39,0.2,2.34,11.87
49.245939,4.059045,11.47,0.81,1.5,10.78
49.245939,4.059045,11.47,0.2,1.34,11.01
49.245951,4.059203,11.55,0.09,0.94,10.23
49.245951,4.059203,11.55,0.02,1.26,11.36
49.245962,4.059363,11.41,-0.24,1.26,8.6
49.245962,4.059363,11.41,-0.37,0.84,10.54
49.245972,4.059523,11.38,-0.33,1.03,9.44
49.245972,4.059523,11.38,-0.65,1.08,10.68
49.245982,4.059681,11.38,-0.6,1.07,8.94
49.245982,4.059681,11.38,0.15,1.39,9.11
49.245993,4.059837,11.44,-0.57,1.17,10.32
49.245993,4.059837,11.44,-0.65,0.63,9.9
49.246006,4.059992,11.27,-0.2,0.86,9.68
49.246006,4.059992,11.27,-0.31,1.33,9.75
49.246023,4.060144,11.13,-0.3,0.85,8.6
49.246023,4.060144,11.13,0,0.91,9.77
49.246042,4.060293,10.9,-0.13,1.14,10.27
49.246042,4.060293,10.9,-0.88,1.33,8.53
49.246064,4.060438,10.93,-0.22,0.94,10.38
49.246064,4.060438,10.93,-1.37,1.03,10.82
49.246089,4.060584,10.88,0.06,2.03,10.23
49.246089,4.060584,10.88,-1.13,1.06,8.91
49.246117,4.060725,10.92,-1.16,1.07,10.18
49.246117,4.060725,10.92,-0.16,0.94,9.11
49.24615,4.060865,10.89,-1,0.45,9.29
49.24615,4.060865,10.89,-0.73,-0.51,11.25
49.246183,4.061002,10.45,0.17,0.23,9.58
49.246222,4.061128,9.84,0.01,0.15,11.43
49.246222,4.061128,9.84,-0.35,0.21,10.41
49.24626,4.061244,8.77,-0.05,0.32,8.29
49.24626,4.061244,8.77,-0.18,0.65,9.95
49.246294,4.061348,8.08,0,0.08,8.73
49.246294,4.061348,8.08,-0.01,0.55,10.84
49.246329,4.061439,7.34,-0.33,0.14,7.28
49.246329,4.061439,7.34,-1.88,1.01,9.47
49.246362,4.061527,6.89,-1.26,0.52,9.12
49.246362,4.061527,6.89,-0.39,0.89,9.84
49.24639,4.061609,6.43,-0.58,0.27,10.55
49.24639,4.061609,6.43,-0.48,0.03,10.79
49.246415,4.061682,5.47,-0.33,0.25,10.25
49.246415,4.061682,5.47,-0.48,0.11,9.73
49.246437,4.061744,4.65,-0.04,0.18,10
49.246437,4.061744,4.65,-0.09,0.5,10.76
49.246457,4.061795,4.01,0.16,0.85,11
49.246457,4.061795,4.01,0.15,1.92,10.04
49.246474,4.061844,4.31,1.42,2.15,8.93
49.246474,4.061844,4.31,1.65,1.51,7.75
49.246491,4.061903,5.03,0.62,2.43,9.66
49.246491,4.061903,5.03,0.92,2.16,10.25
49.246492,4.06198,6.01,1.13,2.08,9.89
49.246492,4.06198,6.01,0.08,1.45,10.06
49.246481,4.062073,6.88,0.62,1.62,10.6
49.246481,4.062073,6.88,1.4,1.11,10.02
49.246459,4.062164,6.94,1.25,1.97,9.37
49.246459,4.062164,6.94,-0.92,0.99,7.89
49.246428,4.062253,7.13,0.13,2.09,10.69
49.246428,4.062253,7.13,1.3,2.09,10.13
49.246384,4.062338,7.35,-0.34,1.62,9.25
49.246384,4.062338,7.35,-0.67,0.82,10.12
49.246335,4.062419,7.29,-0.68,0.46,9.97
49.246335,4.062419,7.29,-0.56,0.96,9.73
49.246287,4.062491,6.61,-0.4,1.16,8.6
49.246287,4.062491,6.61,-0.59,1.29,10.23
49.246241,4.062553,6.06,0.09,1.47,8.96
49.246241,4.062553,6.06,-1.9,1.69,11.06
49.246199,4.062609,5.62,-0.36,1.56,9.63
49.246199,4.062609,5.62,-0.55,2.03,9.97
49.246159,4.062662,5.83,-0.54,2.81,9.45
49.246118,4.062717,6.32,-0.29,1.67,10.66
49.246118,4.062717,6.32,-0.58,2.07,10.43
49.246075,4.062778,6.7,-0.58,1.78,9.56
49.246075,4.062778,6.7,-0.86,1.37,9.25
49.246031,4.062845,6.82,-0.32,1.59,10.11
49.246031,4.062845,6.82,-0.1,1.23,9.2
49.245986,4.062908,6.5,-0.55,1.25,9.45
49.245986,4.062908,6.5,0.36,1.03,10.44
49.24594,4.062971,6.04,-0.54,1.02,9.92
49.24594,4.062971,6.04,-0.64,1.22,10.23
49.245897,4.063022,5.48,-0.72,1,9.91
49.245897,4.063022,5.48,-0.23,0.66,9.75
49.245863,4.063064,4.82,0.78,0.98,9.88
49.245863,4.063064,4.82,0.87,1.04,8.47
49.245835,4.063099,4.62,0.69,1.59,9.57
49.245835,4.063099,4.62,0.9,1.7,9.67
49.245802,4.063129,4.85,0.7,2.28,10.34
49.245802,4.063129,4.85,0.53,2.35,9.55
49.245757,4.063153,6.21,0.18,2.36,9.64
49.245757,4.063153,6.21,-0.49,2.34,9.04
49.245696,4.063142,6.87,-1.39,1.89,9.32
49.245696,4.063142,6.87,-0.38,1.86,9.14
49.245627,4.063128,7.56,-0.44,1.09,8.78
49.245627,4.063128,7.56,0.74,2.38,11.75
49.245554,4.063112,7.45,-0.51,1.89,9.25
49.245554,4.063112,7.45,-1.47,0.98,9.72
49.245482,4.0631,7.17,-0.8,1.47,10.66
49.245482,4.0631,7.17,-0.43,2.13,9.63
49.245409,4.063091,7.18,-0.06,2.04,8.46
49.245409,4.063091,7.18,0.23,2.12,10.03
49.245334,4.063089,7.32,0.32,1.81,9.05
49.245334,4.063089,7.32,-0.03,1,10.03
49.245263,4.063085,7.27,-0.79,1.73,9.4
49.245263,4.063085,7.27,-0.67,0.79,9.05
49.245196,4.063081,7.16,-0.16,1.25,10.36
49.245196,4.063081,7.16,-0.12,1.13,10.69
49.245131,4.063074,6.97,-0.6,0.94,9.78
49.245131,4.063074,6.97,-0.63,1.22,9.21
49.245068,4.063063,6.5,-0.39,0.91,9.29
49.245068,4.063063,6.5,-0.98,0.75,9.78
49.245011,4.063056,5.9,-0.59,1.38,9.45
49.244957,4.063049,5.24,-1.32,0.73,10.28
49.244957,4.063049,5.24,-1.74,0.58,9.05
49.244913,4.063047,4.18,-1.33,0.61,9.47
49.244913,4.063047,4.18,-0.7,0.99,10.13
49.24488,4.063062,3.48,-0.97,0.75,10.46
49.24488,4.063062,3.48,-1.18,0.31,8.86
49.244858,4.063081,2.55,-1.12,0.89,9.96
49.244858,4.063081,2.55,-0.6,1.06,9.45
49.244848,4.063106,2.07,-0.77,0.97,9.84
49.244848,4.063106,2.07,-0.76,0.36,9.71
49.244845,4.063129,1.7,-0.89,0.68,9.3
49.244845,4.063129,1.7,-0.01,0.96,9.8
49.244846,4.063147,0.92,-0.24,1.22,9.64
49.244846,4.063147,0.92,0.18,1.97,9.61
49.244848,4.063158,0.97,-0.01,2.11,9.89
49.244848,4.063158,0.97,-0.21,1.47,9.67
49.244848,4.063173,1.44,-0.44,1.47,9.69
49.244848,4.063173,1.44,-0.33,0.23,9.78
49.244849,4.063191,1.19,-0.06,0.52,9.9
49.244849,4.063191,1.19,-0.11,0.63,9.83
49.244849,4.063191,0,-0.19,0.93,9.95
49.244849,4.063191,0,-0.13,1.21,9.69
49.244849,4.063191,0,-0.27,1.24,9.68
49.244849,4.063191,0,-0.06,0.68,10
49.244849,4.063191,0,-0.14,0.86,9.96
49.244849,4.063191,0,-0.33,1.1,9.66
49.244849,4.063191,0,-0.27,0.9,9.88
49.244849,4.063191,0,-0.33,1.24,9.87
49.244851,4.063194,0.88,-0.07,1.87,9.66
49.244851,4.063194,0.88,-0.08,1.45,9.83
49.244851,4.063194,0,-0.15,2.15,9.63
49.244851,4.063194,0,-0.27,1.93,9.52
49.244851,4.063194,0,-0.22,1.85,9.81
49.244851,4.063194,0,-0.16,1.28,9.72
49.244851,4.063194,0,-0.14,1.48,9.72
49.244851,4.063194,0,-0.02,1.46,9.72
49.244851,4.063194,0,-0.2,1.3,9.74
49.244851,4.063194,0,-0.12,1.34,9.8
49.244851,4.063194,0,-0.14,1.36,9.82
49.244851,4.063194,0,-0.13,1.31,9.79
49.244851,4.063194,0,-0.12,1.44,9.73
49.244851,4.063194,0,0.53,2.29,10.02
49.244851,4.063194,0,-0.51,2.45,9.71
49.244851,4.063194,0,-1.11,1.87,9.59
