Location-lat,Location-long,Speed,Accelerometer-X,Accelerometer-Y,Accelerometer-Z
49.289353,3.986877,28.56,-1.83,-0.71,8.87
49.289353,3.986877,28.56,-2.44,-0.18,9.03
49.289538,3.987153,28.84,-1.84,-0.73,9.8
49.289727,3.987424,29.12,-2.57,-1.63,9.21
49.289727,3.987424,29.12,-2.4,-1.62,9.36
49.289919,3.987699,29.43,-2.06,-0.96,8.76
49.289919,3.987699,29.43,-1.62,-0.1,10.29
49.290113,3.987975,29.55,-2.07,-1.27,10.17
49.290113,3.987975,29.55,-2.45,-0.79,8.99
49.29031,3.988255,29.73,-1.74,0.12,10.56
49.29031,3.988255,29.73,-1.69,-1.25,7.71
49.29051,3.988529,29.88,-1.48,-0.03,8.64
49.29051,3.988529,29.88,-2.72,-0.48,9.98
49.290713,3.988801,30.25,-1.47,1.33,10.44
49.290713,3.988801,30.25,-2.58,-1.08,10.09
49.290919,3.989079,30.43,-2.15,-0.17,10.04
49.290919,3.989079,30.43,-1.87,0.29,10.88
49.291127,3.989357,30.56,-1.93,-1.94,8.69
49.291127,3.989357,30.56,-1.61,-0.95,10.27
49.29134,3.989622,30.62,-2.02,-0.37,8.96
49.29134,3.989622,30.62,-2.46,-0.78,11.43
49.291561,3.989875,30.75,-2.24,0.09,9.72
49.291561,3.989875,30.75,-2.19,-1.75,7.96
49.291784,3.990133,30.85,-2.15,-1.31,9.03
49.291784,3.990133,30.85,-2.51,-0.73,11.56
49.292011,3.990385,31.07,-2.5,-0.02,11.76
49.292011,3.990385,31.07,-1.93,-0.98,7.94
49.292242,3.990631,31.19,-1.65,0.17,9.21
49.292242,3.990631,31.19,-2.15,0.49,10.41
49.292474,3.990872,31.33,-1.08,-1.01,8.51
49.292474,3.990872,31.33,-1.06,-0.89,11.57
49.292707,3.991112,30.7,-1.38,-0.18,8.6
49.292707,3.991112,30.7,-1.98,-0.48,11.41
49.292937,3.991343,30.26,-1.66,-0.41,9.12
49.292937,3.991343,30.26,-2.18,-1.11,10.51
49.293169,3.991565,30.16,-2.35,0.12,10.36
49.293169,3.991565,30.16,-1.84,-0.23,11.13
49.293405,3.991768,30.13,-1.59,-0.19,9.32
49.293405,3.991768,30.13,-2.38,0.0,11.78
49.293645,3.991972,30.16,-1.79,0.06,8.18
49.293645,3.991972,30.16,-1.94,-0.16,11.89
49.293887,3.992172,30.2,-1.91,-0.24,10.03
49.293887,3.992172,30.2,-2.26,-0.02,11.25
49.294132,3.992372,30.2,-1.63,0.26,9.28
49.294379,3.99257,30.29,-2.66,-0.64,11.05
49.294379,3.99257,30.29,-1.83,-1.0,7.92
49.294627,3.992764,30.41,-1.84,-1.51,9.11
49.294627,3.992764,30.41,-2.24,-0.17,11.03
49.294875,3.992954,30.54,-1.87,-0.78,9.6
49.294875,3.992954,30.54,-1.95,-1.1,8.56
49.295124,3.99314,30.85,-2.38,-1.93,11.16
49.295124,3.99314,30.85,-1.95,-1.44,8.42
49.295376,3.993324,31.07,-0.97,-0.67,8.55
49.295376,3.993324,31.07,-1.85,0.38,10.94
49.295633,3.993501,31.3,-1.7,-0.96,9.74
49.295633,3.993501,31.3,-2.49,-1.47,10.54
49.295892,3.993674,31.52,-2.56,-2.01,11.53
49.295892,3.993674,31.52,-2.94,-1.37,12.66
49.296153,3.99384,31.8,-2.21,-0.73,10.74
49.296153,3.99384,31.8,-2.23,-0.91,9.84
49.296421,3.993998,32.06,-2.72,-0.77,9.72
49.296421,3.993998,32.06,-1.52,-0.58,8.49
49.296693,3.994154,32.35,-2.02,-0.05,10.25
49.296693,3.994154,32.35,-1.01,-0.17,8.86
49.296958,3.994305,32.19,-1.06,-0.58,8.6
49.296958,3.994305,32.19,-0.82,-0.34,9.71
49.297225,3.994453,31.49,-1.61,-2.01,9.59
49.297225,3.994453,31.49,-2.84,-0.71,8.73
49.29749,3.994594,30.96,-1.96,-1.14,11.22
49.29749,3.994594,30.96,-1.65,-0.77,9.5
49.297758,3.99473,30.86,-1.92,-1.56,8.35
49.297758,3.99473,30.86,-2.37,-1.08,9.79
49.298028,3.994856,30.94,-2.48,-0.48,10.34
49.298028,3.994856,30.94,-1.26,-1.12,8.38
49.2983,3.994981,30.95,-1.74,-0.23,9.44
49.2983,3.994981,30.95,-1.53,-2.12,9.27
49.298568,3.995101,31.03,-1.35,-1.03,8.54
49.298568,3.995101,31.03,-1.38,-1.33,8.48
49.298841,3.995221,31.02,-2.49,-1.81,10.6
49.298841,3.995221,31.02,-2.62,-1.2,10.39
49.299113,3.995327,31.09,-2.48,0.06,10.66
49.299113,3.995327,31.09,-2.15,0.35,9.09
49.299382,3.995418,31.3,-1.53,-1.05,8.86
49.299652,3.995507,31.41,-2.11,-0.11,10.24
49.299652,3.995507,31.41,-1.44,-0.63,9.24
49.299922,3.995586,31.51,-3.26,-1.59,9.77
49.299922,3.995586,31.51,-2.41,-0.84,10.79
49.300193,3.995657,31.5,-0.8,-0.56,9.69
49.300193,3.995657,31.5,-1.47,-0.21,9.67
49.300462,3.995728,31.78,-1.33,-1.24,9.08
49.300462,3.995728,31.78,-1.92,-0.69,9.85
49.300738,3.995789,31.66,-1.56,-0.57,10.34
49.300738,3.995789,31.66,-2.89,-0.66,9.83
49.301014,3.995848,31.42,-2.52,-0.76,9.39
49.301014,3.995848,31.42,-2.28,-0.73,10.54
49.301289,3.995899,31.33,-2.8,-0.35,10.43
49.301289,3.995899,31.33,-1.94,-1.08,9.49
49.301564,3.99593,31.3,-1.24,-0.1,8.78
49.301564,3.99593,31.3,-1.97,-0.53,8.41
49.301837,3.995968,31.18,-1.89,-0.02,10.49
49.301837,3.995968,31.18,-1.82,-1.57,8.98
49.302109,3.996012,31.05,-1.76,-0.66,9.02
49.302109,3.996012,31.05,-1.93,-1.46,9.29
49.302384,3.996052,31.02,-2.47,-1.29,9.19
49.302384,3.996052,31.02,-2.3,-1.24,10.34
49.302662,3.99608,30.99,-1.6,-1.18,9.28
49.302662,3.99608,30.99,-1.82,-1.19,9.58
49.30294,3.996097,30.99,-2.09,-1.45,10.1
49.30294,3.996097,30.99,-3.13,-0.49,10.33
49.303219,3.996104,31.02,-1.69,-0.14,9.8
49.303219,3.996104,31.02,-2.37,-1.07,8.55
49.303499,3.996108,31.0,-2.48,-1.05,10.6
49.303499,3.996108,31.0,-2.24,-1.0,10.51
49.303781,3.996111,30.98,-1.44,0.57,10.11
49.303781,3.996111,30.98,-2.06,-0.45,9.54
49.30406,3.996108,31.01,-1.32,-1.27,9.18
49.30406,3.996108,31.01,-1.38,-1.94,9.11
49.304338,3.996107,30.95,-1.78,-0.44,9.7
49.304338,3.996107,30.95,-1.57,0.53,10.24
49.304616,3.996096,31.03,-2.07,-0.13,10.24
49.304616,3.996096,31.03,-1.84,-0.95,9.91
49.304894,3.996075,31.03,-1.99,-1.93,9.46
49.304894,3.996075,31.03,-1.95,-2.04,8.16
49.305173,3.996049,31.02,-2.38,-1.46,9.77
49.305451,3.996007,31.04,-1.4,-1.16,10.08
49.305451,3.996007,31.04,-2.18,-0.88,8.99
49.30573,3.995955,31.28,-2.15,-0.98,9.54
49.30573,3.995955,31.28,-1.84,-0.35,7.42
49.30601,3.995899,31.36,-2.09,-0.52,8.58
49.30601,3.995899,31.36,-2.04,-0.74,8.79
49.306287,3.995833,31.54,-2.09,-0.64,10.44
49.306287,3.995833,31.54,-2.49,-1.49,9.31
49.306568,3.995768,31.62,-2.26,-1.49,8.35
49.306568,3.995768,31.62,-1.77,-1.52,10.91
49.306848,3.995698,31.75,-2.3,-1.02,11.26
49.306848,3.995698,31.75,-2.94,-1.62,10.61
49.307131,3.995624,31.82,-2.11,-1.31,10.04
49.307131,3.995624,31.82,-2.32,-0.57,10.72
49.307414,3.995545,31.9,-2.11,-1.46,9.08
49.307414,3.995545,31.9,-2.03,0.16,9.39
49.307696,3.995464,31.99,-2.28,-1.27,10.16
49.307696,3.995464,31.99,-2.15,-0.42,9.65
49.30798,3.995381,32.04,-1.87,-0.39,8.93
49.30798,3.995381,32.04,-2.46,-0.29,9.77
49.308265,3.995292,32.13,-1.64,-0.85,8.99
49.308265,3.995292,32.13,-2.04,0.2,10.81
49.308549,3.995194,32.19,-2.22,-1.01,10.09
49.308549,3.995194,32.19,-1.68,-1.09,10.39
49.308828,3.995084,32.18,-1.67,-1.6,10.36
49.308828,3.995084,32.18,-2.82,-0.95,10.02
49.30911,3.994968,32.15,-2.14,-1.98,8.38
49.30911,3.994968,32.15,-2.0,0.24,8.92
49.309392,3.994855,32.2,-0.91,-0.26,9.14
49.309392,3.994855,32.2,-2.14,-0.95,8.17
49.309671,3.994736,32.24,-1.59,-0.77,9.42
49.309671,3.994736,32.24,-2.27,-1.33,10.12
49.309949,3.994612,32.29,-1.96,-1.61,10.51
49.309949,3.994612,32.29,-2.14,-1.8,10.23
49.310226,3.994486,32.25,-2.03,0.04,9.92
49.310226,3.994486,32.25,-2.26,-1.07,10.89
49.310502,3.99435,32.21,-2.01,0.17,9.83
49.310502,3.99435,32.21,-1.54,-0.72,10.1
49.310773,3.994196,32.15,-2.64,-0.72,11.06
49.310773,3.994196,32.15,-2.01,-1.24,10.11
49.31105,3.994034,32.12,-3.32,-0.99,11.26
49.311315,3.993868,32.17,-2.24,-2.48,9.35
49.311315,3.993868,32.17,-2.7,-1.23,10.16
49.311583,3.993706,32.07,-1.62,-1.51,9.72
49.311583,3.993706,32.07,-3.26,-1.17,10.46
49.311845,3.993538,32.0,-3.1,-0.96,10.46
49.311845,3.993538,32.0,-2.0,-0.26,9.12
49.312099,3.993365,31.95,-1.84,-1.43,10.07
49.312099,3.993365,31.95,-2.71,-1.04,9.62
49.312355,3.993182,31.92,-1.66,-1.02,9.34
49.312355,3.993182,31.92,-1.51,-0.75,8.84
49.31262,3.993003,31.93,-1.47,-0.56,9.11
49.31262,3.993003,31.93,-1.0,-0.78,8.34
49.312884,3.992815,31.93,-1.87,-0.92,8.89
49.312884,3.992815,31.93,-1.66,-1.21,8.23
49.313144,3.992618,31.93,-1.58,-0.23,9.66
49.313144,3.992618,31.93,-2.6,-1.33,9.85
49.313402,3.992416,31.94,-1.01,-0.27,8.09
49.313402,3.992416,31.94,-1.44,-0.01,9.49
49.313655,3.992204,31.83,-1.87,-1.11,8.81
49.313655,3.992204,31.83,-1.49,-0.97,9.0
49.313903,3.991988,31.72,-1.42,0.26,10.48
49.313903,3.991988,31.72,-0.66,0.23,10.08
49.314152,3.991769,31.63,-2.57,-0.51,9.59
49.314152,3.991769,31.63,-1.99,-1.11,7.83
49.3144,3.991549,31.58,-1.93,-1.3,8.04
49.3144,3.991549,31.58,-0.98,-0.92,8.86
49.314648,3.991329,31.59,-1.97,-0.42,10.23
49.314648,3.991329,31.59,-1.74,-0.59,9.0
49.314891,3.991098,31.56,-2.92,0.08,10.79
49.314891,3.991098,31.56,-2.55,-0.01,11.26
49.315133,3.990866,31.47,-1.58,-0.34,10.57
49.315133,3.990866,31.47,-2.01,-1.18,9.0
49.315369,3.99063,31.33,-2.53,-0.92,10.12
49.315369,3.99063,31.33,-1.64,0.78,10.07
49.315608,3.990392,31.61,-0.04,-0.28,8.61
49.315608,3.990392,31.61,-1.08,0.44,8.18
49.315846,3.990157,31.07,-2.86,-0.7,11.31
49.315846,3.990157,31.07,-1.68,0.11,10.44
49.316083,3.989927,30.8,-2.14,-0.67,8.61
49.316083,3.989927,30.8,-2.49,0.51,11.54
49.316316,3.989699,30.75,-1.67,-1.18,10.83
49.316547,3.98947,30.67,-1.03,-0.07,9.02
49.316547,3.98947,30.67,-2.66,-1.18,12.19
49.316779,3.989242,30.61,-1.68,0.57,9.71
49.316779,3.989242,30.61,-1.46,-1.14,8.71
49.317012,3.989011,30.58,-2.38,-1.0,10.8
49.317012,3.989011,30.58,-1.03,0.11,9.39
49.317242,3.988779,30.53,-2.64,-0.27,9.62
49.317242,3.988779,30.53,-1.5,-0.37,8.27
49.317471,3.988552,30.49,-2.06,0.07,8.91
49.317471,3.988552,30.49,-0.97,-0.55,10.33
49.317698,3.988323,30.14,-1.06,-0.24,9.12
49.317698,3.988323,30.14,-1.81,0.18,10.79
49.317921,3.988095,29.49,-1.34,0.03,9.97
49.317921,3.988095,29.49,-0.66,-0.68,11.43
49.318141,3.987877,28.77,-1.69,-0.36,10.35
49.318141,3.987877,28.77,-2.1,-0.28,9.91
49.318355,3.987663,28.22,-1.83,0.44,10.63
49.318355,3.987663,28.22,-1.78,-0.09,11.52
49.318568,3.987454,27.84,-1.77,-0.23,11.02
49.318568,3.987454,27.84,-1.75,-0.87,9.27
49.318776,3.987246,27.47,-1.24,-0.11,11.17
49.318776,3.987246,27.47,-0.56,-0.27,10.04
49.318982,3.987045,26.84,-1.96,-0.94,9.48
49.318982,3.987045,26.84,-0.53,0.16,10.87
49.319183,3.986849,26.25,-1.69,0.65,11.11
49.319183,3.986849,26.25,-1.58,-0.01,10.03
49.31938,3.986657,25.64,-1.56,-0.24,10.11
49.31938,3.986657,25.64,-1.07,0.71,11.19
49.319576,3.986478,24.74,-0.5,-0.31,10.32
49.319576,3.986478,24.74,-0.95,0.8,8.65
49.31976,3.986301,23.93,-0.34,0.51,7.97
49.31976,3.986301,23.93,-1.31,0.73,10.34
49.319935,3.986132,23.02,-0.89,0.52,10.33
49.319935,3.986132,23.02,-0.52,-0.14,10.95
49.320109,3.985983,22.0,-1.34,0.34,10.83
49.320109,3.985983,22.0,-2.09,0.71,11.83
49.320282,3.985854,20.81,-1.66,-0.28,11.31
49.320282,3.985854,20.81,-0.38,-0.83,9.81
49.320448,3.985736,20.03,-0.73,-0.66,9.66
49.320448,3.985736,20.03,-0.43,0.0,9.84
49.320606,3.985621,19.25,-0.89,-1.62,9.41
49.320758,3.985509,18.21,-0.96,-0.79,10.84
49.320758,3.985509,18.21,-1.63,-0.59,9.85
49.320907,3.985411,17.62,-1.72,-0.28,11.41
49.320907,3.985411,17.62,-1.33,0.45,11.41
49.32105,3.985311,17.35,-0.91,-0.71,9.53
49.32105,3.985311,17.35,-1.04,-0.94,10.22
49.32119,3.985218,16.32,-0.45,-0.17,10.65
49.32119,3.985218,16.32,-0.57,-0.6,10.4
49.321321,3.985126,15.42,-0.94,-0.76,8.49
49.321321,3.985126,15.42,-0.28,-0.28,11.98
49.321438,3.985028,14.53,-0.87,-0.71,10.62
49.321438,3.985028,14.53,-2.07,0.14,11.67
49.321543,3.984929,13.33,-0.29,-0.6,9.29
49.321543,3.984929,13.33,0.51,-1.11,10.28
49.321637,3.984838,11.65,0.06,-0.64,10.27
49.321637,3.984838,11.65,-1.18,0.35,10.56
49.321722,3.984762,9.77,-1.2,-0.78,10.17
49.321722,3.984762,9.77,-1.27,-0.37,10.18
49.321794,3.984695,8.58,-1.84,0.5,10.43
49.321794,3.984695,8.58,-1.51,-0.44,9.85
49.321857,3.984636,7.8,-0.16,0.87,11.0
49.321857,3.984636,7.8,-2.19,0.37,11.64
49.321912,3.984587,6.78,-2.13,-1.31,10.09
49.321912,3.984587,6.78,-1.49,0.2,9.57
49.321961,3.984542,5.93,-0.63,0.37,9.99
49.321961,3.984542,5.93,-1.01,-0.12,10.92
49.322003,3.984503,5.02,-0.76,0.64,9.84
49.322003,3.984503,5.02,-1.87,0.11,9.46
49.322045,3.984474,4.46,-2.22,0.01,9.86
49.322045,3.984474,4.46,-2.47,0.65,11.2
49.32208,3.984442,4.19,-0.53,-1.7,7.83
49.32208,3.984442,4.19,-2.39,-0.54,9.17
49.322113,3.984415,3.89,-1.81,1.11,9.85
49.322113,3.984415,3.89,-3.04,-0.04,8.74
49.322142,3.984386,3.61,-2.86,0.13,9.83
49.322142,3.984386,3.61,-2.04,-0.3,10.25
49.322167,3.984361,3.31,-1.55,0.1,8.98
49.322167,3.984361,3.31,-2.16,-0.17,10.13
49.322187,3.984337,2.62,-1.2,0.14,10.45
49.322187,3.984337,2.62,-1.78,0.36,10.04
49.322187,3.984337,0.0,-1.46,-0.01,9.54
49.322187,3.984337,0.0,-1.43,-0.82,10.28
49.322187,3.984337,0.0,-1.7,-0.41,8.62
49.322187,3.984337,0.0,-1.14,-0.22,9.39
49.322187,3.984337,0.0,-0.76,0.16,9.7
49.322187,3.984337,0.0,-1.95,-0.22,9.89
49.322187,3.984337,0.0,-1.5,-0.38,10.33
49.322187,3.984337,0.0,-1.9,0.05,9.51
49.322187,3.984337,0.0,-1.77,0.12,9.65
49.322187,3.984337,0.0,-1.81,0.33,9.59
49.322187,3.984337,0.0,-2.24,-0.28,9.7
49.322187,3.984337,0.0,-2.52,0.53,10.53
49.322187,3.984337,0.0,-2.5,-0.35,9.59
49.322187,3.984337,0.0,-3.22,-0.15,9.55
49.322187,3.984337,0.0,-3.5,0.27,9.31
49.322187,3.984337,0.0,-3.61,0.08,10.04
49.322187,3.984337,0.0,-4.03,-0.33,9.69
49.322241,3.984288,2.78,-3.99,0.28,9.41
49.322241,3.984288,2.78,-3.39,-0.31,10.09
49.322271,3.984233,4.52,-2.0,0.04,8.72
49.322271,3.984233,4.52,-1.99,-2.11,7.33
49.322308,3.984184,5.1,-3.02,-0.46,10.17
49.322308,3.984184,5.1,-2.31,0.11,8.65
49.322351,3.984134,6.26,-3.92,0.48,9.94
49.322351,3.984134,6.26,-1.29,0.6,9.65
49.322405,3.98408,7.48,-2.37,-0.13,10.62
49.322405,3.98408,7.48,-3.35,0.05,9.79
49.322462,3.984017,7.87,-3.84,-0.52,8.92
49.322462,3.984017,7.87,-3.78,-0.7,8.97
49.322528,3.983945,9.83,-3.57,0.01,9.85
49.322528,3.983945,9.83,-2.32,-0.49,11.93
49.322607,3.983854,11.51,-2.51,-0.25,10.62
49.322607,3.983854,11.51,-3.72,-0.66,10.15
49.322695,3.983755,11.98,-3.39,-0.34,10.07
49.322695,3.983755,11.98,-3.13,-0.23,9.82
49.322786,3.98365,13.17,-2.94,-0.36,9.52
49.322786,3.98365,13.17,-3.68,0.26,9.67
49.322881,3.983527,14.43,-2.8,-0.32,9.28
49.322881,3.983527,14.43,-2.99,-0.08,9.23
49.322986,3.983394,15.65,-2.93,-0.47,9.68
49.322986,3.983394,15.65,-3.44,-0.04,9.96
49.323099,3.983244,16.68,-2.68,-0.46,9.76
49.323099,3.983244,16.68,-2.67,-0.28,10.25
49.323217,3.983098,16.78,-2.07,-0.85,7.37
49.32334,3.982946,17.62,-3.08,-0.11,11.65
49.32334,3.982946,17.62,-3.45,-1.23,8.73
49.323465,3.982782,18.33,-2.81,-0.69,9.34
49.323465,3.982782,18.33,-2.55,0.47,9.09
49.323596,3.982615,19.16,-2.6,-0.69,9.12
49.323596,3.982615,19.16,-3.4,0.16,10.01
49.323734,3.982445,19.93,-2.85,-0.17,9.91
49.323734,3.982445,19.93,-2.88,-0.81,11.83
49.323878,3.982276,20.59,-2.44,-0.1,9.75
49.323878,3.982276,20.59,-1.96,0.43,8.73
49.324028,3.982102,21.3,-3.17,-0.62,11.57
49.324028,3.982102,21.3,-2.24,-1.02,9.3
49.324185,3.981925,21.98,-3.28,-0.98,10.04
49.324185,3.981925,21.98,-3.23,0.23,10.69
49.324346,3.981738,22.61,-2.63,-0.72,9.01
49.324346,3.981738,22.61,-0.92,1.38,10.0
49.324511,3.981553,22.87,-2.84,-0.12,12.29
49.324511,3.981553,22.87,-0.64,-0.96,5.96
49.324678,3.981376,22.47,-1.57,0.27,10.01
49.324678,3.981376,22.47,-2.0,0.86,9.91
49.324846,3.981207,22.14,-2.91,-0.12,9.24
49.324846,3.981207,22.14,-1.9,0.41,9.91
49.325017,3.981043,22.65,-2.74,-0.29,9.47
49.325017,3.981043,22.65,-2.69,-0.76,10.29
49.325189,3.980872,23.07,-2.39,-1.32,9.5
49.325189,3.980872,23.07,-2.77,-0.98,9.63
49.325365,3.980698,23.5,-2.89,0.03,9.29
49.325365,3.980698,23.5,-2.66,-1.11,10.44
49.325544,3.980516,23.91,-1.84,-0.59,9.39
49.325544,3.980516,23.91,-2.73,0.53,9.92
49.325723,3.980325,24.35,-2.24,-0.96,10.39
49.325723,3.980325,24.35,-2.48,0.3,9.93
49.325906,3.980135,24.74,-2.15,0.03,10.05
49.325906,3.980135,24.74,-1.69,-0.43,10.0
49.326094,3.979946,25.19,-1.87,0.74,10.73
49.326094,3.979946,25.19,-2.67,1.1,11.0
49.326284,3.979747,25.58,-2.65,-0.5,10.07
49.326284,3.979747,25.58,-2.54,0.29,10.75
49.326475,3.979542,25.98,-1.97,-0.31,9.58
49.326475,3.979542,25.98,-1.96,0.2,10.04
49.326668,3.979338,26.39,-2.41,-0.5,9.97
49.326668,3.979338,26.39,-2.28,-0.23,9.9
49.326865,3.97913,26.69,-2.31,-0.11,9.29
49.327066,3.978918,27.19,-2.73,-0.35,9.62
49.327066,3.978918,27.19,-2.74,-0.35,9.19
49.327268,3.978705,27.61,-1.73,-1.71,8.83
49.327268,3.978705,27.61,-1.99,-1.07,8.62
49.327474,3.978491,27.99,-1.11,-0.99,10.02
49.327474,3.978491,27.99,-1.9,-1.42,9.06
49.327682,3.978267,28.31,-2.34,0.74,9.73
49.327682,3.978267,28.31,-2.05,-0.66,8.03
49.327892,3.97804,28.74,-1.7,-0.78,8.84
49.327892,3.97804,28.74,-1.8,-0.85,9.46
49.328103,3.977811,29.14,-2.6,-0.71,10.23
49.328103,3.977811,29.14,-2.9,-0.45,9.46
49.328319,3.977578,29.49,-2.49,-0.79,7.89
49.328319,3.977578,29.49,-1.98,0.07,8.75
49.328537,3.977344,29.88,-2.75,-1.8,10.09
49.328537,3.977344,29.88,-1.79,-1.41,8.93
49.328758,3.977107,30.19,-2.79,-1.72,9.81
49.328758,3.977107,30.19,-1.47,-1.06,9.11
49.32898,3.976866,30.49,-2.49,0.7,9.63
49.32898,3.976866,30.49,-3.02,-1.34,10.65
49.329203,3.97662,30.83,-2.4,-0.24,8.98
49.329203,3.97662,30.83,-1.74,-0.22,9.4
49.329427,3.976366,31.0,-1.65,0.84,9.8
49.329427,3.976366,31.0,-2.53,-1.03,10.55
49.329652,3.976108,31.16,-2.15,-0.56,9.73
49.329652,3.976108,31.16,-1.58,-0.6,9.36
49.329881,3.975858,31.39,-1.68,0.16,9.06
49.329881,3.975858,31.39,-1.65,-0.73,8.82
49.33011,3.975601,31.53,-0.9,-0.84,9.07
49.33011,3.975601,31.53,0.1,0.7,8.76
49.33034,3.975346,31.47,-2.21,-0.66,9.48
49.33034,3.975346,31.47,-2.16,-0.6,10.87
49.330569,3.975094,31.08,-2.04,0.57,10.48
49.330569,3.975094,31.08,-1.54,0.43,9.35
49.330797,3.974845,31.16,-2.18,-0.24,9.17
49.330797,3.974845,31.16,-1.5,0.01,8.34
49.331026,3.974597,31.41,-2.23,-1.0,10.54
49.331026,3.974597,31.41,-2.39,-0.83,10.59
49.331257,3.974345,31.61,-1.94,-1.04,10.3
49.331257,3.974345,31.61,-2.25,-0.24,10.26
49.33149,3.974093,31.82,-2.45,-1.19,9.8
49.331726,3.973841,32.01,-2.25,0.67,10.3
49.331726,3.973841,32.01,-1.99,-1.06,9.92
49.331962,3.973588,32.12,-2.03,0.18,10.38
49.331962,3.973588,32.12,-2.98,-0.13,11.22
49.332197,3.973334,31.87,-1.85,-0.27,9.79
49.332197,3.973334,31.87,-1.45,0.28,9.67
49.33243,3.973088,31.54,-1.78,-0.1,9.86
49.33243,3.973088,31.54,-2.49,-1.02,10.68
49.332664,3.972848,31.39,-1.73,-0.02,11.56
49.332664,3.972848,31.39,-1.59,-0.1,9.38
49.332899,3.972611,31.37,-0.65,0.02,9.45
49.332899,3.972611,31.37,-0.77,1.36,10.51
49.333133,3.972374,31.28,-1.98,0.0,10.81
49.333133,3.972374,31.28,-2.25,-0.01,10.22
49.333367,3.972139,31.24,-1.23,-0.16,11.33
49.333367,3.972139,31.24,-0.68,0.79,8.98
49.333602,3.971906,31.19,-1.08,0.63,9.92
49.333602,3.971906,31.19,-2.24,-0.82,8.82
49.333837,3.971675,31.15,-2.43,0.5,11.8
49.333837,3.971675,31.15,-1.3,-0.32,10.05
49.334072,3.971443,31.14,-0.78,-0.41,9.61
49.334072,3.971443,31.14,-2.51,-0.84,9.19
49.334309,3.971212,31.14,-1.81,0.05,10.4
49.334309,3.971212,31.14,-1.42,0.01,9.92
49.334545,3.97098,31.24,-1.37,-1.42,9.69
49.334545,3.97098,31.24,-0.88,0.11,9.81
49.334782,3.97075,31.24,-0.76,1.03,8.71
49.334782,3.97075,31.24,-1.81,-0.09,9.05
49.335021,3.970522,31.21,-2.27,-1.39,10.03
49.335021,3.970522,31.21,-2.13,0.8,11.39
49.335261,3.970298,31.16,-1.48,-1.85,9.96
49.335261,3.970298,31.16,-1.31,-0.44,8.11
49.3355,3.970074,31.08,-2.77,0.29,10.5
49.3355,3.970074,31.08,-2.01,-1.12,10.41
49.335739,3.96985,31.14,-2.08,0.11,8.86
49.335739,3.96985,31.14,-1.16,-0.21,9.46
49.33598,3.969631,31.25,-1.16,0.47,10.55
49.33598,3.969631,31.25,-1.93,-0.54,9.05
49.336226,3.969414,31.38,-1.81,-0.66,10.61
49.336226,3.969414,31.38,-2.34,-1.1,10.75
49.336472,3.969197,31.47,-2.24,-0.03,10.15
49.336472,3.969197,31.47,-2.3,-0.41,10.08
49.336716,3.968976,31.57,-2.83,0.19,10.75
49.33696,3.968754,31.68,-1.22,-0.56,9.83
49.33696,3.968754,31.68,-1.35,-0.73,8.6
49.337205,3.968533,31.68,-1.29,-0.35,8.88
49.337205,3.968533,31.68,-1.42,1.25,10.34
49.337452,3.968312,31.76,-1.97,0.02,10.06
49.337452,3.968312,31.76,-1.56,-0.84,9.93
49.337701,3.968095,31.77,-1.02,-0.19,8.64
49.337701,3.968095,31.77,-1.32,-0.26,8.99
49.337951,3.967878,31.86,-1.94,0.1,9.59
49.337951,3.967878,31.86,-1.3,0.77,9.92
49.338201,3.96766,31.88,-1.32,0.37,9.99
49.338201,3.96766,31.88,-1.25,0.83,10.22
49.33844,3.967427,31.96,-1.34,0.08,9.65
49.33844,3.967427,31.96,-1.98,-1.03,9.42
49.338688,3.967208,31.98,-1.25,-0.93,8.48
49.338688,3.967208,31.98,-2.03,-0.95,9.42
49.338941,3.966996,32.03,-2.36,-0.48,9.89
49.338941,3.966996,32.03,-2.75,-0.58,8.89
49.339194,3.966778,32.2,-2.33,0.33,11.35
49.339194,3.966778,32.2,-2.47,0.46,10.54
49.339447,3.966563,32.18,-2.53,0.11,9.76
49.339447,3.966563,32.18,-2.16,1.16,10.3
49.339702,3.96635,32.29,-1.65,-0.27,9.52
49.339702,3.96635,32.29,-2.55,-0.55,10.68
49.339957,3.966141,32.37,-1.47,-0.98,9.82
49.339957,3.966141,32.37,-2.6,-0.79,10.75
49.340215,3.965932,32.43,-1.46,-0.01,10.36
49.340215,3.965932,32.43,-1.79,0.28,10.09
49.340476,3.965726,32.52,-2.14,-0.07,9.75
49.340476,3.965726,32.52,-2.78,0.32,10.97
49.340733,3.965517,32.58,-2.17,-0.47,8.72
49.340733,3.965517,32.58,-1.55,0.37,9.62
49.340997,3.965313,32.69,-1.32,-1.15,8.78
49.340997,3.965313,32.69,-2.11,-1.35,9.96
49.341262,3.965111,32.77,-1.79,-1.14,8.49
49.341262,3.965111,32.77,-0.06,1.12,10.11
49.341522,3.964909,32.74,-2.01,-0.44,11.16
49.341522,3.964909,32.74,-2.81,-0.22,11.43
49.341778,3.9647,32.49,-1.92,-0.53,9.56
49.341778,3.9647,32.49,-0.61,0.33,9.71
49.34203,3.964489,32.31,-1.23,-1.0,9.35
49.34203,3.964489,32.31,-0.64,0.04,8.3
49.342287,3.964292,31.95,-0.68,1.19,9.07
49.342287,3.964292,31.95,-2.0,0.18,10.29
49.342541,3.96409,31.64,-2.28,-0.51,9.87
49.342793,3.963897,31.34,-1.6,-1.84,7.81
49.342793,3.963897,31.34,-1.53,-0.15,10.57
49.343042,3.963705,31.13,-1.46,-1.19,10.12
49.343042,3.963705,31.13,-1.02,-0.25,9.33
49.34329,3.963521,30.98,-2.16,-0.82,9.7
49.34329,3.963521,30.98,-1.81,-1.44,10.55
49.343541,3.963339,30.94,-1.92,-0.91,9.96
49.343541,3.963339,30.94,-2.2,-1.89,7.59
49.343794,3.963162,30.68,-1.51,0.54,11.4
49.343794,3.963162,30.68,-0.86,-1.04,9.01
49.344044,3.962989,30.44,-2.05,0.42,11.15
49.344044,3.962989,30.44,-1.35,0.04,9.84
49.344294,3.962816,30.21,-2.12,-0.67,9.23
49.344294,3.962816,30.21,-0.97,-0.23,10.5
49.344543,3.962641,30.21,-2.22,-0.77,9.0
49.344543,3.962641,30.21,-0.95,-0.77,9.5
49.344791,3.962472,30.24,-2.42,-0.31,10.33
49.344791,3.962472,30.24,-1.43,0.0,9.86
49.345038,3.962304,30.32,-1.97,-0.45,10.2
49.345038,3.962304,30.32,-1.53,-0.32,10.74
49.345289,3.962131,30.35,-1.99,-0.36,8.72
49.345289,3.962131,30.35,-2.41,-0.58,10.6
49.345539,3.961956,30.52,-2.08,-0.8,8.87
49.345539,3.961956,30.52,-2.25,0.04,10.77
49.345789,3.961784,30.66,-2.47,-0.05,9.73
49.345789,3.961784,30.66,-2.3,0.48,10.3
49.346043,3.961614,30.95,-2.06,-0.2,8.91
49.346043,3.961614,30.95,-2.82,-0.23,10.8
49.346301,3.96145,31.28,-2.64,-0.85,10.1
49.346301,3.96145,31.28,-1.6,-0.09,9.93
49.346563,3.961289,31.48,-1.94,-0.92,9.65
49.346563,3.961289,31.48,-1.95,0.34,10.52
49.346822,3.961122,31.63,-2.09,-0.95,10.42
49.346822,3.961122,31.63,-1.33,0.2,9.59
49.347083,3.960953,31.78,-1.17,-0.78,8.65
49.347083,3.960953,31.78,-1.86,-0.01,8.92
49.347346,3.960789,31.74,-1.84,-0.49,9.1
49.347346,3.960789,31.74,-1.22,0.83,10.1
49.347608,3.960622,31.51,-1.63,-0.9,8.54
49.347608,3.960622,31.51,-2.17,-0.29,10.34
49.347871,3.960457,31.3,-1.92,-0.19,11.24
49.348134,3.960291,31.09,-1.96,-1.92,9.82
49.348134,3.960291,31.09,-2.1,-0.5,9.6
49.348393,3.960128,31.08,-1.76,-1.39,8.75
49.348393,3.960128,31.08,-1.9,-0.63,9.99
49.34865,3.959963,31.1,-1.86,-1.07,10.24
49.34865,3.959963,31.1,-1.31,-0.53,9.18
49.348908,3.959797,31.14,-2.15,-0.52,9.71
49.348908,3.959797,31.14,-2.01,0.68,10.18
49.349168,3.959633,31.2,-2.07,-0.68,9.62
49.349168,3.959633,31.2,-2.05,-0.62,10.22
49.349422,3.959467,31.3,-1.42,0.42,9.29
49.349422,3.959467,31.3,-1.81,-0.11,10.41
49.349679,3.959294,31.39,-1.49,-0.48,10.2
49.349679,3.959294,31.39,-2.12,-0.11,9.85
49.349942,3.959124,31.48,-1.7,-0.49,9.24
49.349942,3.959124,31.48,-1.13,-0.23,11.32
49.350203,3.958956,31.32,-0.57,-0.82,10.66
49.350203,3.958956,31.32,-1.15,-0.26,9.84
49.350463,3.958788,31.08,-2.32,0.07,10.44
49.350463,3.958788,31.08,-2.04,-0.33,10.54
49.350723,3.958626,31.01,-2.1,-0.44,10.47
49.350723,3.958626,31.01,-1.59,0.34,9.75
49.350979,3.958457,31.22,-2.75,-0.71,8.66
49.350979,3.958457,31.22,-2.21,0.64,9.6
49.351246,3.958298,31.38,-2.27,-1.24,10.46
49.351246,3.958298,31.38,-2.24,-1.18,9.71
49.351507,3.958136,31.6,-2.5,-1.16,8.34
49.351507,3.958136,31.6,-2.31,-0.84,10.77
49.351763,3.957966,31.76,-2.16,-1.1,10.52
49.351763,3.957966,31.76,-2.15,-1.29,10.66
49.352023,3.957797,31.71,-1.44,0.11,9.53
49.352023,3.957797,31.71,-1.91,0.34,10.34
49.352282,3.95763,31.63,-2.18,0.26,10.26
49.352282,3.95763,31.63,-2.01,-0.32,10.78
49.352544,3.957459,31.69,-1.71,0.26,10.04
49.352544,3.957459,31.69,-1.93,-0.32,8.9
49.35281,3.957296,31.78,-2.15,0.28,9.83
49.35281,3.957296,31.78,-1.94,0.17,10.12
49.353077,3.957128,31.89,-2.43,0.16,10.64
49.353077,3.957128,31.89,-2.02,-0.32,10.41
49.353341,3.956955,31.92,-2.01,1.4,9.81
49.353341,3.956955,31.92,-1.56,-0.39,10.03
49.353607,3.956786,32.01,-2.08,-1.33,9.08
49.353873,3.956625,32.12,-2.01,-0.98,9.4
49.353873,3.956625,32.12,-2.76,-1.12,10.15
49.35414,3.956466,32.17,-2.31,-0.27,10.9
49.35414,3.956466,32.17,-2.08,0.75,11.33
49.354407,3.956302,32.17,-1.97,0.32,11.19
49.354407,3.956302,32.17,-1.68,0.27,10.0
49.354674,3.95614,32.27,-1.53,0.13,9.74
49.354674,3.95614,32.27,-1.86,-1.08,9.29
49.354945,3.955978,32.42,-1.74,-0.89,10.81
49.354945,3.955978,32.42,-2.79,-0.27,10.75
49.355223,3.955828,32.51,-1.79,-0.54,10.39
49.355223,3.955828,32.51,-1.69,0.13,10.51
49.355502,3.955678,32.6,-1.5,0.36,9.96
49.355502,3.955678,32.6,-0.95,0.51,9.81
49.355779,3.955527,32.06,-1.25,-1.22,10.17
49.355779,3.955527,32.06,-1.7,-1.04,11.01
49.35605,3.955372,31.56,-1.49,0.47,9.98
49.35605,3.955372,31.56,-1.34,-1.76,8.79
49.356319,3.955226,31.27,-1.72,-0.38,9.5
49.356319,3.955226,31.27,-1.9,-0.27,9.52
49.356584,3.955075,31.12,-2.08,0.13,10.65
49.356584,3.955075,31.12,-2.54,-0.79,10.29
49.356847,3.954921,31.2,-2.41,-0.65,9.84
49.356847,3.954921,31.2,-1.95,0.53,10.1
49.35711,3.954769,31.31,-1.68,0.74,10.11
49.35711,3.954769,31.31,-1.24,-0.58,8.22
49.357374,3.954619,31.5,-2.56,0.71,10.04
49.357374,3.954619,31.5,-2.19,1.4,11.13
49.357645,3.954471,31.67,-2.16,0.47,11.39
49.357645,3.954471,31.67,-1.88,-0.38,9.87
49.357915,3.954327,31.87,-1.88,0.74,10.41
49.357915,3.954327,31.87,-1.53,-0.2,9.77
49.358187,3.954185,31.93,-0.98,0.19,9.33
49.358187,3.954185,31.93,-1.22,-0.38,9.17
49.358459,3.954042,32.16,-2.31,-0.14,9.23
49.358459,3.954042,32.16,-2.27,-1.18,8.59
49.358734,3.953895,32.46,-2.57,-1.07,10.18
49.358734,3.953895,32.46,-1.92,-0.04,9.5
49.359009,3.953748,32.45,-1.13,0.65,9.09
49.359009,3.953748,32.45,-1.5,1.25,10.23
49.359285,3.9536,32.49,-1.72,-0.62,8.7
49.359564,3.953455,32.5,-1.53,-0.56,10.57
49.359564,3.953455,32.5,-0.67,-0.78,10.04
49.35984,3.95332,31.75,-1.44,-0.47,10.76
49.35984,3.95332,31.75,-0.76,0.44,10.5
49.360108,3.953195,31.13,-0.32,0.15,9.47
49.360108,3.953195,31.13,-0.96,0.25,9.41
49.360371,3.953068,30.56,-0.85,-0.28,10.19
49.360371,3.953068,30.56,-1.14,-3.89,10.66
49.360631,3.95294,30.08,-2.03,-1.09,10.19
49.360631,3.95294,30.08,-1.87,0.13,9.68
49.360885,3.952808,29.47,-1.68,-1.04,9.01
49.360885,3.952808,29.47,-1.73,-0.4,10.5
49.361137,3.952675,29.55,-2.4,-0.43,9.31
49.361137,3.952675,29.55,-3.89,0.0,8.83
49.361391,3.952541,29.78,-2.2,-0.66,7.9
49.361391,3.952541,29.78,-1.49,0.64,9.68
49.361649,3.952408,30.13,-2.45,-0.66,8.85
49.361649,3.952408,30.13,-1.62,-0.88,8.24
49.361906,3.952285,30.44,-1.94,-0.58,9.68
49.361906,3.952285,30.44,-1.87,0.51,10.28
49.362167,3.952165,30.81,-2.26,0.05,9.38
49.362167,3.952165,30.81,-2.05,0.33,9.81
49.362433,3.952041,31.28,-2.82,-0.76,10.2
49.362433,3.952041,31.28,-2.93,-0.89,9.97
49.362703,3.951914,31.52,-2.62,-0.68,9.98
49.362703,3.951914,31.52,-2.26,-0.65,9.01
49.362976,3.951786,31.84,-2.59,-0.43,10.48
49.362976,3.951786,31.84,-2.36,-0.92,10.84
49.363249,3.951659,32.12,-2.44,-0.92,10.37
49.363249,3.951659,32.12,-1.98,-0.4,10.6
49.363528,3.951531,32.43,-1.47,0.21,10.39
49.363528,3.951531,32.43,-2.57,-0.6,9.95
49.36381,3.951403,32.6,-2.31,-0.67,10.41
49.36381,3.951403,32.6,-1.75,-0.79,9.97
49.364092,3.951275,32.61,-1.12,-0.27,9.75
49.364092,3.951275,32.61,-2.33,-0.42,11.46
49.364372,3.951149,32.03,-1.69,-0.99,10.41
49.364372,3.951149,32.03,-1.76,-0.32,9.35
49.364648,3.951031,31.58,-1.84,-1.43,10.49
49.364648,3.951031,31.58,-2.23,-0.97,11.05
49.36492,3.950913,31.45,-2.44,-1.0,10.79
49.36492,3.950913,31.45,-1.07,-0.4,8.99
49.365193,3.950791,31.24,-0.81,-0.19,9.29
49.36546,3.950675,31.12,-1.91,0.09,9.62
49.36546,3.950675,31.12,-2.1,-0.68,10.61
49.36573,3.95056,31.0,-1.84,0.05,9.2
49.36573,3.95056,31.0,-1.49,0.04,8.74
49.365999,3.950453,31.02,-1.77,-0.35,9.35
49.365999,3.950453,31.02,-2.2,-0.78,9.86
49.366268,3.950342,31.15,-2.94,-0.36,10.2
49.366268,3.950342,31.15,-2.15,-0.72,9.64
49.366538,3.950226,31.38,-1.56,-0.21,8.32
49.366538,3.950226,31.38,-1.59,0.17,9.15
49.366811,3.950116,31.46,-1.89,-0.42,8.77
49.366811,3.950116,31.46,-1.54,0.1,10.17
49.367085,3.950005,31.73,-2.2,0.8,10.34
49.367085,3.950005,31.73,-1.73,-0.4,8.14
49.367363,3.949892,31.79,-1.65,-0.21,10.18
49.367363,3.949892,31.79,-1.28,-0.11,9.13
49.367642,3.949785,31.61,-1.78,-0.91,10.74
49.367642,3.949785,31.61,-2.28,-0.77,10.48
49.367917,3.949679,31.29,-1.77,-0.37,10.97
49.367917,3.949679,31.29,-2.57,-0.7,10.64
49.3682,3.949572,31.45,-2.09,-0.48,10.5
49.3682,3.949572,31.45,-1.93,-0.37,9.45
49.368476,3.949463,31.62,-1.56,0.36,9.66
49.368476,3.949463,31.62,-1.75,-0.85,8.87
49.368749,3.949357,31.63,-1.58,0.17,9.79
49.368749,3.949357,31.63,-1.7,0.08,9.6
49.369022,3.949254,31.65,-1.33,-0.11,8.74
49.369022,3.949254,31.65,-1.73,-0.14,9.12
49.369296,3.949148,31.68,-1.4,0.69,11.32
49.369296,3.949148,31.68,-2.02,-0.61,9.67
49.369573,3.949044,31.67,-1.69,0.34,9.16
49.369573,3.949044,31.67,-1.62,0.1,10.51
49.369848,3.948944,31.88,-1.28,0.13,9.6
49.369848,3.948944,31.88,-1.27,0.81,9.88
49.370129,3.948843,32.07,-1.28,-0.11,9.27
49.370129,3.948843,32.07,-1.7,-0.29,8.66
49.370411,3.94874,32.24,-2.55,-0.82,10.28
49.370694,3.948639,32.24,-2.44,-0.55,11.28
49.370694,3.948639,32.24,-2.34,0.0,11.45
49.370977,3.948541,32.22,-2.44,-0.05,11.66
49.370977,3.948541,32.22,-1.89,-0.9,10.38
49.37126,3.948445,32.09,-1.57,-0.84,10.35
49.37126,3.948445,32.09,-1.53,0.33,9.45
49.37154,3.948347,32.1,-1.78,-0.01,8.6
49.37154,3.948347,32.1,-1.48,-0.04,9.1
49.371821,3.948248,31.95,-1.32,-0.41,8.44
49.371821,3.948248,31.95,-1.52,-0.93,8.17
49.3721,3.948151,31.95,-1.95,-0.51,8.62
49.3721,3.948151,31.95,-1.82,-0.63,9.65
49.372385,3.948035,31.92,-2.34,-0.05,10.86
49.372385,3.948035,31.92,-1.47,-0.23,9.06
49.372669,3.947941,31.87,-1.55,-1.43,8.19
49.372669,3.947941,31.87,-1.46,-0.89,9.18
49.37295,3.94785,31.84,-1.8,-0.18,11.65
49.37295,3.94785,31.84,-1.46,-0.92,9.09
49.373228,3.947761,31.8,-2.7,-0.05,10.08
49.373228,3.947761,31.8,-2.16,0.53,11.83
49.373508,3.947675,31.87,-1.56,-1.16,7.47
49.373508,3.947675,31.87,-1.5,-0.74,8.4
49.373786,3.947587,31.82,-2.35,-0.77,9.68
49.373786,3.947587,31.82,-1.67,0.01,9.32
49.374066,3.947502,31.82,-1.75,-0.84,8.02
49.374066,3.947502,31.82,-1.43,-0.44,9.01
49.374341,3.947418,31.83,-1.3,0.68,9.52
49.374341,3.947418,31.83,-1.59,-0.68,8.05
49.374624,3.947336,31.8,-1.19,-1.55,8.03
49.374624,3.947336,31.8,-2.49,-0.54,10.88
49.374904,3.947254,31.87,-2.4,-0.67,8.6
49.374904,3.947254,31.87,-2.12,0.44,11.36
49.375188,3.947172,31.84,-2.1,-0.06,10.07
49.375188,3.947172,31.84,-2.02,-0.32,8.48
49.375469,3.947089,31.82,-1.92,-1.12,8.89
49.375469,3.947089,31.82,-1.92,-0.72,10.4
49.375751,3.947008,31.83,-1.83,-0.08,8.66
49.375751,3.947008,31.83,-1.66,-0.82,8.79
49.376029,3.946928,31.85,-2.13,-0.21,9.63
49.376029,3.946928,31.85,-2.17,-0.17,8.54
49.376312,3.946848,31.88,-2.14,-0.97,9.04
49.376591,3.94677,31.96,-2.37,-0.67,10.83
49.376591,3.94677,31.96,-2.16,-1.28,9.07
49.376875,3.946695,32.03,-2.7,-0.94,10.25
49.376875,3.946695,32.03,-1.96,0.02,11.26
49.377164,3.946617,32.14,-2.3,-1.24,10.63
49.377164,3.946617,32.14,-1.87,-0.23,10.39
49.377454,3.946546,32.18,-1.52,-0.19,8.82
49.377454,3.946546,32.18,-1.47,-0.36,9.87
49.377741,3.946469,32.24,-1.55,1.3,10.06
49.377741,3.946469,32.24,-1.77,-0.89,8.44
49.378031,3.946398,32.37,-2.13,-0.82,8.17
49.378031,3.946398,32.37,-2.45,-0.21,10.37
49.378319,3.946326,32.31,-1.48,-0.76,9.62
49.378319,3.946326,32.31,-1.32,-0.51,9.28
49.378607,3.946254,32.09,-1.81,-1.54,10.2
49.378607,3.946254,32.09,-1.05,-0.26,9.33
49.378893,3.946185,31.83,-1.46,0.21,9.86
49.378893,3.946185,31.83,-1.41,-0.3,9.58
49.379171,3.946112,31.94,-2.1,0.92,9.62
49.379171,3.946112,31.94,-1.84,-0.7,8.01
49.379453,3.946042,31.99,-1.34,0.36,9.84
49.379453,3.946042,31.99,-2.31,-0.57,8.1
49.379734,3.945963,31.96,-2.58,-1.42,7.99
49.379734,3.945963,31.96,-2.43,-0.58,11.2
49.380013,3.94588,32.01,-2.37,0.18,11.42
49.380013,3.94588,32.01,-2.31,0.05,11.48
49.380295,3.945799,32.09,-1.91,-0.2,11.23
49.380295,3.945799,32.09,-1.81,-0.21,10.62
49.380581,3.945719,32.26,-1.66,-0.41,10.76
49.380581,3.945719,32.26,-1.4,-0.74,9.55
49.380866,3.945645,31.53,-1.03,-0.5,8.5
49.380866,3.945645,31.53,-2.07,-1.24,10.59
49.381148,3.945573,31.61,-1.44,-0.86,10.86
49.381148,3.945573,31.61,-1.85,-1.13,11.75
49.381426,3.945499,31.4,-0.82,-0.37,9.32
49.381426,3.945499,31.4,-0.9,-0.05,8.75
49.381699,3.945426,30.72,-2.06,-0.69,10.29
49.381699,3.945426,30.72,-2.36,0.16,9.01
49.381967,3.945353,30.71,-1.68,0.17,8.95
49.381967,3.945353,30.71,-2.26,0.26,10.89
49.382242,3.945282,30.96,-1.96,-0.52,9.5
49.382521,3.945214,31.32,-2.56,-1.11,9.32
49.382521,3.945214,31.32,-1.51,0.76,10.16
49.382797,3.945143,31.57,-1.8,0.9,9.16
49.382797,3.945143,31.57,-1.82,-0.56,8.39
49.383081,3.945073,32.01,-1.24,-0.38,9.45
49.383081,3.945073,32.01,-2.31,-0.7,9.23
49.383367,3.945001,32.33,-3.01,-1.48,11.25
49.383367,3.945001,32.33,-2.49,-1.33,8.63
49.383659,3.944928,32.56,-2.0,-0.72,10.07
49.383659,3.944928,32.56,-2.39,0.42,9.57
49.383945,3.944847,32.89,-2.02,-0.44,9.68
49.383945,3.944847,32.89,-2.45,-1.08,10.74
49.384233,3.94476,33.01,-2.09,0.61,10.13
49.384233,3.94476,33.01,-2.01,-0.61,9.78
49.384524,3.944672,33.0,-1.39,-1.32,9.46
49.384524,3.944672,33.0,-1.16,0.0,9.55
49.384817,3.944586,32.73,-2.1,-1.19,8.24
49.384817,3.944586,32.73,-2.22,-1.01,8.96
49.385104,3.944506,32.34,-3.02,-0.47,10.87
49.385104,3.944506,32.34,-1.75,-0.1,10.41
49.385385,3.944425,32.19,-2.27,0.16,11.31
49.385385,3.944425,32.19,-1.6,-0.4,9.99
49.385668,3.94435,32.25,-1.95,-1.03,9.16
49.385668,3.94435,32.25,-1.96,-0.45,10.02
49.385955,3.944276,32.35,-2.42,-1.22,9.33
49.385955,3.944276,32.35,-2.34,-0.19,11.37
49.386248,3.944201,32.4,-2.29,-0.1,11.44
49.386248,3.944201,32.4,-1.16,-0.86,9.72
49.386536,3.944118,32.56,-2.61,-1.13,8.67
49.386536,3.944118,32.56,-2.52,-0.63,9.73
49.386823,3.944028,32.73,-2.73,-0.31,11.42
49.386823,3.944028,32.73,-0.63,0.53,9.21
49.387109,3.94393,32.77,-2.21,-1.36,8.28
49.387109,3.94393,32.77,-2.15,-2.36,7.36
49.387396,3.94383,32.79,-0.85,0.09,9.65
49.387396,3.94383,32.79,-1.89,-0.51,10.34
49.387684,3.943733,32.75,-1.81,-0.41,10.04
49.387684,3.943733,32.75,-1.77,0.13,10.84
49.38797,3.943634,32.55,-1.16,-0.7,8.48
49.38797,3.943634,32.55,-1.81,-1.32,8.7
49.388253,3.943533,32.32,-0.94,0.33,9.99
49.388533,3.943429,32.14,-1.29,-0.95,9.97
49.388533,3.943429,32.14,-0.75,-0.11,9.95
49.38881,3.94332,31.94,-1.45,-1.27,9.68
49.38881,3.94332,31.94,-1.35,0.63,9.52
49.389088,3.943213,31.74,-0.96,1.45,9.15
49.389088,3.943213,31.74,-1.79,-0.46,9.57
49.389363,3.943113,31.83,-2.03,-0.68,10.54
49.389363,3.943113,31.83,-1.55,0.52,10.14
49.389642,3.943014,32.03,-2.27,-0.51,9.67
49.389642,3.943014,32.03,-2.49,-2.19,10.26
49.389926,3.942916,32.23,-2.23,-0.85,10.29
49.389926,3.942916,32.23,-2.02,-0.85,8.9
49.39021,3.942812,32.43,-0.38,-0.99,8.18
49.39021,3.942812,32.43,-0.84,-0.56,8.87
49.390492,3.942694,32.63,-0.91,-1.13,8.99
49.390492,3.942694,32.63,-2.46,-0.34,11.58
49.390773,3.942579,32.65,-1.96,-0.13,11.18
49.390773,3.942579,32.65,-1.0,-0.39,9.37
49.391056,3.942465,32.69,-2.14,-0.38,10.82
49.391056,3.942465,32.69,-1.8,-0.49,11.12
49.391338,3.942349,32.75,-2.62,-0.28,10.86
49.391338,3.942349,32.75,-1.47,-0.27,8.99
49.391622,3.942229,32.83,-1.31,-0.28,8.87
49.391622,3.942229,32.83,-1.69,-0.44,10.81
49.391908,3.942106,32.9,-1.04,0.54,10.06
49.391908,3.942106,32.9,-1.98,-0.62,11.08
49.392195,3.941981,32.96,-2.15,-0.11,11.22
49.392195,3.941981,32.96,-1.48,0.41,9.02
49.392482,3.941858,33.08,-1.96,0.09,11.12
49.392482,3.941858,33.08,-1.55,-0.16,10.02
49.39277,3.941734,33.21,-1.38,-0.73,10.0
49.39277,3.941734,33.21,-1.47,-1.67,8.64
49.393059,3.941606,33.36,-0.78,0.01,8.93
49.393059,3.941606,33.36,-1.87,-0.23,11.2
49.39335,3.941477,33.49,-0.89,0.5,10.23
49.39335,3.941477,33.49,-1.58,-0.64,10.65
49.393638,3.941344,33.03,-0.49,-0.55,8.66
49.393638,3.941344,33.03,-0.22,-0.94,9.33
49.393922,3.941215,32.7,-0.7,-0.84,8.94
49.393922,3.941215,32.7,-2.2,-0.48,11.54
49.394204,3.94109,32.42,-1.96,-1.37,10.12
49.394204,3.94109,32.42,-2.43,-1.13,8.48
49.394484,3.94096,32.2,-0.54,0.55,9.49
49.394764,3.940827,32.47,-1.57,-0.97,10.53
49.394764,3.940827,32.47,-1.6,-1.44,8.14
49.395042,3.940693,32.46,-1.94,-0.55,11.02
49.395042,3.940693,32.46,-2.17,-1.42,9.68
49.395322,3.940554,32.51,-1.51,0.9,9.88
49.395322,3.940554,32.51,-2.29,-0.36,10.02
49.395601,3.940415,32.58,-2.68,-0.21,11.07
49.395601,3.940415,32.58,-2.81,-1.38,10.0
49.395878,3.940276,32.81,-1.48,0.34,9.96
49.395878,3.940276,32.81,-1.92,-0.25,9.69
49.396161,3.940141,32.83,-2.86,-0.66,9.85
49.396161,3.940141,32.83,-1.03,-0.47,8.46
49.396444,3.939999,33.03,-2.71,-1.42,10.81
49.396444,3.939999,33.03,-2.31,-1.86,10.18
49.396728,3.939855,33.18,-1.52,-0.96,9.4
49.396728,3.939855,33.18,-2.19,-0.57,10.4
49.397011,3.93971,32.96,-1.59,-0.53,9.48
49.397011,3.93971,32.96,-1.7,-1.23,10.03
49.39729,3.939562,32.92,-2.48,0.58,10.31
49.39729,3.939562,32.92,-2.01,-0.48,9.96
49.397565,3.939413,32.91,-1.86,-0.22,10.07
49.397565,3.939413,32.91,-2.19,0.0,9.79
49.397843,3.939265,32.88,-2.65,-0.09,9.94
49.397843,3.939265,32.88,-0.79,-0.67,8.7
49.398119,3.939112,32.83,-2.66,-0.45,11.2
49.398119,3.939112,32.83,-1.56,-0.6,10.2
49.398395,3.938956,32.86,-1.1,0.17,9.69
49.398395,3.938956,32.86,-2.49,-0.3,10.63
49.398674,3.938809,32.63,-2.31,-0.02,10.76
49.398674,3.938809,32.63,-2.33,0.55,10.88
49.398946,3.938656,32.42,-1.47,-0.62,8.82
49.398946,3.938656,32.42,-1.59,0.11,10.05
49.399217,3.938502,32.34,-2.16,-1.38,9.89
49.399217,3.938502,32.34,-2.71,-1.51,9.92
49.399489,3.938351,32.12,-2.54,-1.38,10.22
49.399489,3.938351,32.12,-2.88,0.54,10.72
49.39976,3.938201,32.14,-1.88,-0.55,9.48
49.39976,3.938201,32.14,-1.77,0.56,10.45
49.40003,3.938053,32.07,-1.29,0.23,9.27
49.40003,3.938053,32.07,-2.08,-1.01,8.56
49.400299,3.937905,32.13,-1.31,0.6,9.69
49.400574,3.937758,32.2,-1.54,-0.98,8.5
49.400574,3.937758,32.2,-2.44,-0.84,9.29
49.400848,3.937608,32.23,-2.94,-0.77,10.11
49.400848,3.937608,32.23,-2.35,-0.17,10.92
49.401122,3.937459,32.39,-2.53,-1.02,10.21
49.401122,3.937459,32.39,-1.81,-1.28,7.72
49.401396,3.937308,32.36,-1.58,-0.42,9.64
49.401396,3.937308,32.36,-1.91,0.0,10.06
49.401672,3.93716,32.45,-1.99,-0.54,9.51
49.401672,3.93716,32.45,-1.66,-0.79,8.63
49.401949,3.937007,32.7,-2.34,-0.83,8.15
49.401949,3.937007,32.7,-1.33,-1.08,8.78
49.402226,3.936852,32.87,-0.34,-0.45,9.71
49.402226,3.936852,32.87,-2.06,-0.7,10.47
49.402503,3.936697,32.44,-1.37,-0.24,10.05
49.402503,3.936697,32.44,-1.33,-1.19,8.57
49.402775,3.936544,32.08,-0.64,-0.45,8.25
49.402775,3.936544,32.08,-0.66,-1.25,8.56
49.403048,3.936396,31.98,-1.13,-1.7,7.54
49.403048,3.936396,31.98,-1.02,0.14,9.48
49.403318,3.936247,31.81,-1.02,-1.2,9.91
49.403318,3.936247,31.81,-0.93,-0.86,10.04
49.403587,3.936094,31.8,-0.96,-0.07,9.43
49.403587,3.936094,31.8,-1.4,0.1,9.86
49.403853,3.935942,31.72,-1.63,1.22,9.95
49.403853,3.935942,31.72,-1.57,-0.31,9.25
49.404119,3.935788,31.87,-2.23,0.6,10.53
49.404119,3.935788,31.87,-1.62,0.53,10.79
49.404385,3.935635,32.08,-1.61,0.67,9.94
49.404385,3.935635,32.08,-1.54,-0.34,9.84
49.404655,3.935485,32.23,-2.21,-0.85,10.82
49.404655,3.935485,32.23,-2.28,0.71,10.28
49.404929,3.935336,32.25,-1.6,-0.59,9.5
49.404929,3.935336,32.25,-1.28,0.22,9.69
49.405203,3.935189,32.47,-2.21,-1.46,10.54
49.405203,3.935189,32.47,-2.09,-1.05,10.85
49.405482,3.935044,32.77,-2.47,0.24,10.18
49.405482,3.935044,32.77,-2.12,-0.92,9.15
49.405765,3.934902,33.09,-2.88,-0.94,9.87
49.405765,3.934902,33.09,-1.03,0.54,9.81
49.406051,3.934761,33.24,-2.15,-1.28,10.56
49.406051,3.934761,33.24,-2.36,0.68,10.38
49.40634,3.934619,33.32,-1.89,-0.59,9.27
49.406626,3.934478,33.19,-2.18,1.11,10.86
49.406626,3.934478,33.19,-1.48,0.41,9.94
49.406914,3.934345,33.39,-2.44,0.29,9.9
49.406914,3.934345,33.39,-1.03,-0.67,8.98
49.407203,3.934216,33.37,-2.64,-0.71,10.57
49.407203,3.934216,33.37,-1.5,0.87,9.73
49.40749,3.934088,33.2,-1.62,0.2,9.73
49.40749,3.934088,33.2,-1.93,0.47,10.05
49.407777,3.933966,33.18,-2.21,-1.37,9.29
49.407777,3.933966,33.18,-2.47,-0.78,11.16
49.408065,3.93385,33.07,-1.47,-1.21,8.41
49.408065,3.93385,33.07,-2.2,-0.96,9.15
49.408354,3.933741,33.09,-2.13,-0.82,9.62
49.408354,3.933741,33.09,-1.38,0.17,9.99
49.408639,3.933628,33.04,-2.31,-0.65,10.58
49.408639,3.933628,33.04,-2.22,0.23,10.83
49.408926,3.933518,33.01,-1.73,0.74,9.18
49.408926,3.933518,33.01,-2.21,-0.76,9.66
49.409214,3.933413,32.93,-1.7,-0.48,9.01
49.409214,3.933413,32.93,-1.57,-0.04,9.88
49.409503,3.933312,32.91,-2.86,-0.47,11.31
49.409503,3.933312,32.91,-2.49,1.03,11.65
49.409793,3.933213,32.87,-1.4,0.14,8.79
49.409793,3.933213,32.87,-2.39,-1.38,9.07
49.410082,3.933115,32.87,-2.35,-0.42,9.93
49.410082,3.933115,32.87,-1.14,0.64,9.45
49.410371,3.933019,32.82,-0.64,-0.75,9.74
49.410371,3.933019,32.82,-2.23,0.95,11.96
49.41066,3.932924,32.56,-1.3,-0.43,10.02
49.41066,3.932924,32.56,-1.56,-0.42,9.04
49.410943,3.932827,32.52,-1.83,0.62,10.22
49.410943,3.932827,32.52,-1.43,-0.47,9.36
49.411227,3.932736,32.49,-1.93,0.0,10.77
49.411227,3.932736,32.49,-1.66,0.79,9.48
49.411515,3.932653,32.48,-1.82,0.06,11.14
49.411515,3.932653,32.48,-2.27,-0.79,7.38
49.411804,3.932574,32.44,-1.6,0.4,10.91
49.411804,3.932574,32.44,-1.71,0.7,10.52
49.412095,3.932499,32.33,-1.79,0.62,10.74
49.412095,3.932499,32.33,-2.26,0.55,9.08
49.412378,3.932421,32.26,-1.13,0.79,9.42
49.412378,3.932421,32.26,-1.62,-1.38,8.26
49.412663,3.932346,32.21,-1.29,0.56,11.22
49.412954,3.932271,32.18,-0.37,1.33,11.54
49.412954,3.932271,32.18,-1.12,1.25,10.57
49.413244,3.932201,31.98,-1.43,0.09,10.2
49.413244,3.932201,31.98,-1.61,0.73,10.53
49.413534,3.932136,31.91,-1.51,0.93,11.17
49.413534,3.932136,31.91,-2.74,-0.27,11.32
49.413818,3.932085,31.75,-1.4,0.06,9.66
49.413818,3.932085,31.75,-2.09,-0.83,10.49
49.414104,3.932031,31.74,-2.1,-0.31,9.72
49.414104,3.932031,31.74,-1.33,1.2,9.91
49.414385,3.931974,31.75,-1.51,0.3,11.2
49.414385,3.931974,31.75,-1.39,1.05,11.78
49.414666,3.93192,31.78,-1.57,-0.41,10.07
49.414666,3.93192,31.78,-1.4,0.93,10.59
49.414948,3.931867,31.7,-1.51,1.11,9.61
49.414948,3.931867,31.7,-2.16,0.77,10.22
49.415232,3.931819,31.82,-1.18,0.55,10.37
49.415232,3.931819,31.82,-1.57,-0.32,9.93
49.415521,3.931778,31.87,-1.0,0.24,10.61
49.415521,3.931778,31.87,-1.42,0.34,9.69
49.415809,3.931738,31.97,-1.26,-0.08,8.94
49.415809,3.931738,31.97,-2.53,-1.04,9.9
49.416096,3.931697,32.04,-2.22,0.66,10.98
49.416096,3.931697,32.04,-2.42,-0.49,11.08
49.416381,3.931659,32.19,-2.22,0.12,9.36
49.416381,3.931659,32.19,-2.15,0.2,9.66
49.416669,3.931625,32.34,-1.89,-0.05,8.71
49.416669,3.931625,32.34,-1.15,0.43,10.44
49.416959,3.931595,32.36,-1.35,0.19,10.55
49.416959,3.931595,32.36,-0.51,-0.03,10.47
49.417252,3.931569,32.46,-2.55,-0.43,10.99
49.417252,3.931569,32.46,-1.83,0.34,10.79
49.417545,3.931545,32.52,-2.25,0.91,10.63
49.417545,3.931545,32.52,-2.34,-1.04,9.27
49.417838,3.931523,32.63,-2.26,0.2,9.75
49.417838,3.931523,32.63,-1.93,0.59,13.35
49.418132,3.931504,32.7,-1.34,0.44,12.88
49.418132,3.931504,32.7,-1.79,-0.02,9.17
49.418427,3.931486,32.81,-0.53,0.43,11.58
49.418427,3.931486,32.81,-2.43,0.2,10.25
49.418724,3.931474,32.91,-1.12,0.29,9.61
49.418724,3.931474,32.91,-2.11,0.31,10.85
49.419023,3.931466,33.03,-3.04,-1.51,10.64
49.419023,3.931466,33.03,-1.23,-1.1,9.58
49.419319,3.931457,33.12,-1.19,0.48,10.29
49.419619,3.93145,33.13,-1.88,0.73,10.49
49.419619,3.93145,33.13,-0.66,0.89,10.4
49.419918,3.931443,33.14,-1.59,-1.32,11.05
49.419918,3.931443,33.14,-1.66,-1.11,9.51
49.420214,3.931438,33.08,-1.63,0.07,9.75
49.420214,3.931438,33.08,-1.7,-0.67,9.39
49.420509,3.931438,33.15,-1.22,-0.51,9.04
49.420509,3.931438,33.15,-1.68,-0.09,10.88
49.420806,3.931439,33.16,-1.37,0.63,9.92
49.420806,3.931439,33.16,-1.24,0.57,9.76
49.421104,3.93144,33.06,-2.33,-1.12,9.59
49.421104,3.93144,33.06,-0.95,-0.42,9.35
49.421405,3.93144,32.99,-2.05,0.12,11.22
49.421405,3.93144,32.99,-2.74,-0.24,10.31
49.421702,3.931444,32.93,-2.15,0.79,10.09
49.421702,3.931444,32.93,-1.61,0.3,9.88
49.421996,3.931448,32.87,-2.1,-0.5,10.35
49.421996,3.931448,32.87,-0.75,-0.36,8.96
49.422292,3.931449,32.89,-0.75,-0.39,10.43
49.422292,3.931449,32.89,-2.35,-1.16,11.06
49.422587,3.931453,32.75,-2.67,-0.56,10.56
49.422587,3.931453,32.75,-2.43,-1.0,9.09
49.422883,3.931455,32.7,-1.39,0.5,10.32
49.422883,3.931455,32.7,-1.92,-0.94,9.99
49.423179,3.931455,32.57,-1.85,-0.8,9.64
49.423179,3.931455,32.57,-1.54,-0.47,9.06
49.423469,3.931457,32.55,-2.15,0.04,9.49
49.423469,3.931457,32.55,-1.62,-0.42,10.38
49.423758,3.931459,32.36,-2.61,-0.56,10.04
49.423758,3.931459,32.36,-2.58,-0.63,9.86
49.424047,3.931457,32.37,-2.16,0.27,10.32
49.424047,3.931457,32.37,-1.12,-0.23,9.9
49.424334,3.931459,32.32,-1.16,-0.09,9.36
49.424334,3.931459,32.32,-1.79,0.29,9.0
49.424622,3.931458,32.29,-1.57,0.1,9.82
49.424622,3.931458,32.29,-3.0,-0.66,10.46
49.424914,3.931454,32.39,-3.13,-1.21,10.58
49.424914,3.931454,32.39,-1.88,-0.17,9.36
49.425205,3.931451,32.27,-2.05,-0.62,8.79
49.425205,3.931451,32.27,-1.72,0.45,9.86
49.425496,3.931444,32.4,-2.4,-0.64,9.88
49.425496,3.931444,32.4,-2.37,-0.71,8.98
49.425789,3.931433,32.49,-2.64,-0.72,9.96
49.426085,3.93142,32.57,-0.95,-0.25,9.27
49.426085,3.93142,32.57,-2.13,-1.41,9.66
49.426375,3.931411,32.63,-2.49,-0.71,11.07
49.426375,3.931411,32.63,-2.93,-1.02,9.73
49.426663,3.931397,32.69,-0.24,-0.06,8.43
49.426663,3.931397,32.69,-1.67,0.81,10.66
49.426954,3.931382,32.67,-2.5,-0.4,12.43
49.426954,3.931382,32.67,-2.2,-0.09,9.67
49.427249,3.931365,32.68,-1.49,0.13,9.36
49.427249,3.931365,32.68,-2.57,-0.48,11.38
49.427548,3.931344,32.82,-2.29,-0.53,9.55
49.427548,3.931344,32.82,-1.89,-0.43,10.64
49.427852,3.931323,32.95,-1.81,-0.62,10.68
49.427852,3.931323,32.95,-2.02,-1.15,8.8
49.428148,3.931304,32.99,-1.7,-0.17,9.36
49.428148,3.931304,32.99,-3.16,-1.72,10.29
49.42844,3.931281,33.18,-1.29,0.53,9.06
49.42844,3.931281,33.18,-3.33,-0.95,10.35
49.428735,3.931252,33.36,-2.12,-0.72,9.65
49.428735,3.931252,33.36,-1.44,-1.25,10.62
49.429031,3.931223,33.22,-1.36,0.1,8.91
49.429031,3.931223,33.22,-0.47,-0.34,9.9
49.429323,3.931192,32.96,-2.89,-1.77,10.78
49.429323,3.931192,32.96,-1.02,-0.75,9.06
49.42962,3.931162,32.89,-1.05,0.45,10.14
49.42962,3.931162,32.89,-2.53,-1.56,10.03
49.429916,3.93113,32.77,-1.92,-0.48,8.6
49.429916,3.93113,32.77,-1.27,-0.34,8.57
49.430209,3.931097,32.76,-2.72,-1.34,9.73
49.430209,3.931097,32.76,-2.28,-1.14,10.69
49.430504,3.931061,32.7,-0.79,-0.47,9.15
49.430504,3.931061,32.7,-0.19,-0.5,9.11
49.430795,3.93102,32.8,-2.25,-0.65,10.53
49.430795,3.93102,32.8,-1.75,-0.04,10.77
49.431086,3.930976,32.5,-1.6,-0.71,10.62
49.431086,3.930976,32.5,-1.86,-0.75,10.87
49.431373,3.930936,31.77,-2.4,-0.15,9.63
49.431373,3.930936,31.77,-2.4,-1.05,10.42
49.43166,3.930889,31.41,-2.81,-2.13,10.35
49.431943,3.930845,31.31,-2.01,-0.11,9.47
49.431943,3.930845,31.31,-1.18,-1.09,7.58
49.432221,3.930798,31.36,-1.57,-0.46,8.71
49.432221,3.930798,31.36,-2.03,-0.94,9.08
49.432501,3.930747,31.3,-2.17,-0.31,10.56
49.432501,3.930747,31.3,-1.9,-1.1,10.84
49.432779,3.930693,31.02,-2.18,-1.26,10.85
49.432779,3.930693,31.02,-1.31,-0.2,9.26
49.433056,3.930639,30.92,-1.72,-0.72,8.68
49.433056,3.930639,30.92,-2.4,0.07,10.1
49.433331,3.930589,31.0,-2.46,-0.76,10.72
49.433331,3.930589,31.0,-0.99,-1.05,8.56
49.433607,3.93054,31.07,-2.38,-1.04,9.4
49.433607,3.93054,31.07,-2.23,-0.68,10.62
49.433885,3.930487,30.99,-0.7,-0.71,9.03
49.433885,3.930487,30.99,-1.44,-0.7,9.06
49.434157,3.930431,30.37,-2.55,-1.8,9.99
49.434157,3.930431,30.37,-1.55,0.68,10.39
49.434428,3.930374,30.28,-2.34,-0.27,10.93
49.434428,3.930374,30.28,-1.86,-0.22,9.3
49.434693,3.930314,30.41,-2.57,0.5,9.49
49.434693,3.930314,30.41,-2.55,-0.52,9.24
49.434965,3.930253,30.58,-1.13,-0.26,9.91
49.434965,3.930253,30.58,-1.6,-0.23,9.62
49.435238,3.930193,30.72,-1.86,-0.18,10.37
49.435238,3.930193,30.72,-1.37,-0.81,8.26
49.435515,3.930127,30.78,-2.42,-0.65,9.62
49.435515,3.930127,30.78,-2.26,-1.09,10.0
49.435792,3.93006,30.76,-1.53,-0.41,9.67
49.435792,3.93006,30.76,-1.7,-0.5,8.36
49.43607,3.929991,31.09,-2.08,0.47,10.04
49.43607,3.929991,31.09,-2.53,-0.49,10.3
49.436346,3.929924,31.17,-2.0,-0.62,9.1
49.436346,3.929924,31.17,-1.45,1.41,10.04
49.436626,3.929854,31.34,-1.66,0.12,8.79
49.436626,3.929854,31.34,-1.6,-0.93,8.36
49.436903,3.929783,31.41,-2.35,0.54,9.57
49.436903,3.929783,31.41,-2.32,-0.82,10.91
49.437181,3.929715,31.39,-2.41,-1.28,9.97
49.437457,3.929651,31.38,-1.99,-0.71,9.78
49.437457,3.929651,31.38,-1.72,-0.7,9.61
49.437731,3.929583,31.48,-1.61,0.01,10.76
49.437731,3.929583,31.48,-1.2,-1.25,8.28
49.438013,3.929511,31.5,-1.73,-0.87,8.08
49.438013,3.929511,31.5,-2.16,0.04,10.38
49.438296,3.929441,31.49,-2.03,-0.69,9.99
49.438296,3.929441,31.49,-2.92,-0.82,10.05
49.438569,3.929371,31.53,-2.65,-0.69,10.42
49.438569,3.929371,31.53,-2.59,-0.7,11.11
49.438846,3.929306,31.64,-1.62,-0.75,9.2
49.438846,3.929306,31.64,-1.71,-1.05,9.1
49.439128,3.929238,31.72,-2.13,-0.08,9.06
49.439128,3.929238,31.72,-1.55,-0.27,10.03
49.439411,3.92917,31.78,-2.38,-0.73,10.12
49.439411,3.92917,31.78,-1.35,0.22,10.3
49.439693,3.929101,31.87,-1.58,-0.1,9.53
49.439693,3.929101,31.87,-1.62,-0.09,9.69
49.439972,3.929032,32.0,-2.73,-0.58,10.05
49.439972,3.929032,32.0,-1.94,-0.41,9.41
49.440255,3.92896,32.04,-2.26,-0.73,9.91
49.440255,3.92896,32.04,-2.26,-0.61,10.01
49.44054,3.928882,32.04,-2.67,-0.86,11.3
49.44054,3.928882,32.04,-2.23,-0.68,10.55
49.440825,3.928807,32.17,-2.37,0.27,10.3
49.440825,3.928807,32.17,-2.04,0.18,10.25
49.441112,3.928738,32.17,-1.75,-0.56,9.68
49.441112,3.928738,32.17,-1.62,-0.17,9.86
49.441395,3.928666,32.18,-2.95,-0.36,10.42
49.441395,3.928666,32.18,-1.92,-0.22,9.1
49.441682,3.928595,32.22,-3.02,-0.05,9.11
49.441682,3.928595,32.22,-1.74,-0.67,9.42
49.441971,3.928524,32.21,-2.72,-1.09,8.77
49.441971,3.928524,32.21,-2.21,-0.06,9.71
49.442262,3.928452,32.19,-0.57,0.33,9.76
49.442262,3.928452,32.19,-2.0,-0.69,9.15
49.442553,3.928384,32.18,-1.24,0.09,9.66
49.442553,3.928384,32.18,-2.32,-0.02,11.12
49.442839,3.928309,32.2,-2.22,-0.39,10.14
49.442839,3.928309,32.2,-2.79,-0.51,10.68
49.443128,3.928238,32.24,-2.02,0.0,10.61
49.443128,3.928238,32.24,-0.98,-0.35,9.0
49.443413,3.928162,32.34,-2.32,0.36,9.11
49.443696,3.928081,32.42,-1.86,0.31,10.56
49.443696,3.928081,32.42,-3.39,-0.79,9.96
49.443981,3.928004,32.5,-2.88,0.13,11.57
49.443981,3.928004,32.5,-2.0,0.51,10.76
49.444265,3.927924,32.54,-1.86,-0.87,9.34
49.444265,3.927924,32.54,-1.29,0.83,9.95
49.444547,3.927842,32.62,-2.95,-2.1,9.5
49.444547,3.927842,32.62,-2.41,-0.66,10.21
49.444833,3.927753,32.62,-1.71,0.07,9.62
49.444833,3.927753,32.62,-1.74,-0.3,8.89
49.445125,3.927659,32.6,-1.15,-0.19,9.82
49.445125,3.927659,32.6,-3.07,0.15,9.47
49.445414,3.927564,32.62,-1.68,0.39,8.56
49.445414,3.927564,32.62,-2.06,0.66,8.56
49.445704,3.927472,32.57,-0.62,-0.68,9.8
49.445704,3.927472,32.57,-2.76,-1.76,9.47
49.445994,3.927381,32.57,-2.44,-0.99,9.21
49.445994,3.927381,32.57,-1.66,0.16,9.89
49.446276,3.927284,32.57,-1.75,0.95,10.22
49.446276,3.927284,32.57,-2.52,-0.54,10.61
49.446563,3.927187,32.51,-2.07,-0.93,10.3
49.446563,3.927187,32.51,-2.77,-0.78,10.23
49.446848,3.927092,32.48,-1.7,0.29,9.56
49.446848,3.927092,32.48,-1.88,-1.4,9.93
49.447132,3.926988,32.49,-1.92,-0.62,10.49
49.447132,3.926988,32.49,-2.0,1.07,11.55
49.447417,3.926883,32.46,-1.67,-0.24,9.32
49.447417,3.926883,32.46,-1.42,-0.04,9.85
49.447704,3.92678,32.49,-1.79,0.54,10.52
49.447704,3.92678,32.49,-3.28,-1.02,9.85
49.447992,3.926679,32.51,-1.71,-0.77,9.02
49.447992,3.926679,32.51,-1.75,-0.28,9.28
49.448279,3.926573,32.53,-1.86,0.15,9.48
49.448279,3.926573,32.53,-1.98,-1.07,10.0
49.448564,3.926464,32.51,-2.94,-0.26,10.2
49.448564,3.926464,32.51,-1.78,-0.66,9.15
49.448852,3.926344,32.53,-1.84,-0.3,10.12
49.448852,3.926344,32.53,-1.19,0.99,9.84
49.449137,3.926222,32.51,-2.01,0.2,10.19
49.449416,3.926098,32.5,-1.98,1.31,9.87
49.449416,3.926098,32.5,-1.34,0.19,9.37
49.449695,3.925983,32.55,-1.55,-0.32,9.39
49.449695,3.925983,32.55,-2.43,-0.89,10.95
49.449978,3.925869,32.68,-1.98,-0.67,10.05
49.449978,3.925869,32.68,-2.74,-1.1,10.12
49.450263,3.92575,32.77,-2.34,0.67,9.94
49.450263,3.92575,32.77,-2.56,-0.75,9.17
49.450551,3.925628,32.92,-2.57,-0.07,11.46
49.450551,3.925628,32.92,-2.12,0.23,8.98
49.450835,3.925503,33.0,-2.41,0.12,8.94
49.450835,3.925503,33.0,-2.42,-0.73,10.45
49.451123,3.925379,33.09,-1.45,0.21,9.99
49.451123,3.925379,33.09,-2.51,-0.54,10.19
49.45141,3.925249,33.17,-1.74,-0.46,8.52
49.45141,3.925249,33.17,-2.64,-0.05,9.95
49.451697,3.925116,33.24,-2.48,-0.15,9.15
49.451697,3.925116,33.24,-2.27,0.63,10.2
49.451982,3.924982,33.28,-1.67,0.79,10.36
49.451982,3.924982,33.28,-0.8,-0.29,8.45
49.452268,3.924846,33.33,-3.16,-0.78,10.63
49.452268,3.924846,33.33,-2.34,0.08,9.53
49.452554,3.92471,33.36,-2.7,0.27,10.82
49.452554,3.92471,33.36,-1.47,-0.72,8.89
49.45284,3.924573,33.39,-1.73,-1.92,10.7
49.45284,3.924573,33.39,-1.42,0.35,9.62
49.453125,3.924434,33.4,-2.44,-0.97,10.37
49.453125,3.924434,33.4,-0.56,0.12,9.82
49.453409,3.924291,33.44,-2.52,-1.3,8.46
49.453409,3.924291,33.44,-1.38,0.45,9.51
49.453693,3.924145,33.47,-2.86,-1.31,9.39
49.453693,3.924145,33.47,-1.27,0.75,9.46
49.453974,3.923996,33.45,-2.62,-0.24,10.32
49.453974,3.923996,33.45,-1.83,-1.27,8.81
49.454255,3.923844,33.46,-2.13,0.25,9.63
49.454255,3.923844,33.46,-2.09,-0.52,9.84
49.454535,3.923695,33.49,-3.16,-1.72,10.04
49.454535,3.923695,33.49,-1.44,-0.54,8.49
49.454819,3.923546,33.48,-2.4,-0.02,10.94
49.454819,3.923546,33.48,-1.23,0.57,10.33
49.455098,3.923396,33.56,-1.51,0.68,9.58
49.455098,3.923396,33.56,-2.65,-1.39,9.39
49.455376,3.923241,33.49,-2.62,-0.92,9.94
49.455376,3.923241,33.49,-1.82,0.28,8.52
49.455652,3.923086,33.56,-2.63,-0.93,9.73
49.455932,3.922923,33.31,-1.9,-0.16,9.66
49.455932,3.922923,33.31,-2.24,0.53,9.3
49.456212,3.922757,33.46,-1.41,-0.88,7.75
49.456212,3.922757,33.46,-2.28,-0.72,10.8
49.456494,3.922593,33.4,-1.77,0.61,9.43
49.456494,3.922593,33.4,-2.12,-1.42,9.18
49.456777,3.922432,33.39,-2.11,-0.86,10.52
49.456777,3.922432,33.39,-2.03,-0.79,10.25
49.457059,3.922269,33.28,-1.98,0.45,9.76
49.457059,3.922269,33.28,-3.08,-0.9,10.94
49.457342,3.922102,33.32,-1.95,-0.63,9.23
49.457342,3.922102,33.32,-1.88,0.14,10.26
49.457625,3.921934,33.42,-1.26,-1.22,7.96
49.457625,3.921934,33.42,-3.08,-1.41,10.61
49.457904,3.921758,33.42,-1.76,-0.28,9.03
49.457904,3.921758,33.42,-2.2,-0.34,8.94
49.458186,3.921578,33.45,-1.49,-1.19,9.18
49.458186,3.921578,33.45,-2.79,-0.87,9.73
49.458465,3.921396,33.39,-1.61,0.52,10.06
49.458465,3.921396,33.39,-2.03,-0.23,11.23
49.458741,3.921212,33.42,-2.05,-0.33,9.9
49.458741,3.921212,33.42,-1.98,-0.68,8.99
49.459019,3.921032,33.4,-2.12,0.22,10.39
49.459019,3.921032,33.4,-2.47,-0.23,10.68
49.4593,3.920854,33.39,-1.82,-0.11,8.62
49.4593,3.920854,33.39,-1.67,-0.08,8.64
49.45958,3.920671,33.35,-2.58,-0.93,10.47
49.45958,3.920671,33.35,-1.42,-0.4,9.53
49.459858,3.920481,33.39,-2.38,-0.83,9.02
49.459858,3.920481,33.39,-1.12,0.83,9.87
49.460137,3.920298,33.43,-2.4,0.13,10.74
49.460137,3.920298,33.43,-1.84,0.31,8.6
49.460411,3.920105,33.45,-2.61,-1.16,9.9
49.460411,3.920105,33.45,-2.13,-0.41,10.23
49.460681,3.919914,33.62,-2.62,-0.82,9.62
49.460681,3.919914,33.62,-1.75,0.04,10.1
49.460952,3.91972,33.7,-1.06,-1.27,8.13
49.460952,3.91972,33.7,-1.42,-0.1,10.69
49.461228,3.919519,33.86,-1.01,-0.3,10.32
49.461502,3.919319,33.35,-1.25,-0.77,9.07
49.461502,3.919319,33.35,-2.17,-0.32,9.3
49.461771,3.919121,33.07,-1.01,0.41,9.55
49.461771,3.919121,33.07,-2.29,-0.39,10.68
49.462041,3.918931,32.99,-2.03,0.1,11.04
49.462041,3.918931,32.99,-1.79,-0.15,10.14
49.462307,3.918734,32.96,-2.43,-1.03,10.87
49.462307,3.918734,32.96,-1.69,-0.6,8.69
49.462573,3.918536,33.0,-1.4,0.4,9.78
49.462573,3.918536,33.0,-2.27,0.28,11.1
49.46284,3.918341,33.07,-1.79,0.91,10.2
49.46284,3.918341,33.07,-1.77,-0.78,9.31
49.463106,3.918137,33.18,-1.58,-0.42,9.24
49.463106,3.918137,33.18,-2.62,-1.81,10.71
49.463372,3.917931,33.26,-2.91,-0.43,10.99
49.463372,3.917931,33.26,-0.76,0.47,9.25
49.463639,3.917724,33.3,-2.02,-0.57,9.9
49.463639,3.917724,33.3,-2.27,-0.86,10.23
49.463907,3.917517,33.4,-2.39,0.07,10.45
49.463907,3.917517,33.4,0.06,0.14,10.71
49.464175,3.917308,33.52,-1.87,0.17,9.81
49.464175,3.917308,33.52,-0.53,-0.61,8.99
49.464445,3.917104,33.54,-2.02,0.17,9.67
49.464445,3.917104,33.54,-2.07,-0.62,9.66
49.464714,3.916895,33.59,-1.91,-0.28,10.64
49.464714,3.916895,33.59,-0.73,1.4,10.27
49.464984,3.916686,33.62,-1.89,0.09,11.23
49.464984,3.916686,33.62,-1.28,0.71,10.31
49.465251,3.916474,33.64,-2.24,-0.88,10.31
49.465251,3.916474,33.64,-2.2,-1.15,10.25
49.465517,3.916265,33.65,-2.11,-0.11,9.46
49.465517,3.916265,33.65,-3.06,-1.43,10.18
49.465787,3.916058,33.71,-1.1,0.62,8.75
49.465787,3.916058,33.71,-2.53,-0.59,9.33
49.466057,3.915848,33.77,-1.12,0.99,9.52
49.466057,3.915848,33.77,-1.8,-0.3,9.02
49.466331,3.915643,33.85,-3.06,0.21,10.93
49.466331,3.915643,33.85,-1.62,-1.87,8.22
49.466606,3.915438,33.93,-2.85,1.03,11.31
49.466606,3.915438,33.93,-2.25,-0.61,8.89
49.466878,3.915225,33.98,-1.41,-1.09,9.76
49.467151,3.915012,33.97,-1.71,-1.02,9.53
49.467151,3.915012,33.97,-0.33,-0.61,8.3
49.467421,3.914802,33.47,-2.76,-0.69,10.61
49.467421,3.914802,33.47,-0.7,1.14,9.73
49.46769,3.914595,33.37,-1.66,0.99,10.49
49.46769,3.914595,33.37,-1.16,-1.71,8.46
49.467959,3.91439,33.41,-2.57,-0.81,10.73
49.467959,3.91439,33.41,-2.04,-1.24,9.26
49.468226,3.914186,33.45,-1.63,-0.64,9.39
49.468226,3.914186,33.45,-1.1,-0.9,9.63
49.468494,3.913978,33.42,-1.16,-0.07,10.2
49.468494,3.913978,33.42,-2.03,0.24,9.32
49.468764,3.913773,33.28,-2.13,-0.7,10.06
49.468764,3.913773,33.28,-2.59,-0.44,10.3
49.469029,3.913562,33.33,-1.52,-0.28,8.99
49.469029,3.913562,33.33,-1.86,0.47,10.03
49.469296,3.913354,33.34,-0.96,0.94,9.88
49.469296,3.913354,33.34,-2.87,-1.54,11.06
49.469563,3.913144,33.5,-0.71,-0.06,7.65
49.469563,3.913144,33.5,-2.06,1.07,11.45
49.469829,3.912928,33.59,-1.01,-1.5,8.9
49.469829,3.912928,33.59,-2.33,0.4,10.3
49.470095,3.912707,33.63,-2.21,0.41,9.96
49.470095,3.912707,33.63,-0.47,0.49,9.17
49.470362,3.912487,33.86,-2.79,-1.39,10.06
49.470362,3.912487,33.86,-1.08,0.94,8.6
49.470633,3.91227,34.0,-1.02,-0.5,10.39
49.470633,3.91227,34.0,-2.83,0.71,8.21
49.470906,3.912055,34.17,-1.57,1.14,8.39
49.470906,3.912055,34.17,-0.5,0.59,9.36
49.471184,3.911848,34.27,-3.92,-0.68,9.69
49.471184,3.911848,34.27,-1.8,0.49,10.06
49.471462,3.911637,34.33,-1.56,0.26,8.6
49.471462,3.911637,34.33,-1.43,0.86,10.03
49.471736,3.911421,34.38,-2.32,0.57,10.81
49.471736,3.911421,34.38,-2.67,-0.55,9.59
49.472012,3.911211,34.38,-0.82,0.13,9.64
49.472012,3.911211,34.38,-1.12,-0.94,9.56
49.472286,3.910999,34.34,-1.25,-0.43,10.6
49.472286,3.910999,34.34,0.22,0.87,10.29
49.47256,3.910787,33.85,-1.58,0.09,9.12
49.47256,3.910787,33.85,-2.53,0.36,10.52
49.472831,3.910582,33.42,-2.01,1.36,11.28
49.473102,3.910385,33.3,-0.7,0.4,9.19
49.473102,3.910385,33.3,-1.7,1.04,10.36
49.473369,3.910184,33.3,-1.26,-0.02,9.28
49.473369,3.910184,33.3,-1.4,-0.78,9.78
49.473642,3.909996,33.33,-0.95,-0.55,7.81
49.473642,3.909996,33.33,-1.46,-0.59,8.78
49.473915,3.909806,33.36,-1.75,-0.66,10.32
49.473915,3.909806,33.36,-1.86,0.21,10.6
49.47419,3.909614,33.31,-1.92,-0.48,9.88
49.47419,3.909614,33.31,-1.44,0.23,10.7
49.474464,3.909425,33.28,-2.47,0.75,11.36
49.474464,3.909425,33.28,-0.97,-1.04,8.74
49.474736,3.909232,33.22,-2.27,0.14,10.26
49.474736,3.909232,33.22,-1.13,-1.69,10.09
49.475008,3.909044,33.17,-0.68,-0.08,9.74
49.475008,3.909044,33.17,-2.03,0.56,10.99
49.475281,3.908861,33.2,-1.0,0.91,8.96
49.475281,3.908861,33.2,-1.71,-0.85,8.89
49.475555,3.90868,33.21,-1.71,-0.56,10.29
49.475555,3.90868,33.21,-2.83,-0.76,10.53
49.475831,3.9085,33.26,-1.75,-1.28,7.8
49.475831,3.9085,33.26,-0.84,0.64,9.93
49.476108,3.908319,33.32,-2.23,1.13,11.77
49.476108,3.908319,33.32,-2.15,-0.16,8.28
49.476385,3.908138,33.6,-1.97,-0.8,9.65
49.476385,3.908138,33.6,-2.04,0.23,10.31
49.476665,3.907959,33.84,-0.16,0.92,9.11
49.476665,3.907959,33.84,-1.31,0.32,10.41
49.476947,3.907782,33.96,-1.08,0.91,8.87
49.476947,3.907782,33.96,-1.19,0.03,9.96
49.477234,3.907606,34.07,-1.84,1.17,11.06
49.477234,3.907606,34.07,-1.66,-0.1,9.75
49.477522,3.907433,34.16,-1.14,0.57,9.56
49.477522,3.907433,34.16,-1.09,-0.29,10.44
49.477807,3.907254,34.3,-2.9,-0.29,9.02
49.477807,3.907254,34.3,-1.13,0.25,9.36
49.478095,3.907079,34.28,-2.6,-0.54,10.26
49.478095,3.907079,34.28,-2.54,-1.05,9.52
49.47838,3.906899,34.18,-2.94,-1.49,9.97
49.478664,3.906715,34.19,-1.79,-0.11,8.89
49.478664,3.906715,34.19,-2.52,0.43,11.04
49.478949,3.906532,34.17,-3.2,-1.15,8.77
49.478949,3.906532,34.17,-3.17,-0.61,9.89
49.479234,3.90635,34.13,-2.2,-0.07,10.75
49.479234,3.90635,34.13,-2.95,-0.08,11.07
49.479517,3.906168,34.15,-3.09,-0.28,9.14
49.479517,3.906168,34.15,-1.31,-0.37,10.68
49.479801,3.905988,34.08,-2.05,-0.26,9.89
49.479801,3.905988,34.08,-3.24,-0.85,10.32
49.480086,3.905811,34.09,-1.4,-1.67,9.0
49.480086,3.905811,34.09,-2.59,0.48,11.69
49.48037,3.905633,34.04,-2.75,-0.44,9.32
49.48037,3.905633,34.04,-2.3,-0.11,10.0
49.480653,3.905454,34.0,-2.23,0.38,10.15
49.480653,3.905454,34.0,-3.17,-1.36,9.67
49.480936,3.905276,34.05,-2.29,-0.45,9.25
49.480936,3.905276,34.05,-2.2,-0.24,11.36
49.48122,3.905099,34.07,-2.94,-1.34,9.25
49.48122,3.905099,34.07,-2.74,-0.23,9.83
49.481503,3.904922,34.08,-1.23,1.11,9.92
49.481503,3.904922,34.08,-3.71,-0.52,10.7
49.481787,3.904746,34.1,-2.65,-1.03,8.65
49.481787,3.904746,34.1,-1.53,1.55,10.96
49.482068,3.904566,34.05,-2.74,-0.68,9.77
49.482068,3.904566,34.05,-3.29,-0.37,10.67
49.482349,3.904387,34.05,-0.9,0.15,8.88
49.482349,3.904387,34.05,-1.79,-0.48,10.52
49.48263,3.904206,34.0,-1.74,-1.12,8.79
49.48263,3.904206,34.0,-0.9,-0.9,9.28
49.482911,3.904025,34.0,-1.14,0.03,9.53
49.482911,3.904025,34.0,-3.24,-0.06,10.48
49.483192,3.903844,33.98,-0.8,-0.81,9.04
49.483192,3.903844,33.98,-3.29,-0.71,10.22
49.483473,3.903665,33.93,-3.33,-0.75,9.35
49.483473,3.903665,33.93,-1.12,0.14,8.86
49.483754,3.903487,33.88,-2.33,0.31,10.64
49.483754,3.903487,33.88,-1.86,-0.42,9.79
49.484036,3.903313,33.88,-3.2,-1.07,10.13
49.484319,3.903137,34.0,-2.71,-0.5,9.91
49.484319,3.903137,34.0,-1.2,0.63,9.69
49.484601,3.902957,33.93,-2.72,-0.08,9.89
49.484601,3.902957,33.93,-2.04,-0.72,9.74
49.484882,3.902779,33.89,-3.4,0.56,11.29
49.484882,3.902779,33.89,-2.51,-0.89,9.24
49.485162,3.902603,33.87,-1.26,0.56,9.03
49.485162,3.902603,33.87,-2.48,-0.3,10.39
49.485441,3.902428,33.86,-1.48,0.33,9.12
49.485441,3.902428,33.86,-0.9,0.22,9.5
49.485724,3.902255,33.86,-2.47,-1.09,8.53
49.485724,3.902255,33.86,-1.37,0.89,10.43
49.486009,3.902086,33.85,-2.11,-0.03,10.07
49.486009,3.902086,33.85,-0.45,0.87,10.24
49.486293,3.901917,33.88,-1.72,1.13,9.84
49.486293,3.901917,33.88,-2.82,0.34,10.43
49.48658,3.901748,33.85,-1.6,-1.05,8.66
49.48658,3.901748,33.85,-2.9,-1.0,8.48
49.486866,3.90158,33.87,-1.72,-0.52,10.52
49.486866,3.90158,33.87,-1.36,1.1,8.06
49.487149,3.901411,33.81,-0.79,0.39,10.29
49.487149,3.901411,33.81,-1.57,-0.11,10.37
49.48743,3.901249,33.73,-1.88,-0.79,10.4
49.48743,3.901249,33.73,-0.97,-0.72,10.27
49.487714,3.901094,33.72,-2.75,-0.29,9.38
49.487714,3.901094,33.72,-2.72,0.45,10.68
49.487994,3.900934,33.62,-1.02,0.12,9.62
49.487994,3.900934,33.62,-2.0,-0.61,9.5
49.488277,3.900775,33.54,-0.57,1.12,12.25
49.488277,3.900775,33.54,-2.82,0.49,9.24
49.488563,3.900618,33.44,-1.2,-0.04,10.36
49.488563,3.900618,33.44,-1.17,-0.11,10.07
49.488849,3.900467,33.32,-0.91,0.01,9.51
49.488849,3.900467,33.32,-1.99,-0.73,10.23
49.489134,3.900314,33.15,-1.94,-0.45,8.07
49.489134,3.900314,33.15,-0.02,-0.39,10.05
49.489413,3.900162,32.8,0.1,-0.87,9.82
49.489413,3.900162,32.8,-0.36,0.31,9.31
49.489682,3.900015,31.86,-0.12,0.87,10.95
49.489682,3.900015,31.86,-0.61,0.79,11.04
49.489944,3.899869,31.36,-1.52,0.06,8.5
49.490203,3.899717,30.97,-1.05,-0.03,9.06
49.490203,3.899717,30.97,-1.28,-1.39,9.93
49.490463,3.899574,30.7,-1.7,0.57,9.49
49.490463,3.899574,30.7,-1.16,0.83,10.43
49.490723,3.899432,30.56,-0.97,0.58,10.64
49.490723,3.899432,30.56,-1.95,-0.57,8.49
49.490982,3.899292,30.4,-0.99,-0.3,11.2
49.490982,3.899292,30.4,-1.33,0.89,9.84
49.491242,3.899158,30.1,-0.66,-0.19,10.43
49.491242,3.899158,30.1,-1.47,0.06,8.82
49.491503,3.899026,29.8,-1.6,-0.58,9.5
49.491503,3.899026,29.8,-1.48,-1.14,9.83
49.491755,3.898898,29.7,-2.2,-0.88,8.89
49.491755,3.898898,29.7,-1.97,-0.08,9.17
49.492006,3.898768,29.49,-0.54,0.0,10.83
49.492006,3.898768,29.49,-1.22,0.87,10.62
49.492254,3.898635,29.38,-1.75,0.42,9.23
49.492254,3.898635,29.38,-1.89,-0.12,9.84
49.492506,3.898506,29.33,-1.26,0.09,10.52
49.492506,3.898506,29.33,-1.97,0.68,10.63
49.492757,3.898378,29.49,-1.43,0.21,8.18
49.492757,3.898378,29.49,-1.07,-0.02,9.59
49.493007,3.898247,29.54,-1.57,-0.22,9.63
49.493007,3.898247,29.54,-1.63,0.11,9.79
49.49326,3.898114,29.86,-1.47,-0.38,10.3
49.49326,3.898114,29.86,-1.16,-0.14,9.04
49.493513,3.897982,29.88,-1.48,-0.41,9.3
49.493513,3.897982,29.88,-1.5,-1.19,9.82
49.493771,3.897851,29.89,-1.94,0.37,9.26
49.493771,3.897851,29.89,-0.47,-0.59,10.17
49.494025,3.897718,29.87,-1.14,-0.52,9.52
49.494025,3.897718,29.87,-1.29,0.12,9.47
49.49428,3.897588,29.6,-1.29,-0.68,10.24
49.49428,3.897588,29.6,-1.23,-0.05,10.77
49.494533,3.897458,29.59,-1.83,-0.23,8.77
49.494533,3.897458,29.59,-1.49,0.69,10.71
49.494785,3.897327,29.68,-2.08,-1.25,9.43
49.494785,3.897327,29.68,-1.48,0.74,9.97
49.495037,3.897197,29.82,-0.81,-0.55,10.41
49.495037,3.897197,29.82,-1.23,-0.45,9.92
49.495287,3.897066,29.62,-1.36,0.58,8.73
49.495534,3.896934,29.28,-0.58,-0.17,10.16
49.495534,3.896934,29.28,-0.48,-0.53,9.84
49.495779,3.896805,28.98,-1.21,-0.52,9.87
49.495779,3.896805,28.98,-1.41,-0.6,8.83
49.496027,3.896676,28.91,-1.13,-0.08,9.63
49.496027,3.896676,28.91,-0.9,0.09,9.3
49.496277,3.896549,28.93,-1.75,-0.22,8.69
49.496277,3.896549,28.93,-1.61,-0.02,8.56
49.496524,3.896422,28.83,-2.25,0.23,10.37
49.496524,3.896422,28.83,-1.71,-1.03,8.28
49.496768,3.896295,28.69,-1.23,-0.83,9.83
49.496768,3.896295,28.69,-1.1,-0.23,9.84
49.497014,3.896172,28.56,-1.21,-0.02,8.7
49.497014,3.896172,28.56,-1.08,0.26,9.31
49.497257,3.896049,28.31,-1.72,0.25,9.65
49.497257,3.896049,28.31,-2.04,-0.54,10.15
49.497497,3.895924,28.33,-1.47,-0.86,8.86
49.497497,3.895924,28.33,-2.32,-0.82,9.07
49.497737,3.895801,28.6,-1.86,-0.95,8.09
49.497737,3.895801,28.6,-1.49,-0.06,8.95
49.497979,3.895673,28.79,-1.46,0.09,9.0
49.497979,3.895673,28.79,-1.8,0.83,10.36
49.498222,3.895544,28.78,-1.42,0.32,9.36
49.498222,3.895544,28.78,-1.36,-0.12,10.72
49.498463,3.895409,28.76,-1.3,-0.59,10.92
49.498463,3.895409,28.76,-1.24,-1.2,11.0
49.498703,3.895269,28.75,-1.65,-1.24,10.61
49.498703,3.895269,28.75,-1.65,-0.73,10.46
49.498941,3.895127,28.78,-1.69,0.21,9.63
49.498941,3.895127,28.78,-1.73,-1.36,10.1
49.499183,3.894985,28.92,-2.06,-1.2,8.96
49.499183,3.894985,28.92,-2.22,-0.98,8.52
49.499427,3.894843,29.07,-1.64,0.54,9.84
49.499427,3.894843,29.07,-0.86,-0.52,10.41
49.499665,3.894686,29.18,-1.36,-1.45,10.43
49.499665,3.894686,29.18,-1.72,0.56,10.93
49.499909,3.89454,28.88,-1.29,0.03,9.26
49.499909,3.89454,28.88,-1.7,-0.64,9.03
49.500149,3.894389,28.92,-1.42,1.07,10.26
49.500149,3.894389,28.92,-1.72,0.07,9.09
49.500388,3.894238,29.09,-2.24,-0.78,10.34
49.500636,3.894085,29.49,-2.2,-1.04,8.97
49.500636,3.894085,29.49,-1.92,0.16,9.38
49.500888,3.893934,29.98,-2.61,-0.65,10.36
49.500888,3.893934,29.98,-1.93,0.3,10.05
49.501141,3.893774,30.2,-2.47,-1.58,9.63
49.501141,3.893774,30.2,-1.51,0.97,8.79
49.501397,3.893607,30.37,-2.31,-0.91,9.34
49.501397,3.893607,30.37,-2.1,0.12,9.68
49.501648,3.893434,30.8,-2.1,-0.02,9.79
49.501648,3.893434,30.8,-1.63,-1.28,8.06
49.501905,3.893264,31.07,-2.15,-1.18,9.11
49.501905,3.893264,31.07,-1.41,0.14,10.1
49.502162,3.893087,31.34,-1.94,1.08,10.25
49.502162,3.893087,31.34,-1.82,-0.57,9.39
49.502418,3.892904,31.47,-1.67,-0.56,9.43
49.502418,3.892904,31.47,-1.56,-0.45,9.46
49.502674,3.892722,31.59,-2.08,-1.16,8.75
49.502674,3.892722,31.59,-2.16,-0.56,9.39
49.502933,3.892535,31.77,-1.93,-0.63,9.17
49.502933,3.892535,31.77,-2.15,-0.34,10.18
49.503193,3.892343,31.97,-1.72,0.8,9.99
49.503193,3.892343,31.97,-1.02,-0.51,7.99
49.503453,3.892155,32.21,-1.88,0.04,10.91
49.503453,3.892155,32.21,-1.36,0.54,10.63
49.503715,3.891963,32.37,-2.57,0.37,10.58
49.503715,3.891963,32.37,-1.18,-0.4,10.25
49.50398,3.891773,32.6,-1.36,-0.1,10.03
49.50398,3.891773,32.6,-1.56,-0.25,10.53
49.50425,3.89159,32.63,-2.63,-1.55,10.99
49.50425,3.89159,32.63,-0.85,-0.52,9.28
49.50452,3.891401,32.54,-0.84,-0.82,9.96
49.50452,3.891401,32.54,-0.96,-0.44,8.84
49.504785,3.891206,32.09,-0.48,0.95,10.52
49.504785,3.891206,32.09,-0.93,-0.73,8.58
49.505039,3.891004,31.81,-0.95,-0.18,9.1
49.505039,3.891004,31.81,-0.91,0.75,10.67
49.505287,3.890797,31.71,-1.49,-0.02,9.55
49.505287,3.890797,31.71,-1.79,-0.25,9.79
49.505536,3.890589,31.8,-1.62,-0.42,9.47
49.505536,3.890589,31.8,-0.76,-0.28,8.49
49.505786,3.890379,31.85,-1.43,-0.63,8.08
49.505786,3.890379,31.85,-2.12,-0.28,9.86
49.506036,3.890169,31.89,-1.43,-0.39,9.61
49.506284,3.889954,31.99,-0.99,-0.15,9.33
49.506284,3.889954,31.99,-1.18,-0.09,9.98
49.506533,3.889738,32.03,-1.27,-0.11,9.57
49.506533,3.889738,32.03,-1.37,-0.12,9.44
49.506784,3.889519,32.13,-1.64,-0.34,10.08
49.506784,3.889519,32.13,-2.22,-0.01,10.12
49.507033,3.889294,32.18,-2.36,-0.52,9.9
49.507033,3.889294,32.18,-1.21,-0.03,9.57
49.507284,3.88907,32.29,-1.44,0.23,9.2
49.507284,3.88907,32.29,-1.32,-0.37,8.88
49.507536,3.888843,32.51,-1.91,-0.12,10.85
49.507536,3.888843,32.51,-2.74,-0.27,10.18
49.507786,3.888611,32.65,-1.57,-0.24,9.38
49.507786,3.888611,32.65,-1.44,-0.45,10.26
49.508042,3.888378,32.95,-1.19,0.05,9.94
49.508042,3.888378,32.95,-2.38,-1.01,10.11
49.508295,3.888139,33.17,-1.67,0.84,9.91
49.508295,3.888139,33.17,-2.41,-0.34,9.39
49.508549,3.887894,33.34,-0.57,-0.92,8.58
49.508549,3.887894,33.34,-2.1,-0.55,10.04
49.508802,3.887645,33.5,-1.04,0.46,10.86
49.508802,3.887645,33.5,-2.68,0.0,10.64
49.509056,3.887395,33.7,-0.9,0.81,9.28
49.509056,3.887395,33.7,-1.27,-0.25,9.59
49.509312,3.887141,33.8,-1.94,-0.01,10.63
49.509312,3.887141,33.8,-0.78,0.27,9.18
49.50957,3.886888,34.02,-0.82,0.06,9.6
49.50957,3.886888,34.02,-2.26,-0.43,9.62
49.509828,3.88663,34.25,-0.97,0.95,9.79
49.509828,3.88663,34.25,-1.06,-0.04,10.78
49.510085,3.886367,34.34,-0.37,-0.42,8.94
49.510085,3.886367,34.34,-1.43,-0.53,10.45
49.510339,3.8861,34.08,-0.36,1.05,8.84
49.510339,3.8861,34.08,-2.23,-0.45,11.12
49.510588,3.885838,33.31,-1.74,-0.21,10.54
49.510588,3.885838,33.31,-1.39,-0.39,9.73
49.510833,3.885578,32.99,-1.56,-0.25,8.95
49.510833,3.885578,32.99,-1.29,-0.64,8.95
49.511077,3.88532,32.95,-2.26,0.06,10.76
49.511077,3.88532,32.95,-1.7,0.35,10.01
49.511322,3.88506,33.04,-1.45,-0.32,10.25
49.511567,3.884799,33.16,-2.27,-0.57,9.91
49.511567,3.884799,33.16,-2.29,0.27,9.91
49.511814,3.88454,33.33,-0.83,-0.01,9.21
49.511814,3.88454,33.33,-1.07,-0.02,9.59
49.512062,3.884279,33.41,-0.93,0.02,9.73
49.512062,3.884279,33.41,-1.92,-0.8,8.65
49.512311,3.884018,33.56,-2.15,-0.64,10.03
49.512311,3.884018,33.56,-2.94,-0.89,9.58
49.512559,3.883754,33.61,-1.07,0.74,9.73
49.512559,3.883754,33.61,-1.05,-0.61,10.01
49.512809,3.883491,33.69,-0.83,0.73,10.07
49.512809,3.883491,33.69,-0.65,-0.58,8.84
49.513056,3.883226,33.78,-2.18,-0.15,9.94
49.513056,3.883226,33.78,-0.93,-0.28,9.5
49.513305,3.882959,33.86,-2.77,0.11,10.73
49.513305,3.882959,33.86,-1.14,-1.08,9.06
49.513557,3.882694,33.71,-0.64,0.12,11.57
49.513557,3.882694,33.71,-1.77,-0.58,9.63
49.513806,3.882435,33.2,-1.45,0.64,9.98
49.513806,3.882435,33.2,-0.92,0.19,9.12
49.514053,3.882177,33.04,-1.35,0.3,10.43
49.514053,3.882177,33.04,-1.64,0.24,10.09
49.514298,3.88192,32.94,-1.42,0.24,9.75
49.514298,3.88192,32.94,-1.79,-0.55,9.52
49.514541,3.881662,32.89,-1.2,0.86,10.61
49.514541,3.881662,32.89,-1.15,0.58,9.92
49.514785,3.881406,32.77,-2.14,-0.55,10.17
49.514785,3.881406,32.77,-1.86,-1.41,9.13
49.515027,3.881149,32.75,-0.77,0.07,10.32
49.515027,3.881149,32.75,-1.93,-1.13,10.2
49.51527,3.880891,32.73,-1.91,-0.43,10.11
49.51527,3.880891,32.73,-1.24,0.38,9.98
49.515512,3.880633,32.76,-1.55,0.34,10.35
49.515512,3.880633,32.76,-2.76,-0.33,10.87
49.515755,3.880376,32.75,-2.34,-0.58,9.23
49.515755,3.880376,32.75,-0.81,0.32,8.96
49.515997,3.880117,32.81,-1.48,0.18,10.33
49.515997,3.880117,32.81,-2.67,-0.69,9.97
49.516241,3.879859,32.91,-1.34,-0.47,9.56
49.516486,3.879602,33.0,-2.59,0.36,10.09
49.516486,3.879602,33.0,-2.3,-0.23,9.37
49.516732,3.879346,33.11,-0.99,-0.22,9.07
49.516732,3.879346,33.11,-3.05,-0.73,10.09
49.516979,3.879089,33.18,-1.66,-0.45,10.83
49.516979,3.879089,33.18,-1.51,0.81,8.98
49.517226,3.87883,33.33,-1.55,0.82,10.06
49.517226,3.87883,33.33,-0.86,0.19,10.31
49.517474,3.878571,33.37,-2.35,-1.07,9.6
49.517474,3.878571,33.37,-1.66,0.15,10.2
49.517721,3.878308,33.43,-1.84,-0.6,9.51
49.517721,3.878308,33.43,-1.52,-0.18,10.18
49.517969,3.878046,33.52,-2.02,-0.72,9.05
49.517969,3.878046,33.52,-1.09,0.05,10.1
49.518218,3.877782,33.66,-2.99,-0.7,10.51
49.518218,3.877782,33.66,-1.95,-0.71,8.94
49.518467,3.877517,33.74,-1.22,0.48,11.29
49.518467,3.877517,33.74,-2.86,0.01,10.5
49.518716,3.877251,33.84,-0.93,1.0,11.27
49.518716,3.877251,33.84,-2.57,-0.82,10.29
49.518969,3.876987,33.91,-1.87,-0.05,9.28
49.518969,3.876987,33.91,-0.91,0.32,9.74
49.519221,3.876723,34.02,-3.01,-0.8,9.3
49.519221,3.876723,34.02,-1.25,-0.08,9.69
49.519473,3.876457,34.04,-0.41,-0.45,10.03
49.519473,3.876457,34.04,-2.33,-0.39,9.52
49.519723,3.87619,33.83,-0.48,0.24,10.96
49.519723,3.87619,33.83,-2.8,0.49,14.01
49.519972,3.875927,33.36,-0.69,1.07,9.93
49.519972,3.875927,33.36,-2.49,-0.77,9.41
49.520219,3.875668,33.14,-1.24,-0.05,9.35
49.520219,3.875668,33.14,-1.74,0.02,10.39
49.520466,3.875411,33.18,-1.84,-0.25,9.72
49.520466,3.875411,33.18,-1.19,0.09,9.46
49.520714,3.875151,33.27,-2.0,-0.04,9.9
49.520714,3.875151,33.27,-0.84,0.41,9.61
49.520961,3.87489,33.39,-2.78,-0.28,10.11
49.520961,3.87489,33.39,-1.04,-0.39,9.04
49.521207,3.874627,33.47,-2.57,-0.96,9.37
49.521207,3.874627,33.47,-1.15,-0.2,10.72
49.521456,3.874365,33.57,-1.83,-0.8,9.18
49.521456,3.874365,33.57,-1.05,-1.02,9.81
49.521703,3.874098,33.63,-2.73,-0.85,9.13
49.521947,3.873827,33.62,-1.27,-0.75,9.36
49.521947,3.873827,33.62,-2.68,-1.15,9.3
49.522191,3.873553,33.69,-1.62,-0.75,10.11
49.522191,3.873553,33.69,-0.9,-0.63,9.62
49.522436,3.873278,33.8,-1.17,-0.24,10.43
49.522436,3.873278,33.8,-1.11,0.39,9.46
49.522681,3.873002,33.79,-2.49,0.34,10.13
49.522681,3.873002,33.79,-0.69,1.91,11.04
49.522928,3.872729,33.85,-3.1,-0.3,9.99
49.522928,3.872729,33.85,-0.13,-0.29,10.79
49.523179,3.872463,33.86,-1.2,0.09,9.14
49.523179,3.872463,33.86,-2.32,0.4,10.52
49.52343,3.872197,33.83,-0.48,0.26,10.59
49.52343,3.872197,33.83,-2.6,0.32,9.15
49.523681,3.871934,33.74,-1.58,-0.75,9.94
49.523681,3.871934,33.74,0.68,-0.26,9.76
49.523932,3.871675,33.75,-1.47,-0.34,10.01
49.523932,3.871675,33.75,-0.63,0.45,9.76
49.524182,3.871413,33.73,-2.57,-0.16,7.93
49.524182,3.871413,33.73,-0.59,0.59,10.28
49.524432,3.871151,33.67,-3.47,-0.23,9.51
49.524432,3.871151,33.67,-1.94,-1.07,10.31
49.524682,3.870888,33.7,-0.94,0.04,10.04
49.524682,3.870888,33.7,-1.01,-1.48,8.86
49.524932,3.870623,33.72,-0.38,-0.17,10.4
49.524932,3.870623,33.72,-3.07,0.12,9.67
49.525181,3.870359,33.65,-0.6,-1.78,9.96
49.525181,3.870359,33.65,-3.09,-0.43,8.91
49.52543,3.870095,33.64,-0.95,-0.85,9.01
49.52543,3.870095,33.64,-0.66,-0.71,9.81
49.525677,3.86983,33.6,-1.32,-0.99,9.3
49.525677,3.86983,33.6,-1.22,-0.79,9.22
49.525924,3.869563,33.61,-2.46,-2.04,9.78
49.525924,3.869563,33.61,-1.08,1.17,10.73
49.52617,3.869293,33.57,-2.83,-0.81,10.41
49.52617,3.869293,33.57,-0.85,-0.43,10.6
49.526414,3.869021,33.55,-1.11,-0.31,9.29
49.526414,3.869021,33.55,-0.72,-0.88,9.05
49.526658,3.868747,33.47,-1.89,-1.85,9.71
49.5269,3.868473,33.47,-0.55,1.1,9.05
49.5269,3.868473,33.47,-1.92,-1.58,9.28
49.527142,3.868198,33.41,-1.81,-1.1,10.09
49.527142,3.868198,33.41,-1.81,-0.92,8.73
49.527382,3.867923,33.38,-1.13,0.06,9.49
49.527382,3.867923,33.38,-2.55,-1.51,10.56
49.527621,3.867646,33.38,-0.66,-0.72,9.84
49.527621,3.867646,33.38,-1.75,0.12,9.56
49.527861,3.867369,33.39,-1.24,-0.37,10.13
49.527861,3.867369,33.39,-2.82,-0.97,9.76
49.528102,3.867091,33.41,-1.53,0.15,9.68
49.528102,3.867091,33.41,-0.91,-0.42,8.71
49.52834,3.866812,33.39,-0.81,-0.25,9.15
49.52834,3.866812,33.39,-1.31,-0.24,9.87
49.528578,3.866531,33.39,-2.1,-0.87,9.73
49.528578,3.866531,33.39,-1.31,0.54,10.85
49.528816,3.866249,33.41,-2.55,-1.31,10.86
49.528816,3.866249,33.41,-1.05,-0.47,9.84
49.529054,3.865969,33.44,-2.37,-0.22,10.1
49.529054,3.865969,33.44,-1.82,-0.3,10.17
49.529293,3.865688,33.47,-2.57,-1.49,9.12
49.529293,3.865688,33.47,-0.2,0.62,10.72
49.529532,3.865409,33.44,-1.49,0.23,10.26
49.529532,3.865409,33.44,-0.86,-0.8,8.83
49.529772,3.865131,33.48,-1.67,-0.6,9.66
49.529772,3.865131,33.48,-1.03,0.43,9.61
49.530013,3.864853,33.52,-1.0,0.39,9.61
49.530013,3.864853,33.52,-0.96,0.19,10.53
49.530257,3.86458,33.61,-1.46,-0.25,10.34
49.530257,3.86458,33.61,-2.38,-0.19,10.38
49.530503,3.864309,33.67,-1.72,-0.34,9.86
49.530503,3.864309,33.67,-1.59,-0.91,9.67
49.53075,3.864037,33.73,-0.38,-0.6,9.93
49.53075,3.864037,33.73,-0.7,-0.3,10.68
49.530996,3.863766,33.46,-1.02,0.16,9.8
49.530996,3.863766,33.46,-0.47,0.49,9.88
49.531237,3.863498,32.88,-0.64,0.11,10.6
49.531237,3.863498,32.88,-0.99,-1.36,9.67
49.531475,3.863235,32.29,-1.43,-0.12,9.47
49.531475,3.863235,32.29,-0.81,0.18,8.68
49.531709,3.862974,32.07,-1.64,-0.17,8.92
49.531709,3.862974,32.07,-2.32,-0.89,9.75
49.531942,3.862715,31.97,-1.33,-0.53,8.2
49.532176,3.862459,31.93,-1.16,-1.05,9.36
49.532176,3.862459,31.93,-0.59,-0.32,9.22
49.532413,3.862206,31.92,-1.37,0.24,8.75
49.532413,3.862206,31.92,-1.4,-0.38,10.63
49.532648,3.861952,31.9,-1.53,-0.07,10.03
49.532648,3.861952,31.9,-1.8,-0.25,9.85
49.532882,3.861698,31.88,-1.07,-0.02,9.62
49.532882,3.861698,31.88,-1.43,-0.19,8.19
49.533119,3.861446,32.07,-1.49,-0.03,9.93
49.533119,3.861446,32.07,-1.25,0.23,10.99
49.533359,3.861197,32.09,-1.03,0.23,10.45
49.533359,3.861197,32.09,-1.61,-0.55,10.44
49.533599,3.860948,32.16,-1.74,-0.67,10.7
49.533599,3.860948,32.16,-0.35,-0.91,11.03
49.533835,3.860696,31.9,-1.31,0.1,10.83
49.533835,3.860696,31.9,-0.69,-0.32,10.41
49.534071,3.86045,31.45,-0.83,0.23,10.39
49.534071,3.86045,31.45,-0.56,0.91,10.63
49.534302,3.860212,30.76,-1.24,0.05,8.99
49.534302,3.860212,30.76,-0.82,0.06,9.76
49.53453,3.859976,30.2,-1.42,-0.65,8.76
49.53453,3.859976,30.2,-0.46,-0.23,9.79
49.534754,3.859745,29.7,-1.27,-1.2,10.19
49.534754,3.859745,29.7,-0.92,-0.33,8.59
49.534979,3.85952,29.33,-0.98,0.57,10.55
49.534979,3.85952,29.33,-1.2,-0.82,11.57
49.535201,3.859297,29.1,-0.45,-0.49,11.25
49.535201,3.859297,29.1,-0.86,-1.12,10.09
49.535411,3.859073,28.51,-0.83,-1.58,10.27
49.535411,3.859073,28.51,0.05,-0.76,10.21
49.53562,3.858853,28.19,-0.73,0.6,10.67
49.53562,3.858853,28.19,-0.74,-1.47,8.16
49.535827,3.858638,27.19,-1.86,-1.06,10.16
49.535827,3.858638,27.19,-0.94,-0.48,10.95
49.536026,3.858431,26.42,-1.8,-2.2,9.11
49.536026,3.858431,26.42,-1.42,0.24,9.62
49.536219,3.858219,26.46,-2.32,0.57,10.37
49.536219,3.858219,26.46,-1.81,1.28,10.27
49.536408,3.857991,26.97,-1.77,0.22,9.38
49.536408,3.857991,26.97,-2.31,-0.67,9.53
49.536604,3.857767,27.69,-1.19,1.09,9.57
49.536604,3.857767,27.69,-1.85,0.66,9.44
49.536807,3.857546,28.14,-2.39,-0.73,8.67
49.537017,3.857325,28.69,-1.92,0.23,9.86
49.537017,3.857325,28.69,-1.53,0.27,10.37
49.537236,3.857106,29.1,-2.04,-1.33,9.29
49.537236,3.857106,29.1,-2.27,0.26,9.97
49.537452,3.856876,29.52,-1.81,-0.53,8.43
49.537452,3.856876,29.52,-1.5,-1.46,9.98
49.537674,3.85664,30.17,-2.15,0.36,9.53
49.537674,3.85664,30.17,-2.12,-1.62,9.17
49.537904,3.856403,30.61,-1.3,0.74,10.13
49.537904,3.856403,30.61,-1.73,-0.61,8.8
49.538139,3.856167,31.19,-2.66,-1.38,11.16
49.538139,3.856167,31.19,-1.51,-1.53,10.31
49.538381,3.855927,31.56,-2.41,-1.39,9.69
49.538381,3.855927,31.56,-1.81,0.75,9.95
49.538622,3.855682,32.03,-1.59,-0.76,10.14
49.538622,3.855682,32.03,-3.17,-1.05,9.52
49.538864,3.855432,32.4,-2.04,-0.68,10.13
49.538864,3.855432,32.4,-1.84,-0.56,9.59
49.539103,3.855176,32.84,-2.1,-1.2,9.43
49.539103,3.855176,32.84,-2.66,-0.04,10.48
49.539348,3.854919,33.09,-1.33,-0.34,9.38
49.539348,3.854919,33.09,-2.92,-0.81,10.68
49.539594,3.854658,33.32,-1.6,0.57,10.15
49.539594,3.854658,33.32,-1.59,-1.47,9.71
49.539839,3.854392,33.62,-0.78,0.45,9.46
49.539839,3.854392,33.62,-1.56,-0.25,9.62
49.540084,3.854121,33.81,-2.08,0.67,11.05
49.540084,3.854121,33.81,-1.8,-0.4,8.49
49.540333,3.853849,34.12,-1.79,0.16,9.12
49.540333,3.853849,34.12,-0.63,0.68,9.55
49.540587,3.853578,34.28,-0.58,0.08,9.91
49.540587,3.853578,34.28,-0.75,-1.51,9.47
49.540839,3.853303,34.45,-2.28,-0.67,9.69
49.540839,3.853303,34.45,-2.97,-1.56,10.2
49.541094,3.853028,34.64,-2.83,-1.47,9.95
49.541094,3.853028,34.64,-0.94,0.89,9.74
49.541344,3.852747,34.66,-0.55,0.19,10.38
49.541344,3.852747,34.66,-1.27,0.0,9.84
49.541595,3.852463,34.79,-0.57,0.52,10.24
49.541595,3.852463,34.79,-0.44,0.1,9.19
49.541845,3.852177,34.96,-1.49,-0.16,10.08
49.542096,3.851892,34.67,-1.38,-1.08,9.99
49.542096,3.851892,34.67,-1.0,-0.48,10.24
49.542344,3.85161,33.96,0.12,0.31,9.65
49.542344,3.85161,33.96,-2.2,-0.49,9.91
49.542587,3.85133,33.48,-0.08,1.58,10.63
49.542587,3.85133,33.48,-1.5,-0.54,10.07
49.542827,3.851055,33.31,-0.47,0.43,10.78
49.542827,3.851055,33.31,-1.51,-0.63,10.18
49.543067,3.850781,33.11,-1.22,-1.43,9.65
49.543067,3.850781,33.11,-1.43,-0.18,9.71
49.543306,3.850508,32.98,-1.75,-1.79,10.61
49.543306,3.850508,32.98,-1.15,-0.75,8.79
49.543541,3.850229,32.92,-0.84,0.27,10.52
49.543541,3.850229,32.92,-2.45,-0.75,9.84
49.543775,3.849945,33.01,-0.56,-0.84,9.26
49.543775,3.849945,33.01,-0.45,-0.75,9.54
49.544008,3.849658,33.16,-2.5,-1.8,10.09
49.544008,3.849658,33.16,-0.27,0.13,10.5
49.544237,3.849365,33.23,-2.01,-1.93,9.66
49.544237,3.849365,33.23,-1.57,0.1,12.29
49.544463,3.849066,33.29,-2.15,-1.04,10.67
49.544463,3.849066,33.29,-0.6,-0.44,8.56
49.544687,3.848763,33.35,-1.49,-0.68,10.45
49.544687,3.848763,33.35,-1.57,0.31,10.86
49.54491,3.848458,33.48,-1.32,0.05,10.07
49.54491,3.848458,33.48,-2.55,-1.8,8.99
49.545132,3.848152,33.51,-1.37,-1.4,9.04
49.545132,3.848152,33.51,-0.95,-0.44,8.63
49.545359,3.847843,33.66,-2.56,-1.81,10.37
49.545359,3.847843,33.66,-1.04,0.14,11.09
49.545586,3.84753,33.5,-2.59,-0.58,9.57
49.545586,3.84753,33.5,-0.56,-2.42,8.57
49.545809,3.847222,33.17,-2.08,-2.1,9.06
49.545809,3.847222,33.17,-1.3,-1.42,11.21
49.546024,3.846909,32.91,-1.03,-1.5,9.15
49.546024,3.846909,32.91,-1.05,0.08,9.7
49.546226,3.846584,32.77,-1.13,0.01,10.31
49.546226,3.846584,32.77,-1.89,0.03,9.51
49.546428,3.846254,32.81,-0.22,0.32,9.76
49.546428,3.846254,32.81,-1.13,0.34,9.12
49.546632,3.845925,32.65,-2.61,-1.48,10.21
49.546839,3.845601,32.64,-1.19,-0.14,10.29
49.546839,3.845601,32.64,-1.62,-0.04,10.82
49.547039,3.845279,32.52,-1.26,-0.38,10.1
49.547039,3.845279,32.52,-2.07,-0.57,10.2
49.547241,3.844952,32.58,-2.04,-0.79,10.86
49.547241,3.844952,32.58,-2.54,-1.16,9.0
49.54744,3.844625,32.69,-1.93,0.02,10.18
49.54744,3.844625,32.69,-2.02,-0.74,9.39
49.547641,3.844296,32.73,-1.33,0.5,9.49
49.547641,3.844296,32.73,-0.47,0.67,10.28
49.547844,3.843971,32.81,-0.88,0.17,9.29
49.547844,3.843971,32.81,-3.17,-1.6,9.57
49.548051,3.843644,32.91,-1.44,0.31,11.28
49.548051,3.843644,32.91,-1.57,-0.06,11.01
49.54826,3.843315,32.98,-2.19,-1.45,8.98
49.54826,3.843315,32.98,-1.7,-0.29,9.22
49.548458,3.842975,33.1,-2.48,-2.36,9.05
49.548458,3.842975,33.1,-1.99,-1.6,9.96
49.548657,3.842636,33.02,-0.61,0.05,11.46
49.548657,3.842636,33.02,-2.39,-1.3,9.82
49.54885,3.842288,33.14,-1.67,-0.23,9.2
49.54885,3.842288,33.14,-0.79,-1.48,8.42
49.549036,3.841933,33.2,-1.6,0.23,9.92
49.549036,3.841933,33.2,-1.66,-0.42,9.89
49.549216,3.841572,33.14,-2.17,-1.62,9.63
49.549216,3.841572,33.14,-0.65,-0.51,10.12
49.549402,3.841217,33.23,-1.96,-1.17,10.09
49.549402,3.841217,33.23,-2.16,-0.06,10.8
49.549588,3.840857,33.2,-1.55,-0.52,9.52
49.549588,3.840857,33.2,-1.23,0.25,9.69
49.549775,3.840501,33.25,-1.52,-1.18,9.61
49.549775,3.840501,33.25,-1.99,-1.01,10.48
49.549961,3.840141,33.24,-1.91,-0.5,10.53
49.549961,3.840141,33.24,-1.53,-0.84,10.69
49.550147,3.839781,33.26,-2.18,-0.68,10.95
49.550147,3.839781,33.26,-0.58,-0.22,10.3
49.550328,3.839412,33.18,-2.05,-1.92,9.96
49.550328,3.839412,33.18,-0.95,-0.03,10.36
49.550504,3.83904,33.29,-2.21,-1.65,9.14
49.550504,3.83904,33.29,-1.7,-0.37,9.29
49.550676,3.838661,33.46,-3.18,-1.54,9.25
49.550847,3.838279,33.47,-0.91,0.23,11.62
49.550847,3.838279,33.47,-2.78,-0.82,9.53
49.55102,3.837896,33.69,-1.6,-0.32,9.92
49.55102,3.837896,33.69,-1.96,0.0,10.0
49.551192,3.83751,33.69,-0.81,0.52,11.35
49.551192,3.83751,33.69,-1.22,-0.75,9.97
49.551356,3.837129,33.73,-3.05,-1.02,9.82
49.551356,3.837129,33.73,-1.85,-0.44,8.28
49.551526,3.836739,33.82,-2.23,-2.25,9.51
49.551526,3.836739,33.82,-2.17,0.4,9.81
49.551695,3.836344,33.83,-1.7,-1.27,9.62
49.551695,3.836344,33.83,-1.0,0.38,9.99
49.551858,3.835946,33.87,-1.53,0.92,10.94
49.551858,3.835946,33.87,-2.64,-1.41,9.66
49.552023,3.835546,33.9,-0.09,0.35,9.74
49.552023,3.835546,33.9,-1.81,-1.5,9.2
49.552188,3.835147,33.97,-0.24,0.84,9.84
49.552188,3.835147,33.97,-0.59,-0.78,10.3
49.552349,3.83475,33.52,-1.14,-0.93,8.55
49.552349,3.83475,33.52,-1.24,0.04,9.82
49.552505,3.834354,33.35,-1.94,-0.61,9.62
49.552505,3.834354,33.35,-1.36,-1.03,8.73
49.552655,3.833957,33.29,-0.52,-0.32,10.34
49.552655,3.833957,33.29,-1.13,-0.94,10.45
49.552809,3.83356,33.17,-0.71,0.9,10.98
49.552809,3.83356,33.17,-1.65,-1.49,9.77
49.552955,3.833157,33.19,-2.02,0.02,9.4
49.552955,3.833157,33.19,-1.53,-0.93,9.6
49.55309,3.832754,33.16,-0.5,-0.02,9.19
49.55309,3.832754,33.16,-2.3,-0.81,10.25
49.55323,3.83235,33.08,-2.46,-1.11,10.27
49.55323,3.83235,33.08,-0.76,-0.9,8.92
49.553366,3.831943,33.1,-1.67,-1.36,9.0
49.553366,3.831943,33.1,-1.74,-1.4,9.77
49.553503,3.831535,33.14,-1.27,-0.66,10.61
49.553503,3.831535,33.14,-2.01,-1.12,10.1
49.55364,3.831129,32.98,-2.45,-0.63,9.95
49.55364,3.831129,32.98,-1.31,0.3,9.85
49.553775,3.830728,32.92,-2.16,-1.58,9.24
49.553775,3.830728,32.92,-1.4,-0.66,9.33
49.553909,3.830321,32.83,-0.79,-0.34,9.88
49.554039,3.829913,32.86,-2.5,-1.08,10.81
49.554039,3.829913,32.86,-1.98,-0.75,10.56
49.554167,3.829501,32.8,-2.5,-0.14,9.79
49.554167,3.829501,32.8,-0.83,0.47,10.04
49.554288,3.82909,32.76,-2.43,-1.67,9.71
49.554288,3.82909,32.76,-1.48,-0.08,10.07
49.554411,3.828678,32.69,-0.03,-0.34,9.6
49.554411,3.828678,32.69,-0.53,0.72,10.37
49.554529,3.828266,32.66,-1.4,-1.21,9.07
49.554529,3.828266,32.66,-1.89,0.33,10.74
49.554643,3.827853,32.67,-1.31,-0.63,9.45
49.554643,3.827853,32.67,-0.33,0.11,11.23
49.554757,3.827439,32.58,-1.95,-1.35,10.27
49.554757,3.827439,32.58,-2.32,-1.11,10.3
49.554868,3.827025,32.53,-1.21,0.03,9.38
49.554868,3.827025,32.53,-1.12,-0.79,9.32
49.554981,3.826611,32.52,-1.17,-0.57,10.39
49.554981,3.826611,32.52,-1.36,0.01,10.74
49.555092,3.826194,32.52,-2.97,-2.09,9.92
49.555092,3.826194,32.52,-1.13,-0.38,9.34
49.555199,3.825775,32.55,-1.19,-0.55,9.5
49.555199,3.825775,32.55,-1.01,0.39,9.6
49.555301,3.825354,32.51,-2.49,-1.08,10.6
49.555301,3.825354,32.51,-2.15,-1.36,9.94
49.555401,3.824933,32.48,-0.78,0.27,10.24
49.555401,3.824933,32.48,-1.57,-0.9,8.78
49.555497,3.824512,32.33,-2.75,-0.34,9.62
49.555497,3.824512,32.33,-0.84,-0.36,9.85
49.555591,3.82409,32.32,-1.81,-1.27,9.75
49.555591,3.82409,32.32,-1.79,-0.28,8.54
49.555685,3.823668,32.25,-0.87,-0.36,9.21
49.555685,3.823668,32.25,-2.06,-0.47,9.68
49.555775,3.823245,32.19,-1.02,-0.37,10.07
49.555775,3.823245,32.19,-0.79,0.53,9.7
49.555866,3.822824,32.1,-1.01,-0.9,9.66
49.555866,3.822824,32.1,-1.47,0.38,10.17
49.555954,3.822403,31.98,-1.77,-0.24,10.42
49.555954,3.822403,31.98,-1.27,0.3,9.77
49.55604,3.821979,31.96,-1.68,-0.28,9.16
49.55604,3.821979,31.96,-2.09,-0.99,9.45
49.556124,3.821555,31.9,-0.93,-0.67,9.86
49.556211,3.821137,31.8,-1.58,-0.3,10.84
49.556211,3.821137,31.8,-2.4,-0.88,10.69
49.556292,3.820714,31.83,-1.63,0.89,10.27
49.556292,3.820714,31.83,-2.25,-0.88,9.24
49.556371,3.820291,31.83,-0.28,-0.59,9.45
49.556371,3.820291,31.83,-1.19,0.58,10.55
49.55645,3.819869,31.84,-2.86,-0.83,9.71
49.55645,3.819869,31.84,-0.85,-0.55,8.95
49.556526,3.819445,31.93,-1.1,-0.56,9.18
49.556526,3.819445,31.93,-1.98,-0.4,9.33
49.556602,3.819017,32.11,-1.27,0.27,9.93
49.556602,3.819017,32.11,-2.32,-0.02,10.15
49.556679,3.818588,32.24,-2.08,-0.16,9.76
49.556679,3.818588,32.24,-1.47,0.26,9.73
49.556755,3.818154,32.63,-1.17,-0.6,9.63
49.556755,3.818154,32.63,-2.24,-0.99,10.01
49.556831,3.817714,32.84,-0.69,1.22,10.51
49.556831,3.817714,32.84,-0.79,0.37,10.0
49.556907,3.817271,33.17,-2.28,-1.39,10.3
49.556907,3.817271,33.17,-1.65,0.11,8.08
49.556982,3.816824,33.33,-2.94,-0.65,9.67
49.556982,3.816824,33.33,-1.13,-0.38,9.11
49.557059,3.816376,33.55,-2.02,-0.91,9.1
49.557059,3.816376,33.55,-0.49,-0.25,9.13
49.557133,3.815922,33.73,-2.52,-1.2,10.17
49.557133,3.815922,33.73,-1.81,-0.41,9.45
49.557211,3.815469,33.91,-0.25,0.62,9.84
49.557211,3.815469,33.91,-3.25,-1.43,8.84
49.557289,3.815017,34.09,-1.65,-0.25,9.71
49.557289,3.815017,34.09,-0.81,0.4,10.02
49.557371,3.814561,34.25,-2.93,-1.49,9.2
49.557371,3.814561,34.25,-2.04,-0.17,9.89
49.55745,3.814104,34.27,-0.97,0.32,8.47
49.55745,3.814104,34.27,-1.07,0.51,10.67
49.557528,3.813646,34.27,-2.71,-0.2,9.96
49.557528,3.813646,34.27,-3.16,-1.19,10.35
49.557607,3.813187,34.35,-1.07,-0.44,8.71
49.557607,3.813187,34.35,-1.47,-0.68,9.13
49.557682,3.812727,34.36,-0.77,1.05,10.33
49.557758,3.812266,34.19,-2.15,-1.26,9.21
49.557758,3.812266,34.19,-0.8,0.23,9.92
