Location-lat,Location-long,Speed,Accelerometer-X,Accelerometer-Y,Accelerometer-Z
49.950386,3.206575,32.9,0.78,1.11,9.2
49.950386,3.206575,32.9,0.77,1.04,9.63
49.950116,3.206752,32.89,0.03,1.1,10.06
49.950116,3.206752,32.89,0.84,1.44,9.06
49.949844,3.206934,32.92,0.2,1.34,10.62
49.949844,3.206934,32.92,0.66,1.36,8.83
49.949571,3.207112,32.97,0.15,0.96,9.51
49.949571,3.207112,32.97,-0.31,1.59,10.94
49.949299,3.207289,33.11,0.44,0.71,8.0
49.949299,3.207289,33.11,1.04,0.61,8.88
49.949023,3.207473,33.1,-0.06,2.25,10.61
49.949023,3.207473,33.1,0.66,1.1,10.7
49.948749,3.207659,33.15,-0.43,2.45,9.81
49.948749,3.207659,33.15,0.09,1.54,9.11
49.948473,3.20784,33.23,-0.31,1.13,11.5
49.948473,3.20784,33.23,-0.59,1.71,8.92
49.948194,3.208025,33.25,-0.32,1.13,9.32
49.948194,3.208025,33.25,-0.89,1.92,9.91
49.947918,3.208203,33.32,-0.38,0.88,10.54
49.947918,3.208203,33.32,-0.28,1.18,10.41
49.947641,3.208386,33.46,1.01,0.87,9.23
49.947641,3.208386,33.46,-1.33,1.94,10.53
49.947366,3.208569,33.48,-0.89,1.61,9.1
49.947366,3.208569,33.48,-0.2,1.51,11.87
49.947091,3.208751,33.39,0.41,0.74,9.15
49.947091,3.208751,33.39,-0.84,0.35,11.27
49.946814,3.208927,33.43,-0.56,1.86,9.39
49.946538,3.209103,33.38,-0.09,0.82,10.43
49.946538,3.209103,33.38,-1.64,1.7,9.43
49.946264,3.209277,33.37,0.4,0.57,9.24
49.946264,3.209277,33.37,-0.61,1.89,9.43
49.945985,3.209451,33.44,0.97,1.08,9.02
49.945985,3.209451,33.44,-0.83,2.36,9.98
49.945707,3.209629,33.55,-1.53,0.82,8.98
49.945707,3.209629,33.55,-0.14,1.83,10.41
49.945428,3.209816,33.56,0.11,1.3,9.51
49.945428,3.209816,33.56,-1.42,0.78,11.38
49.945151,3.210007,33.57,-0.51,0.74,9.38
49.945151,3.210007,33.57,-0.93,2.25,9.15
49.944877,3.2102,33.62,-0.43,1.58,9.57
49.944877,3.2102,33.62,-0.17,1.92,9.66
49.944602,3.210396,33.58,0.96,0.95,9.89
49.944602,3.210396,33.58,-0.47,1.36,11.01
49.944328,3.210591,33.54,0.68,1.03,9.0
49.944328,3.210591,33.54,-0.34,2.34,10.46
49.944055,3.210785,33.52,-1.0,0.5,10.08
49.944055,3.210785,33.52,-0.56,1.73,9.82
49.943786,3.210985,33.48,-0.09,0.36,9.77
49.943786,3.210985,33.48,-0.83,1.44,8.92
49.943516,3.21119,33.35,-0.11,1.38,9.0
49.943516,3.21119,33.35,-1.42,0.23,10.68
49.943247,3.211396,33.31,-0.63,1.55,9.95
49.943247,3.211396,33.31,0.66,0.92,10.77
49.942977,3.211598,33.33,-0.46,1.76,9.01
49.942977,3.211598,33.33,-1.36,0.38,10.76
49.94271,3.211799,33.29,0.08,2.44,10.08
49.94271,3.211799,33.29,-1.34,1.3,10.63
49.942444,3.211998,33.21,-1.13,0.86,10.12
49.942444,3.211998,33.21,-0.39,1.66,8.37
49.942179,3.2122,33.2,0.11,0.88,9.62
49.942179,3.2122,33.2,-1.51,1.44,10.82
49.941913,3.21241,33.09,0.25,1.33,10.52
49.941913,3.21241,33.09,-0.23,0.56,10.03
49.941649,3.212621,33.05,-0.42,1.02,8.7
49.941649,3.212621,33.05,0.17,0.41,9.58
49.941385,3.212833,32.96,-1.56,1.53,10.28
49.941385,3.212833,32.96,-1.24,2.24,10.34
49.941124,3.213042,32.92,-0.67,1.08,9.28
49.940861,3.213256,32.73,0.31,1.07,10.99
49.940861,3.213256,32.73,-0.9,0.71,10.17
49.9406,3.213472,32.66,-0.77,1.76,8.21
49.9406,3.213472,32.66,0.65,1.17,8.34
49.940343,3.213688,32.54,0.81,1.35,10.17
49.940343,3.213688,32.54,0.07,1.0,10.64
49.940086,3.2139,32.53,-2.38,1.12,10.23
49.940086,3.2139,32.53,-1.11,1.87,10.71
49.939829,3.214115,32.45,-0.88,1.5,8.55
49.939829,3.214115,32.45,-0.28,1.39,8.87
49.939578,3.214328,32.32,-0.11,1.22,10.13
49.939578,3.214328,32.32,-0.15,0.91,10.98
49.939325,3.214546,32.22,-0.03,0.46,10.84
49.939325,3.214546,32.22,0.11,0.56,11.05
49.939072,3.214768,32.07,-0.13,1.42,10.38
49.939072,3.214768,32.07,-1.9,1.38,10.45
49.93882,3.214988,31.98,-1.43,0.97,12.43
49.93882,3.214988,31.98,-0.9,1.21,9.69
49.93857,3.215201,31.96,-0.69,1.43,8.0
49.93857,3.215201,31.96,-0.85,1.38,10.77
49.93832,3.21542,31.91,-0.96,1.64,9.8
49.93832,3.21542,31.91,-0.65,1.91,9.86
49.938075,3.215649,31.89,-0.27,1.67,10.36
49.938075,3.215649,31.89,-0.46,1.55,10.31
49.937829,3.215874,31.89,-1.19,1.05,8.46
49.937829,3.215874,31.89,-0.47,1.92,9.92
49.937583,3.216101,31.82,-0.65,1.34,10.84
49.937583,3.216101,31.82,-0.66,1.79,12.47
49.93734,3.216329,31.73,-1.07,1.25,10.58
49.93734,3.216329,31.73,-0.57,0.64,11.03
49.937094,3.21656,31.63,-1.04,0.87,11.04
49.937094,3.21656,31.63,-1.27,0.67,10.76
49.936851,3.216787,31.57,0.63,1.04,9.28
49.936851,3.216787,31.57,-0.28,1.62,9.28
49.93661,3.217016,31.53,-0.49,1.24,9.23
49.93661,3.217016,31.53,-1.2,1.59,9.23
49.936373,3.217243,31.47,-0.59,1.89,9.69
49.936373,3.217243,31.47,-0.69,1.61,10.14
49.936132,3.217472,31.51,-0.96,1.81,9.9
49.936132,3.217472,31.51,-0.72,1.15,10.96
49.935893,3.217711,31.62,-0.12,1.12,11.25
49.935893,3.217711,31.62,-1.59,1.51,10.34
49.935651,3.217947,31.8,0.25,0.65,10.46
49.935411,3.218186,31.9,-0.39,1.13,10.81
49.935411,3.218186,31.9,-1.02,1.1,11.49
49.935173,3.218423,31.99,-0.78,0.91,11.38
49.935173,3.218423,31.99,-1.19,1.19,10.06
49.934932,3.218667,32.05,-0.97,1.85,8.82
49.934932,3.218667,32.05,-1.53,1.61,10.17
49.934692,3.218908,32.08,-0.19,2.07,10.23
49.934692,3.218908,32.08,0.23,1.54,8.89
49.93445,3.219151,32.06,-0.64,1.78,9.86
49.93445,3.219151,32.06,-0.3,1.9,9.4
49.934208,3.21939,32.05,-0.76,1.38,9.44
49.934208,3.21939,32.05,0.23,1.7,8.68
49.933966,3.219627,32.13,-1.22,1.37,8.68
49.933966,3.219627,32.13,0.41,0.46,9.83
49.933721,3.219862,32.08,0.61,1.23,8.99
49.933721,3.219862,32.08,0.22,0.75,9.72
49.933472,3.220098,32.08,-1.01,1.07,8.34
49.933472,3.220098,32.08,0.42,1.1,8.89
49.933227,3.220331,32.11,0.56,1.2,10.64
49.933227,3.220331,32.11,-0.7,1.6,10.63
49.932981,3.220567,32.2,-1.63,1.28,11.48
49.932981,3.220567,32.2,-0.21,1.68,10.1
49.932732,3.220802,32.24,-0.06,1.99,9.08
49.932732,3.220802,32.24,0.09,2.01,10.48
49.932485,3.221031,32.24,-0.59,1.76,9.22
49.932485,3.221031,32.24,0.41,0.97,9.97
49.932235,3.22126,32.3,0.04,1.18,9.28
49.932235,3.22126,32.3,-0.06,1.14,10.06
49.931983,3.221489,32.34,-0.16,1.51,10.79
49.931983,3.221489,32.34,-0.05,1.72,10.1
49.931732,3.221712,32.49,0.15,1.61,8.32
49.931732,3.221712,32.49,0.15,0.43,9.57
49.931475,3.221938,32.61,1.33,1.13,8.76
49.931475,3.221938,32.61,-1.03,1.4,11.34
49.931221,3.222162,32.72,-0.13,1.92,7.32
49.931221,3.222162,32.72,-0.84,0.88,7.57
49.930967,3.222388,32.8,-0.01,0.89,10.8
49.930967,3.222388,32.8,0.29,2.06,8.99
49.93071,3.222612,32.87,-0.25,1.32,9.7
49.93071,3.222612,32.87,0.15,0.47,10.43
49.930451,3.222835,32.86,-0.16,1.9,10.27
49.930451,3.222835,32.86,-0.01,1.64,8.45
49.930192,3.223051,32.98,1.47,0.31,10.07
49.929928,3.223267,33.09,0.05,2.0,9.61
49.929928,3.223267,33.09,-0.27,1.46,9.62
49.92966,3.223484,33.12,0.18,1.53,11.46
49.92966,3.223484,33.12,-0.72,1.38,8.92
49.929395,3.223692,33.18,-0.69,1.18,8.77
49.929395,3.223692,33.18,-0.63,2.24,11.13
49.929124,3.2239,33.24,0.29,0.55,8.86
49.929124,3.2239,33.24,-0.06,0.67,10.94
49.928857,3.224112,33.23,-0.73,1.24,8.6
49.928857,3.224112,33.23,-1.6,1.54,12.42
49.928592,3.224321,33.54,-0.57,1.7,9.68
49.928592,3.224321,33.54,0.15,0.92,10.8
49.928321,3.22453,33.64,-0.6,2.17,10.18
49.928321,3.22453,33.64,0.49,1.05,9.99
49.928045,3.224731,33.74,-0.78,0.34,7.92
49.928045,3.224731,33.74,-0.71,2.1,11.3
49.927771,3.224942,33.74,-0.68,1.4,8.63
49.927771,3.224942,33.74,-0.39,1.78,9.92
49.927497,3.225151,33.77,0.71,0.76,10.03
49.927497,3.225151,33.77,-0.7,2.09,9.05
49.927223,3.225364,33.77,0.55,0.47,10.19
49.927223,3.225364,33.77,-0.19,0.92,8.74
49.92695,3.225576,33.77,0.73,0.79,11.2
49.92695,3.225576,33.77,-1.14,0.56,8.79
49.926673,3.225772,33.71,-0.76,2.16,9.63
49.926673,3.225772,33.71,1.04,0.6,12.33
49.926396,3.225965,33.69,-0.68,2.09,9.35
49.926396,3.225965,33.69,-0.56,0.05,9.49
49.926123,3.226162,33.68,-0.79,0.99,9.29
49.926123,3.226162,33.68,1.33,0.83,9.81
49.925853,3.226371,33.67,-0.64,1.06,7.51
49.925853,3.226371,33.67,-0.54,2.28,11.13
49.925581,3.226583,33.69,-1.7,0.45,9.23
49.925581,3.226583,33.69,-0.55,2.22,11.35
49.925311,3.226791,33.69,-1.29,-0.11,9.19
49.925311,3.226791,33.69,-0.84,1.96,11.46
49.925043,3.227001,33.67,-0.16,0.49,8.63
49.925043,3.227001,33.67,-0.18,1.76,8.76
49.924775,3.227216,33.7,0.11,0.76,8.75
49.924775,3.227216,33.7,-0.55,2.25,10.83
49.924506,3.227433,33.67,0.03,1.5,10.26
49.924506,3.227433,33.67,0.41,1.18,10.1
49.92424,3.227649,33.7,-0.17,1.18,10.4
49.923974,3.227865,33.76,-0.61,1.32,8.71
49.923974,3.227865,33.76,-0.31,1.04,9.76
49.923705,3.228082,33.82,1.2,0.65,9.86
49.923705,3.228082,33.82,0.38,1.64,8.49
49.923437,3.2283,33.9,-0.64,0.49,10.66
49.923437,3.2283,33.9,-0.91,0.87,9.55
49.92317,3.228524,33.97,-2.3,1.85,11.05
49.92317,3.228524,33.97,-0.19,0.39,9.5
49.922907,3.228749,33.87,0.01,1.83,10.1
49.922907,3.228749,33.87,0.05,1.2,10.68
49.922641,3.22898,33.89,-0.54,1.18,9.01
49.922641,3.22898,33.89,-1.08,2.24,10.9
49.922374,3.229206,33.86,-1.3,0.55,9.0
49.922374,3.229206,33.86,-1.23,2.37,10.23
49.922102,3.229433,34.0,-0.79,0.65,10.08
49.922102,3.229433,34.0,-0.5,0.35,8.66
49.921827,3.22966,33.94,-1.67,0.86,9.28
49.921827,3.22966,33.94,-1.28,0.65,9.07
49.921566,3.229892,34.08,0.85,0.8,9.27
49.921566,3.229892,34.08,-0.25,1.49,9.43
49.9213,3.230132,34.1,-1.07,0.35,9.47
49.9213,3.230132,34.1,0.01,0.3,8.91
49.921034,3.23037,34.09,-0.08,2.24,11.39
49.921034,3.23037,34.09,-1.07,0.15,9.12
49.920772,3.230602,34.17,0.2,-0.17,9.7
49.920772,3.230602,34.17,-0.73,0.87,10.71
49.920508,3.230837,34.24,-0.32,0.41,9.84
49.920508,3.230837,34.24,-0.57,0.27,10.62
49.92024,3.231075,34.25,-0.04,0.77,8.76
49.92024,3.231075,34.25,-0.9,0.73,9.9
49.919975,3.231316,34.37,0.78,1.23,9.94
49.919975,3.231316,34.37,-0.85,0.21,9.7
49.919709,3.231557,34.4,-1.0,0.74,10.74
49.919709,3.231557,34.4,-1.03,2.04,9.94
49.919443,3.231794,34.46,-1.36,2.56,9.66
49.919443,3.231794,34.46,-0.12,1.87,9.87
49.919176,3.232036,34.57,0.4,0.23,9.73
49.919176,3.232036,34.57,-0.37,0.36,10.16
49.918907,3.232286,34.61,-0.65,-0.16,9.67
49.918907,3.232286,34.61,-0.31,2.18,9.34
49.918643,3.232537,34.68,-1.38,2.05,10.45
49.918643,3.232537,34.68,-0.75,1.74,9.14
49.918374,3.232791,34.71,0.65,0.6,8.76
49.918112,3.233045,34.73,-0.11,0.6,9.91
49.918112,3.233045,34.73,-1.79,1.6,9.81
49.917848,3.233296,34.76,-0.14,1.67,10.45
49.917848,3.233296,34.76,-0.8,1.76,9.35
49.917583,3.233551,34.89,-1.86,1.28,8.58
49.917583,3.233551,34.89,-0.49,2.06,10.51
49.917315,3.233805,34.94,-0.52,1.69,9.39
49.917315,3.233805,34.94,0.45,0.49,9.54
49.91705,3.234067,35.01,0.53,0.62,7.67
49.91705,3.234067,35.01,-0.07,1.48,10.26
49.916789,3.234331,35.07,-0.35,1.24,11.25
49.916789,3.234331,35.07,0.5,1.23,10.54
49.916529,3.234594,35.1,-0.7,0.26,9.04
49.916529,3.234594,35.1,0.62,1.45,10.64
49.916268,3.234864,35.23,-0.56,1.04,10.17
49.916268,3.234864,35.23,0.01,0.68,9.5
49.916003,3.23514,35.27,-0.51,1.22,10.74
49.916003,3.23514,35.27,-0.05,1.09,9.98
49.915739,3.235415,35.26,-0.47,1.11,9.58
49.915739,3.235415,35.26,0.2,0.11,10.86
49.915473,3.235694,35.31,0.77,0.86,9.05
49.915473,3.235694,35.31,-0.54,0.84,11.14
49.915211,3.23597,35.25,0.14,0.75,9.79
49.915211,3.23597,35.25,0.0,1.16,9.81
49.914949,3.236244,35.15,-0.4,0.79,11.14
49.914949,3.236244,35.15,-0.49,1.24,9.71
49.914687,3.236523,35.05,-1.6,1.22,11.18
49.914687,3.236523,35.05,-2.02,1.32,10.23
49.91443,3.2368,34.55,-0.38,0.93,9.65
49.91443,3.2368,34.55,-0.09,0.59,9.39
49.914175,3.237067,33.96,-1.43,1.75,10.34
49.914175,3.237067,33.96,0.24,0.74,10.72
49.913925,3.237331,33.42,-0.91,1.45,8.6
49.913925,3.237331,33.42,0.42,0.87,9.56
49.913673,3.237596,33.12,-1.21,1.5,10.35
49.913673,3.237596,33.12,-0.34,0.96,9.14
49.913428,3.237858,32.8,-0.83,0.59,11.54
49.913428,3.237858,32.8,-0.29,0.59,10.26
49.913191,3.238119,32.34,-0.34,1.32,11.65
49.913191,3.238119,32.34,-0.74,1.25,10.6
49.912957,3.23838,32.16,-0.62,1.44,10.52
49.912957,3.23838,32.16,-0.73,2.13,10.17
49.912725,3.23864,31.9,-0.2,2.41,10.3
49.912725,3.23864,31.9,-0.91,1.03,11.65
49.912495,3.238904,31.68,-0.76,1.23,11.01
49.912254,3.239164,31.45,-0.34,0.98,11.5
49.912254,3.239164,31.45,0.14,1.13,10.36
49.912022,3.239426,31.22,0.45,0.94,8.24
49.912022,3.239426,31.22,-0.3,1.94,10.16
49.911796,3.239681,31.09,0.55,2.05,10.92
49.911796,3.239681,31.09,-0.83,1.2,11.5
49.911569,3.239937,31.04,-0.76,1.1,9.59
49.911569,3.239937,31.04,-0.24,1.87,10.21
49.911346,3.240196,30.94,-1.06,0.86,10.15
49.911346,3.240196,30.94,0.02,1.07,9.47
49.911127,3.240451,30.84,-0.95,1.74,8.94
49.911127,3.240451,30.84,-0.58,1.99,10.41
49.910907,3.240708,30.75,-0.44,0.73,11.21
49.910907,3.240708,30.75,0.25,2.23,10.4
49.910684,3.24097,30.62,-1.49,0.99,10.51
49.910684,3.24097,30.62,-1.18,1.24,8.53
49.910467,3.241231,30.58,-1.26,1.4,10.13
49.910467,3.241231,30.58,-0.7,1.05,11.29
49.910247,3.241491,30.45,-1.19,1.35,8.75
49.910247,3.241491,30.45,-0.45,0.93,10.95
49.910038,3.241757,30.47,-0.42,1.81,8.51
49.910038,3.241757,30.47,0.23,1.93,9.79
49.909825,3.242021,30.54,-0.39,1.21,9.62
49.909825,3.242021,30.54,-0.32,2.46,9.23
49.909611,3.242279,30.62,0.11,2.06,11.59
49.909611,3.242279,30.62,-0.54,1.74,7.13
49.909393,3.242539,30.74,-1.33,1.73,9.48
49.909393,3.242539,30.74,-1.23,1.86,11.02
49.909174,3.242805,30.79,1.07,1.67,9.03
49.909174,3.242805,30.79,0.25,1.9,9.77
49.908958,3.243077,30.79,-1.02,2.05,10.25
49.908958,3.243077,30.79,-0.15,1.23,11.32
49.90874,3.243342,30.87,-0.28,2.49,9.29
49.90874,3.243342,30.87,-0.58,1.72,10.16
49.90852,3.243608,30.99,-1.8,1.49,10.91
49.90852,3.243608,30.99,-0.68,1.12,8.23
49.9083,3.243878,30.96,-0.9,1.89,9.3
49.9083,3.243878,30.96,-0.39,1.96,10.58
49.908083,3.244151,30.99,-0.35,1.43,9.33
49.908083,3.244151,30.99,0.13,2.04,9.12
49.907871,3.244433,31.04,-0.43,2.21,7.76
49.907665,3.244715,31.02,-0.7,1.44,9.56
49.907665,3.244715,31.02,-0.05,1.07,11.87
49.907455,3.244989,31.0,0.86,1.05,7.96
49.907455,3.244989,31.0,-1.19,1.5,9.03
49.907238,3.245262,31.01,-1.01,1.79,10.73
49.907238,3.245262,31.01,0.58,1.99,11.94
49.90702,3.245535,31.0,-0.4,2.33,8.87
49.90702,3.245535,31.0,-0.71,2.15,8.84
49.906805,3.24581,30.98,-0.33,1.17,10.62
49.906805,3.24581,30.98,-0.84,1.36,9.71
49.906588,3.246086,30.92,-0.55,2.21,9.28
49.906588,3.246086,30.92,-0.12,2.25,9.7
49.906372,3.24636,30.88,0.35,1.17,9.94
49.906372,3.24636,30.88,0.64,1.8,9.32
49.906158,3.246628,30.83,-0.28,2.15,8.56
49.906158,3.246628,30.83,0.18,1.43,10.52
49.90594,3.246898,30.81,-0.45,1.35,10.16
49.90594,3.246898,30.81,-0.31,2.48,8.92
49.905722,3.247167,30.76,-0.17,1.01,9.98
49.905722,3.247167,30.76,-0.62,0.7,8.67
49.905507,3.247435,30.77,0.44,2.9,10.25
49.905507,3.247435,30.77,1.36,1.71,10.73
49.905288,3.247704,30.78,0.55,1.45,9.36
49.905288,3.247704,30.78,0.31,2.53,8.78
49.905072,3.247965,30.81,-1.07,1.59,10.36
49.905072,3.247965,30.81,-0.13,1.27,9.69
49.904852,3.248224,30.72,-0.07,2.5,9.18
49.904852,3.248224,30.72,-0.29,1.24,10.44
49.904631,3.248483,30.66,0.68,1.94,8.63
49.904631,3.248483,30.66,0.45,2.31,10.45
49.90441,3.248739,30.63,1.04,0.81,10.93
49.90441,3.248739,30.63,-0.43,1.93,7.98
49.904188,3.248985,30.63,-0.99,1.7,9.72
49.904188,3.248985,30.63,0.59,0.66,10.64
49.903964,3.24922,30.66,0.4,1.62,7.88
49.903964,3.24922,30.66,0.02,1.59,11.02
49.903739,3.249452,30.7,0.1,1.24,9.27
49.903739,3.249452,30.7,-0.02,2.04,8.29
49.903506,3.24969,30.82,-0.48,1.86,9.99
49.903506,3.24969,30.82,0.18,0.47,10.39
49.903271,3.249916,30.87,0.96,1.87,9.58
49.903271,3.249916,30.87,-1.64,1.08,10.59
49.903033,3.25014,31.01,-0.47,1.23,10.79
49.902795,3.250358,31.0,0.12,0.59,8.57
49.902795,3.250358,31.0,-0.01,1.91,8.66
49.902562,3.250567,30.75,-0.11,2.31,7.86
49.902562,3.250567,30.75,0.64,2.3,10.06
49.902316,3.250778,31.27,0.36,0.69,10.53
49.902316,3.250778,31.27,0.59,0.33,10.29
49.90207,3.250991,31.45,0.25,1.3,9.99
49.90207,3.250991,31.45,0.0,1.9,9.79
49.90182,3.251199,31.21,-0.57,2.36,8.44
49.90182,3.251199,31.21,0.11,1.45,9.17
49.901563,3.251411,31.55,-0.42,1.48,10.66
49.901563,3.251411,31.55,-0.09,1.67,10.29
49.901303,3.25162,31.8,-0.51,1.24,10.59
49.901303,3.25162,31.8,-1.34,1.36,10.96
49.901045,3.251817,31.83,-0.86,1.57,11.18
49.901045,3.251817,31.83,-0.53,2.06,11.99
49.900784,3.252004,31.99,0.02,1.71,10.46
49.900784,3.252004,31.99,1.19,2.2,8.73
49.900516,3.252188,32.13,-0.8,1.73,10.51
49.900516,3.252188,32.13,-0.13,1.34,8.93
49.900245,3.252359,32.31,-0.9,0.92,8.86
49.900245,3.252359,32.31,-0.68,-0.01,10.27
49.899973,3.252527,32.38,1.65,1.04,10.03
49.899973,3.252527,32.38,-1.18,1.53,10.75
49.899703,3.252697,32.52,-0.59,1.8,8.81
49.899703,3.252697,32.52,-0.58,1.31,8.07
49.899435,3.252874,32.66,1.15,0.28,6.92
49.899435,3.252874,32.66,0.02,2.12,10.77
49.89916,3.253038,32.83,-0.39,1.21,8.47
49.89916,3.253038,32.83,-0.03,1.11,9.3
49.898884,3.253188,32.99,-0.79,2.34,10.23
49.898884,3.253188,32.99,-0.79,0.6,8.73
49.898604,3.253341,33.13,0.07,0.19,7.88
49.898604,3.253341,33.13,-0.79,1.58,10.86
49.898325,3.253486,33.22,0.8,0.95,9.92
49.898325,3.253486,33.22,-1.0,1.51,10.98
49.898043,3.253623,33.34,0.42,1.14,8.58
49.898043,3.253623,33.34,0.03,1.78,11.87
49.897757,3.253747,33.38,1.1,2.37,9.49
49.897757,3.253747,33.38,-0.21,1.34,10.23
49.897468,3.253875,33.54,-0.84,1.36,9.32
49.897468,3.253875,33.54,0.6,0.57,9.69
49.897178,3.253999,33.56,-0.78,1.7,7.35
49.897178,3.253999,33.56,-1.46,2.1,12.48
49.896884,3.25412,33.62,0.29,1.79,9.88
49.896587,3.254238,33.68,-0.33,1.19,9.84
49.896587,3.254238,33.68,1.81,0.49,8.88
49.896289,3.254347,33.72,-0.4,1.33,12.17
49.896289,3.254347,33.72,1.1,0.52,8.82
49.895992,3.254439,33.71,-0.05,1.96,8.87
49.895992,3.254439,33.71,0.65,0.66,8.54
49.895692,3.254529,33.74,-0.99,1.49,9.55
49.895692,3.254529,33.74,0.25,0.32,9.69
49.895395,3.254616,33.72,0.31,1.62,8.21
49.895395,3.254616,33.72,-0.79,2.24,12.7
49.895098,3.254701,33.75,-0.55,1.01,8.55
49.895098,3.254701,33.75,-0.35,1.68,10.14
49.8948,3.254775,33.75,1.44,1.12,9.0
49.8948,3.254775,33.75,0.1,2.48,10.01
49.8945,3.254849,33.64,1.46,0.66,9.85
49.8945,3.254849,33.64,-0.2,1.29,9.55
49.894199,3.254914,33.56,0.7,0.79,9.14
49.894199,3.254914,33.56,-0.36,1.59,9.67
49.893898,3.254972,33.46,0.43,0.64,10.9
49.893898,3.254972,33.46,-0.58,1.55,9.14
49.893597,3.255022,33.45,1.77,-0.1,8.06
49.893597,3.255022,33.45,0.1,1.79,10.09
49.893297,3.255064,33.32,1.66,1.54,9.89
49.893297,3.255064,33.32,0.52,1.6,5.44
49.893,3.255098,33.28,-1.19,0.68,8.86
49.893,3.255098,33.28,-1.47,1.72,11.71
49.8927,3.255129,33.3,-0.23,1.76,9.69
49.8927,3.255129,33.3,-0.87,1.67,10.31
49.892396,3.255159,33.17,0.13,1.58,8.37
49.892396,3.255159,33.17,0.85,0.45,10.48
49.892093,3.255181,33.2,-0.68,1.8,9.77
49.892093,3.255181,33.2,1.64,0.99,7.91
49.891793,3.255195,33.08,1.32,1.3,11.04
49.891793,3.255195,33.08,0.77,2.01,10.49
49.891494,3.255198,33.09,0.69,1.33,10.23
49.891494,3.255198,33.09,-1.04,1.29,11.82
49.891198,3.255194,33.11,-0.05,1.18,7.69
49.890902,3.255185,33.09,-1.42,1.52,12.17
49.890902,3.255185,33.09,-0.62,1.52,10.69
49.890609,3.255162,33.13,-1.14,0.87,8.8
49.890609,3.255162,33.13,0.65,0.79,10.3
49.890313,3.255139,33.1,0.06,1.5,9.67
49.890313,3.255139,33.1,0.46,0.78,8.8
49.890016,3.255116,33.14,0.74,1.07,10.89
49.890016,3.255116,33.14,1.27,1.83,10.33
49.88972,3.255083,33.17,0.91,0.36,10.44
49.88972,3.255083,33.17,-0.74,1.52,11.98
49.889419,3.25504,33.02,0.14,1.5,8.04
49.889419,3.25504,33.02,0.22,0.51,10.6
49.889121,3.25499,33.01,-0.94,1.47,8.87
49.889121,3.25499,33.01,-0.5,1.44,8.75
49.888826,3.254934,33.03,0.79,1.44,11.53
49.888826,3.254934,33.03,0.2,1.42,10.26
49.888532,3.254881,32.99,-0.13,1.7,7.6
49.888532,3.254881,32.99,1.5,1.64,11.47
49.888238,3.25483,32.99,0.22,1.37,7.69
49.888238,3.25483,32.99,-0.05,1.84,8.12
49.887947,3.254766,32.97,0.54,1.03,11.06
49.887947,3.254766,32.97,0.78,2.17,9.81
49.887657,3.254694,32.8,-0.11,1.73,9.28
49.887657,3.254694,32.8,1.26,1.01,9.73
49.88737,3.254616,32.78,-0.58,1.85,10.22
49.88737,3.254616,32.78,-0.08,1.36,11.1
49.887083,3.254532,32.84,-0.3,1.31,9.28
49.887083,3.254532,32.84,0.84,1.46,11.05
49.886795,3.254445,32.83,0.24,1.82,8.44
49.886795,3.254445,32.83,0.46,2.02,9.26
49.886505,3.254348,32.78,-0.12,0.14,11.01
49.886505,3.254348,32.78,-0.23,2.08,9.84
49.886214,3.254244,32.83,-0.01,1.03,8.58
49.886214,3.254244,32.83,-0.33,0.98,9.43
49.885926,3.25413,32.84,-1.25,1.57,11.21
49.885926,3.25413,32.84,-0.93,1.14,8.65
49.885642,3.254009,32.76,-0.61,1.26,8.83
49.885642,3.254009,32.76,-0.28,1.34,11.04
49.885361,3.253882,32.72,-0.41,1.86,10.64
49.885361,3.253882,32.72,0.31,2.15,8.94
49.88508,3.25376,32.63,-0.4,1.65,9.24
49.88508,3.25376,32.63,1.26,1.32,12.23
49.884799,3.253636,32.58,0.6,1.54,12.67
49.88452,3.253491,32.39,-0.19,2.04,11.77
49.88452,3.253491,32.39,-1.64,1.61,11.59
49.88424,3.253348,32.24,0.3,2.56,9.89
49.88424,3.253348,32.24,-0.48,1.58,9.49
49.883964,3.2532,32.1,0.54,2.41,9.02
49.883964,3.2532,32.1,0.14,1.78,8.7
49.883692,3.253048,31.86,-0.12,1.89,9.57
49.883692,3.253048,31.86,0.63,1.67,9.45
49.883423,3.252892,31.73,0.3,2.35,8.17
49.883423,3.252892,31.73,-0.54,1.72,9.15
49.883167,3.25274,31.52,-0.47,1.99,8.34
49.883167,3.25274,31.52,-0.71,1.19,10.28
49.88291,3.252573,31.5,-0.93,1.37,11.1
49.88291,3.252573,31.5,-0.12,1.34,9.49
49.88265,3.25241,31.33,-0.18,1.36,10.61
49.88265,3.25241,31.33,-0.3,0.93,8.95
49.882397,3.252242,31.24,0.26,2.07,8.19
49.882397,3.252242,31.24,0.51,1.92,12.07
49.882141,3.252075,31.14,-0.21,1.42,10.64
49.882141,3.252075,31.14,1.04,0.51,10.99
49.881889,3.251889,31.09,0.68,0.85,10.28
49.881889,3.251889,31.09,0.87,1.9,8.67
49.881639,3.251693,31.02,0.01,2.04,11.93
49.881639,3.251693,31.02,-0.78,1.21,9.1
49.881391,3.25149,30.98,0.23,1.95,8.76
49.881391,3.25149,30.98,-0.16,1.28,8.31
49.881142,3.25129,30.95,-0.71,1.52,9.57
49.881142,3.25129,30.95,0.78,1.23,9.23
49.880895,3.251088,30.88,0.28,1.92,9.25
49.880895,3.251088,30.88,-0.2,1.51,10.38
49.88065,3.25088,30.86,-0.84,1.65,10.18
49.88065,3.25088,30.86,0.54,2.29,9.76
49.880408,3.250671,30.82,-0.11,2.24,8.44
49.880408,3.250671,30.82,-0.11,1.82,11.04
49.880169,3.250458,30.81,0.06,1.86,9.24
49.880169,3.250458,30.81,-0.23,2.11,10.15
49.879924,3.250259,30.85,-0.28,1.53,9.76
49.879924,3.250259,30.85,0.17,1.31,10.73
49.879682,3.250044,30.99,-0.1,1.24,9.06
49.879446,3.249811,31.07,-0.67,1.73,7.7
49.879446,3.249811,31.07,-0.61,1.97,12.21
49.879209,3.249588,31.23,-0.95,1.63,9.55
49.879209,3.249588,31.23,1.04,1.43,10.2
49.878969,3.24936,31.33,0.55,1.83,10.12
49.878969,3.24936,31.33,-0.19,1.69,9.63
49.878731,3.249124,31.56,-0.54,2.05,9.03
49.878731,3.249124,31.56,-0.48,2.13,10.93
49.878494,3.248878,31.72,-0.23,1.84,10.94
49.878494,3.248878,31.72,0.66,1.91,9.13
49.878259,3.248629,31.9,-0.18,2.17,10.63
49.878259,3.248629,31.9,-0.39,2.17,9.08
49.878024,3.248377,32.02,-0.38,1.94,9.09
49.878024,3.248377,32.02,-0.85,1.56,7.66
49.87779,3.248117,32.25,-1.52,1.23,8.77
49.87779,3.248117,32.25,0.09,1.27,10.35
49.877552,3.247857,32.43,-1.0,2.02,11.01
49.877552,3.247857,32.43,-0.28,1.6,10.12
49.877315,3.247589,32.6,-0.74,1.55,8.64
49.877315,3.247589,32.6,-0.16,1.04,8.98
49.877077,3.247322,32.72,0.84,1.45,9.39
49.877077,3.247322,32.72,-0.08,1.94,9.07
49.876839,3.247055,32.86,-1.24,0.77,9.1
49.876839,3.247055,32.86,-0.58,2.04,12.96
49.8766,3.246792,32.92,-2.4,1.57,11.37
49.8766,3.246792,32.92,-0.92,0.84,10.0
49.876365,3.246522,33.02,-0.96,1.33,11.65
49.876365,3.246522,33.02,-1.0,2.04,9.79
49.876123,3.246256,33.06,-0.34,0.57,8.42
49.876123,3.246256,33.06,-1.4,1.56,11.06
49.875882,3.245993,33.19,-0.16,0.63,8.61
49.875882,3.245993,33.19,-0.24,0.86,9.25
49.87564,3.245721,33.34,-0.28,1.58,9.3
49.87564,3.245721,33.34,-0.29,1.65,12.68
49.875397,3.245449,33.45,0.29,2.16,10.1
49.875397,3.245449,33.45,-1.0,0.65,10.49
49.87515,3.245183,33.61,-1.44,1.13,9.67
49.87515,3.245183,33.61,-0.68,0.9,9.7
49.874902,3.244915,33.74,-1.61,0.94,9.12
49.874651,3.244648,33.81,-0.27,1.97,9.32
49.874651,3.244648,33.81,-0.67,0.88,8.22
49.874401,3.24438,33.9,-0.74,2.0,9.42
49.874401,3.24438,33.9,-1.13,1.92,10.56
49.874148,3.244115,33.97,-1.32,1.03,8.32
49.874148,3.244115,33.97,-1.66,1.87,10.55
49.873893,3.243856,33.82,0.02,0.38,10.44
49.873893,3.243856,33.82,-1.95,1.92,11.61
49.873641,3.243598,33.46,0.35,0.49,11.33
49.873641,3.243598,33.46,-0.1,0.81,12.48
49.87339,3.243345,33.28,-1.22,1.21,9.59
49.87339,3.243345,33.28,-0.6,1.45,11.64
49.873143,3.243091,33.15,-0.52,1.96,8.44
49.873143,3.243091,33.15,-0.85,1.11,10.01
49.872888,3.242846,33.36,-1.94,0.93,10.54
49.872888,3.242846,33.36,-1.23,0.96,9.47
49.872634,3.2426,33.51,-2.09,2.06,8.93
49.872634,3.2426,33.51,0.01,0.61,9.02
49.872373,3.242367,33.56,-1.42,2.24,11.27
49.872373,3.242367,33.56,-1.17,0.82,8.89
49.872112,3.24213,33.63,-1.02,1.68,9.44
49.872112,3.24213,33.63,-0.71,1.26,10.96
49.871847,3.241895,33.66,-0.59,1.48,8.38
49.871847,3.241895,33.66,-0.57,1.77,11.41
49.87158,3.241668,33.79,0.3,0.57,8.35
49.87158,3.241668,33.79,-0.8,1.07,11.46
49.871314,3.241434,33.81,-0.1,0.71,9.6
49.871314,3.241434,33.81,-0.39,1.64,9.21
49.871049,3.241206,33.78,-0.05,2.1,12.23
49.871049,3.241206,33.78,-2.02,1.15,8.2
49.87078,3.240983,33.93,-1.38,1.97,11.14
49.87078,3.240983,33.93,-0.53,0.73,9.98
49.870509,3.240765,33.92,-1.09,2.19,9.38
49.870509,3.240765,33.92,-0.84,1.49,11.21
49.870236,3.240556,33.94,-0.13,0.45,9.19
49.870236,3.240556,33.94,-1.18,1.98,11.17
49.869962,3.240347,33.96,-2.05,0.92,10.29
49.869962,3.240347,33.96,-0.93,0.51,9.93
49.869686,3.24014,33.99,-0.44,1.93,9.84
49.869686,3.24014,33.99,-0.34,0.81,8.82
49.86941,3.239939,34.01,-0.91,0.9,8.97
49.86941,3.239939,34.01,-1.44,1.03,10.45
49.869132,3.239742,34.06,-1.33,0.47,10.64
49.868855,3.239546,34.1,-1.05,1.27,9.22
49.868855,3.239546,34.1,-0.9,1.48,11.33
49.868577,3.239356,34.15,0.46,0.61,9.5
49.868577,3.239356,34.15,-0.88,0.59,8.91
49.868294,3.239167,34.26,-0.97,1.56,9.29
49.868294,3.239167,34.26,-1.02,0.81,10.18
49.868013,3.238979,34.22,-0.05,1.13,9.7
49.868013,3.238979,34.22,-0.38,2.26,9.31
49.867727,3.238803,34.21,-0.38,1.35,11.14
49.867727,3.238803,34.21,-1.24,0.92,10.18
49.86744,3.238626,34.14,-0.78,1.73,9.97
49.86744,3.238626,34.14,-1.11,2.04,9.53
49.867159,3.238436,34.23,-1.29,0.58,10.9
49.867159,3.238436,34.23,-1.75,1.03,8.42
49.866876,3.238257,34.2,-0.91,1.43,9.22
49.866876,3.238257,34.2,0.91,1.38,9.76
49.86659,3.238089,34.14,-0.54,1.15,10.38
49.86659,3.238089,34.14,-0.72,1.64,9.21
49.866308,3.23793,34.08,-1.16,0.56,9.28
49.866308,3.23793,34.08,-0.68,1.43,10.31
49.866018,3.237768,34.06,-0.7,1.97,10.31
49.866018,3.237768,34.06,-1.04,1.24,10.58
49.86573,3.237612,34.01,-1.32,1.12,8.13
49.86573,3.237612,34.01,-0.87,2.04,10.88
49.865444,3.237464,34.07,-0.66,1.14,11.59
49.865444,3.237464,34.07,-0.1,1.28,9.17
49.865154,3.237324,34.18,-1.22,1.64,9.15
49.865154,3.237324,34.18,-0.48,1.13,13.58
49.864857,3.237176,34.16,-1.11,0.71,8.86
49.864857,3.237176,34.16,-1.32,1.79,9.19
49.864558,3.237038,34.14,-1.06,0.89,11.65
49.864558,3.237038,34.14,-0.18,1.07,9.51
49.86426,3.236909,34.1,-0.35,1.67,9.46
49.86426,3.236909,34.1,-0.7,1.47,11.69
49.863964,3.236781,34.02,-0.15,1.21,10.38
49.863964,3.236781,34.02,-0.2,2.05,12.2
49.863667,3.236643,34.04,-1.33,0.97,9.67
49.863667,3.236643,34.04,-0.44,1.11,9.83
49.863369,3.236515,34.1,-1.81,1.13,9.64
49.863369,3.236515,34.1,0.2,1.57,11.93
49.863072,3.236383,34.38,-0.14,0.81,10.49
49.863072,3.236383,34.38,-1.44,0.93,10.16
49.862773,3.236265,34.17,-1.05,0.82,10.57
49.862473,3.236163,34.19,-0.86,1.46,11.42
49.862473,3.236163,34.19,-0.75,1.33,8.69
49.862172,3.236064,34.22,-0.81,1.81,11.14
49.862172,3.236064,34.22,-1.18,1.82,11.48
49.861875,3.235953,34.26,-0.72,1.59,9.76
49.861875,3.235953,34.26,-1.28,1.35,9.24
49.861578,3.235847,34.29,-0.47,1.84,9.48
49.861578,3.235847,34.29,-0.8,1.15,10.7
49.861279,3.23574,34.27,-0.96,0.78,8.34
49.861279,3.23574,34.27,-1.48,1.1,8.82
49.860976,3.235641,34.28,-0.74,1.45,10.98
49.860976,3.235641,34.28,-0.67,0.63,9.93
49.860669,3.235555,34.22,-1.17,0.14,7.09
49.860669,3.235555,34.22,-0.63,1.54,11.7
49.86037,3.235475,34.09,1.0,1.2,8.99
49.86037,3.235475,34.09,-2.13,0.83,8.22
49.860066,3.235393,34.06,-0.47,1.52,9.82
49.860066,3.235393,34.06,-0.22,0.61,9.73
49.859761,3.235321,33.97,-1.28,0.75,7.88
49.859761,3.235321,33.97,-0.05,0.95,10.11
49.859457,3.235249,33.91,-0.14,1.13,8.08
49.859457,3.235249,33.91,-1.51,1.97,8.83
49.859155,3.235175,33.9,0.14,1.2,9.04
49.859155,3.235175,33.9,-0.61,1.26,8.58
49.858853,3.235109,33.94,-0.6,1.86,9.88
49.858853,3.235109,33.94,-1.46,1.11,8.38
49.858552,3.235042,33.99,-0.47,1.89,10.03
49.858552,3.235042,33.99,-0.82,2.27,11.6
49.858249,3.234981,33.97,-1.14,0.72,8.01
49.858249,3.234981,33.97,1.12,2.6,10.4
49.857948,3.234923,34.0,0.03,1.12,9.63
49.857948,3.234923,34.0,0.12,0.85,9.37
49.857647,3.234863,33.99,-1.24,2.94,11.75
49.857647,3.234863,33.99,-1.74,2.54,11.31
49.857343,3.234807,34.01,0.14,0.97,8.52
49.857343,3.234807,34.01,-0.71,2.22,10.05
49.857038,3.234761,34.02,-0.56,1.97,10.64
49.857038,3.234761,34.02,1.04,0.74,9.68
49.856735,3.23471,34.02,-0.92,0.83,8.99
49.856735,3.23471,34.02,-0.74,1.83,9.02
49.856431,3.234666,34.14,0.06,0.43,8.82
49.856431,3.234666,34.14,-1.75,1.01,8.84
49.856122,3.234628,34.15,-0.28,2.02,9.49
49.855813,3.234593,34.05,0.34,0.91,8.85
49.855813,3.234593,34.05,-0.95,0.52,8.47
49.855502,3.234568,34.03,-0.09,1.57,9.83
49.855502,3.234568,34.03,-0.36,1.21,9.22
49.855197,3.234534,34.08,-0.36,1.34,9.1
49.855197,3.234534,34.08,-0.51,1.54,9.95
49.854888,3.234512,34.04,-1.41,0.68,8.8
49.854888,3.234512,34.04,-0.86,1.76,12.27
49.854583,3.234489,33.97,-1.32,1.68,10.88
49.854583,3.234489,33.97,-1.57,1.13,9.01
49.854281,3.234464,33.92,-0.98,0.79,9.28
49.854281,3.234464,33.92,-0.65,2.91,10.43
49.853976,3.234446,33.98,0.52,1.09,7.64
49.853976,3.234446,33.98,-0.18,2.52,10.96
49.853673,3.234427,33.92,-0.29,1.13,10.36
49.853673,3.234427,33.92,0.14,0.39,8.6
49.853368,3.234412,33.9,-1.75,2.55,10.2
49.853368,3.234412,33.9,-0.08,1.03,10.35
49.853061,3.2344,33.97,-0.95,1.43,7.95
49.853061,3.2344,33.97,-0.43,1.7,10.99
49.852756,3.234391,34.01,0.22,1.05,10.12
49.852756,3.234391,34.01,-1.17,1.59,9.23
49.852451,3.234388,34.03,-0.07,1.15,11.01
49.852451,3.234388,34.03,-0.23,0.67,9.06
49.852144,3.234385,34.01,-1.0,1.32,8.12
49.852144,3.234385,34.01,-0.28,0.85,10.44
49.851839,3.23439,33.9,-0.58,0.66,9.28
49.851839,3.23439,33.9,-1.36,1.46,8.77
49.851533,3.234397,33.85,-0.27,1.7,12.64
49.851533,3.234397,33.85,-0.35,2.11,9.92
49.851232,3.234405,33.8,-0.7,1.37,11.7
49.851232,3.234405,33.8,0.36,0.79,8.77
49.850929,3.234416,33.74,0.3,2.45,10.82
49.850929,3.234416,33.74,-0.55,0.7,11.68
49.850629,3.234429,33.68,-0.58,2.53,9.87
49.850629,3.234429,33.68,-1.35,1.0,10.96
49.850329,3.234442,33.56,-0.73,2.26,10.59
49.850329,3.234442,33.56,-2.31,0.95,10.07
49.850028,3.234459,33.51,-0.53,1.71,10.84
49.850028,3.234459,33.51,-0.3,0.72,10.64
49.849722,3.234489,33.5,-1.32,1.84,8.96
49.849722,3.234489,33.5,0.15,0.74,8.14
49.849417,3.234514,33.48,-1.29,2.01,10.22
49.849417,3.234514,33.48,-1.88,1.11,10.8
49.849114,3.234541,33.49,-0.34,2.05,9.98
49.849114,3.234541,33.49,0.72,0.75,9.54
49.848815,3.234567,33.47,-1.2,1.8,9.77
49.848514,3.234603,33.46,-1.33,1.15,9.81
49.848514,3.234603,33.46,-0.56,1.83,10.73
49.848216,3.234639,33.47,0.03,1.24,9.0
49.848216,3.234639,33.47,-0.11,2.2,9.65
49.847919,3.234678,33.45,-0.78,1.03,7.84
49.847919,3.234678,33.45,-0.11,2.8,11.29
49.847622,3.23472,33.49,-1.46,1.82,10.12
49.847622,3.23472,33.49,-1.74,1.26,11.95
49.847323,3.234763,33.46,0.07,0.76,9.56
49.847323,3.234763,33.46,-1.42,0.81,11.62
49.847024,3.234809,33.43,-2.31,1.37,9.56
49.847024,3.234809,33.43,-0.44,1.56,10.32
49.846729,3.234856,33.45,-0.29,2.09,9.35
49.846729,3.234856,33.45,-1.06,1.3,11.32
49.846431,3.234907,33.46,-1.43,1.42,9.4
49.846431,3.234907,33.46,-1.72,2.31,12.83
49.846136,3.234962,33.37,-0.27,2.21,9.35
49.846136,3.234962,33.37,-0.18,0.93,9.88
49.845838,3.235018,33.33,-0.94,1.14,8.19
49.845838,3.235018,33.33,0.07,0.76,9.68
49.845543,3.235086,33.27,0.14,1.94,9.25
49.845543,3.235086,33.27,1.25,0.64,9.07
49.845246,3.235153,33.32,-1.13,1.26,10.33
49.845246,3.235153,33.32,0.08,2.04,9.73
49.844949,3.235221,33.27,-0.73,1.68,11.06
49.844949,3.235221,33.27,0.58,2.03,8.63
49.844656,3.235285,33.29,0.36,0.4,9.41
49.844656,3.235285,33.29,0.06,2.4,9.84
49.84436,3.235356,33.3,1.15,0.88,9.59
49.84436,3.235356,33.3,-0.65,2.36,10.48
49.844067,3.235426,33.28,-1.39,0.84,8.52
49.844067,3.235426,33.28,-0.51,1.77,9.9
49.843772,3.2355,33.24,-1.24,1.53,9.78
49.843772,3.2355,33.24,0.03,1.25,10.17
49.843475,3.235569,33.23,-1.08,1.13,9.1
49.843475,3.235569,33.23,-0.73,1.55,10.32
49.843182,3.235647,33.33,-1.26,1.66,9.92
49.843182,3.235647,33.33,0.24,1.31,9.96
49.842885,3.23573,33.29,-0.81,0.91,10.08
49.842885,3.23573,33.29,-0.18,1.88,9.45
49.842587,3.235817,33.23,-1.38,1.68,10.61
49.84229,3.235903,33.27,0.45,2.17,14.53
49.84229,3.235903,33.27,0.04,1.1,6.59
49.841997,3.235987,33.22,-0.41,1.98,11.01
49.841997,3.235987,33.22,-0.15,1.51,8.72
49.841704,3.236076,33.24,-0.56,1.4,11.85
49.841704,3.236076,33.24,0.34,1.14,7.38
49.841411,3.236168,33.27,-0.52,0.63,8.22
49.841411,3.236168,33.27,-1.21,1.96,10.55
49.84112,3.236267,33.3,0.11,1.46,10.52
49.84112,3.236267,33.3,-1.4,1.09,10.67
49.840827,3.236376,33.39,-0.48,1.26,8.63
49.840827,3.236376,33.39,-0.33,1.93,10.86
49.840532,3.236479,33.56,-0.8,1.88,9.24
49.840532,3.236479,33.56,-1.55,0.67,10.1
49.840236,3.236581,33.58,0.26,0.9,8.86
49.840236,3.236581,33.58,-0.87,0.91,10.59
49.839942,3.236685,33.64,-0.65,1.01,8.19
49.839942,3.236685,33.64,-0.45,1.74,9.15
49.839649,3.236795,33.8,-0.07,1.04,8.55
49.839649,3.236795,33.8,-1.74,0.87,9.37
49.839353,3.236904,33.92,-1.1,2.26,9.02
49.839353,3.236904,33.92,-3.0,3.01,14.27
49.839058,3.237023,34.08,-0.93,2.33,9.78
49.839058,3.237023,34.08,-0.01,1.44,10.21
49.838761,3.237147,34.19,-0.57,0.82,8.36
49.838761,3.237147,34.19,-1.58,0.96,9.31
49.838468,3.237268,34.3,0.63,1.7,9.59
49.838468,3.237268,34.3,-0.41,1.63,9.19
49.838171,3.237397,34.37,0.52,0.33,8.72
49.838171,3.237397,34.37,-0.69,0.83,9.19
49.837873,3.237528,34.58,0.09,0.6,9.21
49.837873,3.237528,34.58,-0.83,0.95,8.89
49.837574,3.237659,34.72,-1.27,1.65,8.56
49.837574,3.237659,34.72,-0.81,0.77,9.5
49.837273,3.237798,34.8,-1.0,0.87,9.36
49.837273,3.237798,34.8,-1.08,0.04,10.52
49.836974,3.237928,34.65,0.07,0.42,10.28
49.836974,3.237928,34.65,-1.95,0.23,8.53
49.836677,3.238066,34.06,-0.23,-0.19,11.09
49.836677,3.238066,34.06,-1.73,0.75,9.18
49.836391,3.238204,33.45,0.09,0.23,9.4
49.83611,3.238343,32.95,-0.72,1.13,10.32
49.83611,3.238343,32.95,-0.86,0.87,9.63
49.835833,3.238484,32.62,-0.22,0.52,9.21
49.835833,3.238484,32.62,-0.59,0.73,10.06
49.835554,3.23863,32.59,-0.39,1.73,9.51
49.835554,3.23863,32.59,-1.11,1.56,10.5
49.835277,3.23878,32.58,-1.05,1.26,9.1
49.835277,3.23878,32.58,0.1,0.84,10.93
49.835003,3.238931,32.6,-0.58,0.81,10.87
49.835003,3.238931,32.6,-1.13,1.55,10.85
49.83473,3.239084,32.68,-1.57,1.34,9.04
49.83473,3.239084,32.68,-1.07,0.67,9.55
49.834457,3.239248,32.71,-0.79,0.65,10.7
49.834457,3.239248,32.71,-0.81,1.84,9.56
49.834183,3.239416,32.71,-0.04,0.41,8.48
49.834183,3.239416,32.71,-0.39,0.56,9.84
49.833908,3.23959,32.81,-1.35,1.35,12.07
49.833908,3.23959,32.81,-0.19,1.92,9.65
49.833634,3.239769,32.92,-1.37,0.63,9.73
49.833634,3.239769,32.92,0.34,0.96,10.64
49.83336,3.239954,32.88,0.24,1.71,8.39
49.83336,3.239954,32.88,0.33,0.12,9.32
49.833087,3.240141,32.89,-1.07,0.2,10.14
49.833087,3.240141,32.89,-1.07,1.81,10.21
49.832818,3.240326,33.0,-1.05,0.19,10.71
49.832818,3.240326,33.0,0.13,0.62,10.32
49.832549,3.240514,33.06,0.25,1.83,10.04
49.832549,3.240514,33.06,-0.23,-0.28,9.14
49.832282,3.24071,33.0,-0.3,0.27,9.54
49.832282,3.24071,33.0,-0.64,1.48,9.59
49.832017,3.240909,33.0,-1.06,-0.15,10.01
49.832017,3.240909,33.0,-0.49,2.33,10.33
49.831752,3.241125,33.09,-0.79,1.24,9.39
49.831752,3.241125,33.09,-0.61,-0.7,10.86
49.831482,3.241342,33.06,-1.0,1.76,10.27
49.831482,3.241342,33.06,-0.31,1.24,10.85
49.831212,3.241553,33.13,-0.61,0.86,10.24
49.831212,3.241553,33.13,-0.47,0.82,8.52
49.830952,3.241775,33.18,-0.4,0.85,9.05
49.830696,3.242015,33.15,-0.32,1.7,11.08
49.830696,3.242015,33.15,-0.72,0.53,10.28
49.830444,3.242251,33.15,-0.51,0.28,9.89
49.830444,3.242251,33.15,-0.65,2.15,8.83
49.83019,3.242501,33.16,-0.79,0.31,11.09
49.83019,3.242501,33.16,-0.43,0.64,10.82
49.829936,3.242757,33.21,0.17,1.9,9.59
49.829936,3.242757,33.21,-1.32,0.76,10.13
49.829686,3.243016,33.18,-0.45,1.69,10.21
49.829686,3.243016,33.18,0.34,0.92,9.66
49.829437,3.243278,33.05,-1.4,1.46,10.9
49.829437,3.243278,33.05,-0.73,1.57,9.78
49.829192,3.243538,33.03,0.18,1.4,10.35
49.829192,3.243538,33.03,-0.15,1.81,11.03
49.828949,3.243795,33.01,-0.49,1.95,9.36
49.828949,3.243795,33.01,0.68,1.27,9.65
49.82871,3.244065,32.94,-1.35,1.21,12.31
49.82871,3.244065,32.94,-0.04,1.3,10.4
49.828477,3.24434,32.86,-0.67,0.74,8.92
49.828477,3.24434,32.86,0.07,1.39,10.99
49.828247,3.244622,32.83,-1.13,1.52,11.41
49.828247,3.244622,32.83,0.33,1.89,8.87
49.82802,3.244911,32.65,-0.15,0.87,8.76
49.82802,3.244911,32.65,-0.85,1.02,10.52
49.827797,3.245201,32.6,-0.69,0.81,10.79
49.827797,3.245201,32.6,-0.17,1.38,8.3
49.827581,3.245504,32.43,-0.13,1.43,9.7
49.827581,3.245504,32.43,-0.64,1.73,9.11
49.827373,3.245808,32.63,0.33,1.44,9.09
49.827373,3.245808,32.63,0.27,1.31,10.41
49.827168,3.246107,32.31,-1.06,0.96,11.23
49.827168,3.246107,32.31,-0.57,1.72,10.4
49.826964,3.246411,32.34,-0.86,1.62,7.79
49.826964,3.246411,32.34,-0.31,0.81,10.09
49.826767,3.246732,32.5,-0.32,1.36,8.63
49.826767,3.246732,32.5,0.29,1.21,9.64
49.826564,3.247057,32.47,-0.79,1.22,9.73
49.826564,3.247057,32.47,-0.98,1.9,9.17
49.826365,3.247382,32.5,-0.58,1.77,8.78
49.826365,3.247382,32.5,0.4,1.3,9.13
49.826163,3.247707,32.45,-0.27,0.99,9.68
49.825967,3.248044,32.57,-0.32,1.66,9.5
49.825967,3.248044,32.57,-0.42,1.73,8.98
49.825774,3.248391,32.57,-1.17,1.38,9.23
49.825774,3.248391,32.57,0.64,1.22,8.6
49.825594,3.248745,32.55,-0.87,0.32,11.34
49.825594,3.248745,32.55,-0.31,0.8,10.14
49.825411,3.249104,32.57,-1.59,1.68,9.32
49.825411,3.249104,32.57,-1.2,1.58,8.71
49.825231,3.249463,32.63,-0.25,0.99,7.54
49.825231,3.249463,32.63,-0.21,1.5,11.3
49.825049,3.249831,32.85,-1.07,1.45,9.55
49.825049,3.249831,32.85,-1.23,1.38,8.28
49.824875,3.250195,32.98,-0.98,1.13,10.86
49.824875,3.250195,32.98,-0.91,1.47,9.37
49.824705,3.250569,33.09,-1.43,1.42,8.54
49.824705,3.250569,33.09,-0.41,1.04,12.86
49.824533,3.25095,33.18,-0.48,1.58,8.89
49.824533,3.25095,33.18,0.13,0.85,9.67
49.824365,3.251336,33.26,-1.0,2.16,11.18
49.824365,3.251336,33.26,0.57,0.88,8.82
49.824206,3.251727,33.37,-0.76,0.76,12.04
49.824206,3.251727,33.37,-1.31,0.86,9.78
49.824046,3.252122,33.54,-0.19,1.8,12.18
49.824046,3.252122,33.54,-0.96,2.13,6.09
49.823884,3.252524,33.62,1.87,0.01,12.8
49.823884,3.252524,33.62,-0.19,1.09,7.67
49.823736,3.25293,33.61,0.4,1.99,10.45
49.823736,3.25293,33.61,-0.37,1.42,9.49
49.823586,3.253335,33.65,-0.75,1.38,12.31
49.823586,3.253335,33.65,1.43,0.3,11.36
49.823437,3.253739,33.7,-0.3,0.96,8.74
49.823437,3.253739,33.7,0.08,0.62,8.52
49.82329,3.254154,33.66,-0.85,1.4,9.59
49.82329,3.254154,33.66,-1.58,1.85,10.3
49.823145,3.254563,33.61,-1.1,1.56,9.6
49.823145,3.254563,33.61,0.62,1.62,11.75
49.822999,3.25498,33.67,0.01,-0.67,7.8
49.822999,3.25498,33.67,0.82,1.46,11.06
49.822857,3.255393,33.68,-0.03,0.58,8.03
49.822857,3.255393,33.68,0.11,1.36,9.2
49.822716,3.255805,33.59,-0.94,0.57,8.57
49.822573,3.256224,33.5,-0.78,2.24,10.99
49.822573,3.256224,33.5,0.18,-0.41,7.94
49.822437,3.256632,33.45,-2.55,1.88,11.69
49.822437,3.256632,33.45,-1.42,1.04,10.08
49.822305,3.257048,33.45,0.36,2.18,11.28
49.822305,3.257048,33.45,0.25,1.96,9.9
49.822176,3.257469,33.41,0.88,1.5,11.57
49.822176,3.257469,33.41,-2.0,1.14,8.25
49.822049,3.257887,33.34,-0.31,0.51,9.35
49.822049,3.257887,33.34,-0.73,1.45,9.38
49.821927,3.2583,33.31,-1.2,0.62,9.77
49.821927,3.2583,33.31,-0.77,1.69,11.18
49.821804,3.258719,33.21,-1.21,1.6,9.08
49.821804,3.258719,33.21,0.51,1.67,10.4
49.821677,3.259142,33.16,-0.5,0.79,10.67
49.821677,3.259142,33.16,1.05,0.8,8.65
49.821557,3.259565,33.17,-1.02,1.69,12.39
49.821557,3.259565,33.17,0.32,0.71,8.99
49.821442,3.259991,33.17,-0.83,0.34,9.69
49.821442,3.259991,33.17,-0.01,1.95,10.66
49.821329,3.260422,33.1,0.5,0.98,8.28
49.821329,3.260422,33.1,-0.51,1.23,13.56
49.821223,3.260854,33.17,-0.68,1.25,9.17
49.821223,3.260854,33.17,-1.03,1.21,11.84
49.821116,3.261284,33.17,-0.3,0.88,8.44
49.821116,3.261284,33.17,-0.21,0.9,10.69
49.821004,3.261715,33.19,-0.7,1.25,9.2
49.821004,3.261715,33.19,-0.95,0.21,8.94
49.820898,3.262144,33.07,1.02,-0.2,9.81
49.820898,3.262144,33.07,0.44,2.61,9.88
49.820798,3.26257,33.03,0.83,1.03,9.0
49.820798,3.26257,33.03,1.16,0.81,9.62
49.820697,3.263003,32.94,0.64,2.1,10.5
49.820697,3.263003,32.94,-0.61,0.79,8.47
49.820592,3.263428,32.84,0.69,1.33,8.54
49.820592,3.263428,32.84,-1.26,1.0,10.25
49.820492,3.263857,32.71,-0.65,1.62,8.98
49.820492,3.263857,32.71,1.24,1.27,9.28
49.820391,3.264282,32.61,1.02,1.22,9.55
49.820391,3.264282,32.61,-0.86,0.84,10.52
49.820294,3.26471,32.53,0.04,1.65,9.12
49.820195,3.265134,32.46,-0.01,2.3,9.24
49.820195,3.265134,32.46,-0.77,1.6,8.81
49.820091,3.265559,32.41,-1.91,1.54,7.84
49.820091,3.265559,32.41,0.77,1.22,9.7
49.819995,3.265982,32.34,-1.69,1.34,11.23
49.819995,3.265982,32.34,-1.91,1.03,10.57
49.819894,3.266405,32.31,-0.51,1.53,8.97
49.819894,3.266405,32.31,-1.65,1.99,9.28
49.8198,3.266827,32.28,0.07,1.62,8.52
49.8198,3.266827,32.28,-1.2,1.81,8.89
49.819708,3.267251,32.24,1.08,1.01,9.34
49.819708,3.267251,32.24,1.03,1.66,9.79
49.819612,3.267681,32.24,-0.17,1.73,11.1
49.819612,3.267681,32.24,-0.66,1.6,9.79
49.819521,3.268104,32.21,-1.78,1.15,10.9
49.819521,3.268104,32.21,0.56,1.27,10.54
49.819422,3.268524,32.22,-0.11,1.65,8.87
49.819422,3.268524,32.22,-0.11,1.69,9.17
49.819315,3.268949,32.22,-0.57,1.54,9.0
49.819315,3.268949,32.22,1.48,1.46,10.11
49.819211,3.269367,32.21,0.35,1.13,11.57
49.819211,3.269367,32.21,0.33,0.73,10.27
49.819118,3.269785,32.24,-1.49,1.05,10.99
49.819118,3.269785,32.24,-0.83,1.78,8.95
49.819019,3.270205,32.28,-0.74,1.7,10.79
49.819019,3.270205,32.28,0.36,2.14,8.7
49.818919,3.270622,32.26,-0.39,2.04,8.59
49.818919,3.270622,32.26,-0.09,2.33,8.79
49.818812,3.271039,32.26,0.77,1.25,10.09
49.818812,3.271039,32.26,-1.19,1.31,9.83
49.818711,3.271457,32.32,0.35,1.73,10.28
49.818711,3.271457,32.32,-0.44,1.48,10.8
49.818606,3.271877,32.32,0.4,1.98,8.95
49.818606,3.271877,32.32,0.54,2.21,7.05
49.818496,3.272293,32.29,0.03,1.13,9.33
49.818496,3.272293,32.29,-0.33,1.13,9.58
49.818387,3.272711,32.29,0.22,1.4,11.56
49.818387,3.272711,32.29,1.29,1.13,10.58
49.818274,3.27313,32.26,-0.97,1.39,10.05
49.818274,3.27313,32.26,0.74,2.04,9.71
49.818159,3.273542,32.27,-0.37,1.02,9.43
49.818159,3.273542,32.27,-0.55,1.64,8.13
49.818041,3.273953,32.26,0.15,1.62,7.51
49.818041,3.273953,32.26,-0.38,2.22,8.42
49.817921,3.274366,32.26,0.53,0.85,8.55
49.817799,3.274776,32.27,-0.27,1.2,10.56
49.817799,3.274776,32.27,-0.53,1.24,10.95
49.81768,3.275182,32.3,-0.48,1.34,8.85
49.81768,3.275182,32.3,-0.48,1.47,10.23
49.817556,3.27559,32.33,0.54,1.47,8.09
49.817556,3.27559,32.33,-0.58,1.92,8.99
49.817428,3.275993,32.4,0.57,1.49,10.53
49.817428,3.275993,32.4,0.35,1.0,11.88
49.817296,3.276399,32.48,-0.59,1.82,9.89
49.817296,3.276399,32.48,-0.3,2.19,11.6
49.817161,3.276804,32.58,-1.37,2.56,7.49
49.817161,3.276804,32.58,0.34,0.85,10.46
49.817023,3.277208,32.73,-1.21,1.44,10.09
49.817023,3.277208,32.73,0.33,2.65,12.49
49.81689,3.277607,32.79,0.11,1.05,8.26
49.81689,3.277607,32.79,0.85,0.67,9.54
49.816752,3.27801,33.13,0.68,1.96,11.58
49.816752,3.27801,33.13,0.23,0.63,9.35
49.816607,3.278418,33.22,-0.18,1.89,8.81
49.816607,3.278418,33.22,-0.02,1.53,8.38
49.816462,3.278818,33.25,-1.19,0.65,11.7
49.816462,3.278818,33.25,-0.08,1.55,8.94
49.816314,3.27922,33.31,1.04,0.78,8.63
49.816314,3.27922,33.31,-0.16,0.91,7.53
49.816169,3.279615,33.4,-0.13,1.02,11.45
49.816169,3.279615,33.4,-0.72,1.7,11.29
49.816016,3.280013,33.55,1.77,1.02,8.84
49.816016,3.280013,33.55,0.22,2.05,9.62
49.815861,3.280412,33.57,-0.32,0.68,8.7
49.815861,3.280412,33.57,-0.27,1.37,8.22
49.815698,3.280804,33.64,-0.15,0.93,10.63
49.815698,3.280804,33.64,-0.61,1.24,7.93
49.815533,3.281196,33.7,-0.16,0.53,9.44
49.815533,3.281196,33.7,-1.5,0.74,9.52
49.815367,3.281588,33.75,0.24,1.24,9.57
49.815367,3.281588,33.75,-0.87,1.24,9.21
49.815202,3.281978,33.67,-0.3,1.35,8.05
49.815202,3.281978,33.67,1.15,0.87,9.41
49.815036,3.282366,33.6,-0.78,1.17,10.96
49.815036,3.282366,33.6,1.27,0.68,9.17
49.814865,3.282752,33.62,0.08,1.12,8.1
49.81469,3.283135,33.66,1.31,1.06,9.75
49.81469,3.283135,33.66,-1.19,1.54,10.04
49.814516,3.283519,33.6,-0.22,0.42,10.33
49.814516,3.283519,33.6,-0.45,1.76,9.77
49.814348,3.283901,33.42,0.92,0.35,9.72
49.814348,3.283901,33.42,-0.59,1.23,11.2
49.814178,3.284281,33.28,0.48,1.2,8.78
49.814178,3.284281,33.28,-1.03,1.67,10.89
49.814009,3.28466,33.23,-0.63,2.22,9.45
49.814009,3.28466,33.23,-0.03,0.59,9.98
49.813841,3.28504,33.25,-0.4,1.38,7.56
49.813841,3.28504,33.25,-0.54,0.57,9.28
49.813673,3.285418,33.37,-1.34,1.84,11.21
49.813673,3.285418,33.37,-0.65,2.06,10.79
49.813501,3.285797,33.3,0.11,2.12,7.8
49.813501,3.285797,33.3,-0.82,1.13,9.02
49.813327,3.286176,33.29,-0.88,0.74,11.39
49.813327,3.286176,33.29,0.11,1.6,8.47
49.813148,3.286554,33.33,0.34,0.94,8.18
49.813148,3.286554,33.33,0.07,2.42,10.32
49.812971,3.286932,33.4,-0.03,0.87,9.35
49.812971,3.286932,33.4,-1.28,1.19,10.82
49.812794,3.287306,33.4,-0.19,1.02,9.0
49.812794,3.287306,33.4,-1.58,1.64,10.66
49.81262,3.287683,33.39,0.51,1.17,8.88
49.81262,3.287683,33.39,-0.45,1.29,11.11
49.812446,3.288059,33.5,-1.02,1.04,9.7
49.812446,3.288059,33.5,-0.85,2.09,10.14
49.812271,3.28844,33.93,-0.44,1.44,9.86
49.812271,3.28844,33.93,0.3,1.93,9.28
49.812095,3.288821,33.72,-0.76,0.83,9.52
49.812095,3.288821,33.72,-0.4,1.82,10.1
49.811921,3.2892,33.85,-1.0,1.46,11.07
49.811921,3.2892,33.85,0.15,1.11,9.55
49.811746,3.289578,33.87,-1.62,1.86,10.75
49.811746,3.289578,33.87,0.95,1.21,10.08
49.811564,3.289966,33.94,0.29,1.14,9.18
49.811564,3.289966,33.94,-0.94,0.84,9.87
49.811384,3.29035,34.06,0.06,1.02,9.96
49.811384,3.29035,34.06,-0.23,0.91,8.19
49.811207,3.290731,34.02,0.09,1.12,11.08
49.811027,3.291115,34.03,-0.93,0.73,8.94
49.811027,3.291115,34.03,-0.29,1.49,9.02
49.810848,3.2915,34.03,0.09,2.02,9.51
49.810848,3.2915,34.03,-1.07,0.18,8.6
49.810664,3.291885,33.97,-0.11,1.39,8.17
49.810664,3.291885,33.97,-1.07,1.78,10.08
49.810484,3.292269,34.0,0.2,1.31,9.01
49.810484,3.292269,34.0,-1.08,1.09,8.58
49.810304,3.292653,34.09,0.0,2.28,10.7
49.810304,3.292653,34.09,0.53,1.15,8.34
49.810124,3.293036,34.1,-0.74,1.43,9.57
49.810124,3.293036,34.1,0.19,1.18,10.18
49.809942,3.293419,34.19,-1.36,0.61,8.8
49.809942,3.293419,34.19,-0.62,0.66,9.27
49.809765,3.2938,34.19,-0.42,1.5,11.74
49.809765,3.2938,34.19,-0.2,1.61,9.38
49.809584,3.294188,34.22,-0.45,1.35,9.68
49.809584,3.294188,34.22,-1.07,1.27,9.49
49.809403,3.294577,34.27,-0.33,0.81,10.65
49.809403,3.294577,34.27,0.45,0.97,10.15
49.809226,3.294964,34.31,-0.56,1.26,8.73
49.809226,3.294964,34.31,0.09,2.09,9.63
49.809048,3.295347,34.3,0.63,1.3,10.55
49.809048,3.295347,34.3,0.41,1.02,10.64
49.808868,3.295732,34.23,-1.28,0.66,8.16
49.808868,3.295732,34.23,-1.21,1.1,10.36
49.808686,3.296117,34.08,1.14,0.68,10.39
49.808686,3.296117,34.08,-0.84,0.76,7.31
49.80851,3.296501,33.93,-1.73,1.16,11.38
49.80851,3.296501,33.93,0.61,0.79,8.54
49.80833,3.296881,33.9,-0.07,1.8,8.16
49.80833,3.296881,33.9,-0.74,1.83,11.86
49.808151,3.297261,33.89,-0.14,1.11,9.25
49.808151,3.297261,33.89,-0.84,1.39,9.67
49.807967,3.297647,33.88,-0.63,0.96,11.7
49.807967,3.297647,33.88,-1.7,1.62,9.36
49.807784,3.298023,33.82,-0.84,1.46,11.94
49.807784,3.298023,33.82,-0.29,1.13,9.47
49.807602,3.298398,33.74,-1.64,1.44,10.07
49.807602,3.298398,33.74,-0.47,1.11,8.39
49.807421,3.298773,33.68,-0.1,1.52,11.75
49.807235,3.299144,33.57,-0.57,0.77,7.96
49.807235,3.299144,33.57,-0.69,1.59,10.46
49.807052,3.29951,33.5,1.74,0.58,10.17
49.807052,3.29951,33.5,-0.47,1.76,10.87
49.806867,3.299877,33.35,-0.72,1.67,8.72
49.806867,3.299877,33.35,0.11,1.18,10.6
49.806684,3.300243,33.18,-0.59,1.85,9.77
49.806684,3.300243,33.18,1.3,0.83,8.67
49.806501,3.300603,33.05,-0.8,1.77,10.94
49.806501,3.300603,33.05,-1.21,1.37,9.21
49.806312,3.300963,32.95,-0.01,0.44,9.28
49.806312,3.300963,32.95,0.95,2.05,9.33
49.806127,3.301323,32.81,-1.05,1.78,9.94
49.806127,3.301323,32.81,1.3,1.13,8.47
49.80594,3.301675,32.75,-0.49,1.81,11.44
49.80594,3.301675,32.75,-0.68,1.7,11.6
49.805752,3.302025,32.68,-0.56,1.79,8.36
49.805752,3.302025,32.68,0.63,0.36,9.65
49.805564,3.302372,32.59,0.12,0.48,9.08
49.805564,3.302372,32.59,-0.46,1.08,10.99
49.805377,3.302714,32.52,0.39,1.68,9.0
49.805377,3.302714,32.52,-0.5,1.71,9.09
49.805184,3.303048,32.43,-0.83,0.71,9.53
49.805184,3.303048,32.43,0.91,0.53,10.49
49.804986,3.303375,32.32,0.04,0.65,9.38
49.804986,3.303375,32.32,-0.17,1.0,11.06
49.804794,3.30371,32.27,-0.8,2.15,10.38
49.804794,3.30371,32.27,-0.27,1.58,9.17
49.804601,3.304044,32.14,0.03,1.63,10.07
49.804601,3.304044,32.14,-0.2,2.19,9.03
49.804404,3.304376,32.15,0.22,1.99,9.17
49.804404,3.304376,32.15,-0.19,2.38,8.97
49.804202,3.304703,32.11,-0.78,1.47,9.59
49.804202,3.304703,32.11,0.31,0.92,9.61
49.804005,3.305027,32.09,0.13,0.72,8.88
49.804005,3.305027,32.09,1.22,1.29,10.03
49.803809,3.305351,32.07,0.42,1.43,10.54
49.803809,3.305351,32.07,-0.77,-0.04,9.22
49.803607,3.30567,32.03,-0.17,0.68,11.28
49.803607,3.30567,32.03,-0.67,1.45,11.38
49.803404,3.305986,31.86,0.41,0.76,9.62
49.803197,3.306298,31.84,-0.15,0.81,10.32
49.803197,3.306298,31.84,-0.06,0.82,9.76
49.802992,3.306612,31.75,0.83,1.23,9.63
49.802992,3.306612,31.75,0.24,1.36,10.34
49.802786,3.306917,31.68,-0.65,0.63,8.81
49.802786,3.306917,31.68,-1.28,1.75,10.14
49.802582,3.307222,31.63,-0.08,1.17,10.13
49.802582,3.307222,31.63,0.02,1.82,9.69
49.802376,3.307524,31.59,-1.01,1.72,10.28
49.802376,3.307524,31.59,-0.95,1.73,8.51
49.80217,3.307818,31.5,-0.57,1.11,9.03
49.80217,3.307818,31.5,-0.73,0.61,10.76
49.801959,3.308117,31.45,-0.62,1.35,10.52
49.801959,3.308117,31.45,1.41,1.21,9.22
49.80175,3.308414,31.47,-0.52,0.44,10.0
49.80175,3.308414,31.47,-0.81,1.58,8.01
49.801538,3.308713,31.57,-0.79,1.69,8.78
49.801538,3.308713,31.57,-0.35,1.94,8.13
49.801327,3.309006,31.52,-1.88,1.9,8.85
49.801327,3.309006,31.52,-0.07,2.27,10.14
49.801116,3.309297,31.63,-0.48,1.78,10.97
49.801116,3.309297,31.63,-0.79,0.9,10.64
49.800903,3.309586,31.65,-1.09,1.41,10.44
49.800903,3.309586,31.65,0.09,1.67,11.22
49.800691,3.30988,31.72,-0.69,2.39,10.65
49.800691,3.30988,31.72,-0.79,1.54,9.04
49.80048,3.310164,31.73,0.6,1.21,10.82
49.80048,3.310164,31.73,0.05,1.36,11.06
49.800264,3.310455,31.77,0.3,1.1,10.47
49.800264,3.310455,31.77,0.73,1.5,10.32
49.800045,3.310742,31.82,-0.69,0.79,10.65
49.800045,3.310742,31.82,-0.47,0.76,11.17
49.799824,3.311028,31.84,-1.32,1.09,11.07
49.799824,3.311028,31.84,0.3,0.91,9.81
49.799606,3.311311,31.9,-1.16,1.26,10.62
49.799606,3.311311,31.9,-1.22,1.22,10.17
49.799387,3.311597,32.0,-0.59,1.1,10.17
49.799387,3.311597,32.0,-0.29,1.58,10.43
49.799167,3.311887,32.01,-1.18,1.87,10.18
49.798946,3.312178,32.1,-0.44,1.88,10.34
49.798946,3.312178,32.1,-1.01,1.96,11.12
49.798726,3.31246,32.14,-1.07,1.63,8.64
49.798726,3.31246,32.14,-0.22,0.82,8.4
49.798504,3.312746,32.22,0.17,1.76,7.87
49.798504,3.312746,32.22,-0.67,0.62,8.87
49.798283,3.313032,32.3,0.66,0.88,8.13
49.798283,3.313032,32.3,-0.49,1.27,10.88
49.79806,3.313322,32.35,-0.66,1.7,9.06
49.79806,3.313322,32.35,-1.71,1.72,10.55
49.797837,3.313607,32.46,-0.27,1.93,9.69
49.797837,3.313607,32.46,0.33,1.23,8.51
49.797613,3.313907,32.54,0.49,1.63,9.49
49.797613,3.313907,32.54,-0.76,2.14,11.63
49.797387,3.314206,32.65,-1.25,1.71,8.4
49.797387,3.314206,32.65,-1.33,1.93,8.37
49.797162,3.314503,32.73,0.34,0.85,11.31
49.797162,3.314503,32.73,-1.54,1.8,10.69
49.796939,3.314799,32.75,-0.5,2.38,10.8
49.796939,3.314799,32.75,-0.25,1.6,8.93
49.796718,3.315095,32.78,-1.02,1.04,10.72
49.796718,3.315095,32.78,-0.5,1.9,8.64
49.796495,3.315389,32.86,0.47,2.0,10.45
49.796495,3.315389,32.86,-0.68,0.84,8.23
49.796271,3.315688,32.92,-0.97,2.0,10.63
49.796271,3.315688,32.92,-1.66,1.58,8.94
49.796049,3.315989,32.98,0.34,1.38,10.52
49.796049,3.315989,32.98,-1.11,1.9,11.37
49.795826,3.316297,33.04,-0.82,1.69,10.45
49.795826,3.316297,33.04,0.11,0.84,10.67
49.795605,3.316605,33.11,-0.06,2.23,9.61
49.795605,3.316605,33.11,-0.44,0.69,10.17
49.795385,3.316909,33.1,-1.81,1.18,11.09
49.795385,3.316909,33.1,-1.3,1.38,9.28
49.795161,3.317213,33.24,0.17,0.91,8.64
49.795161,3.317213,33.24,-0.8,2.43,10.24
49.794939,3.317517,33.32,0.1,1.14,9.57
49.794939,3.317517,33.32,-0.67,1.24,8.56
49.794716,3.317823,33.41,-0.69,0.91,8.91
49.794716,3.317823,33.41,-0.99,1.79,9.95
49.79449,3.318133,33.48,0.07,0.67,7.83
49.794265,3.318442,33.55,-0.76,1.87,11.6
49.794265,3.318442,33.55,-0.83,1.75,9.12
49.794042,3.318756,33.6,-0.31,0.91,7.97
49.794042,3.318756,33.6,0.31,0.58,10.3
49.793819,3.319073,33.61,-0.28,1.82,9.32
49.793819,3.319073,33.61,-0.92,0.8,9.53
49.793592,3.319394,33.64,-0.89,2.08,11.59
49.793592,3.319394,33.64,-0.72,0.27,10.28
49.793368,3.31971,33.61,-0.99,1.14,7.84
49.793368,3.31971,33.61,-0.55,0.48,10.42
49.793147,3.320031,33.66,-1.72,1.1,8.79
49.793147,3.320031,33.66,0.41,0.98,9.05
49.792925,3.32035,33.66,-0.54,2.27,10.72
49.792925,3.32035,33.66,-0.55,1.75,12.4
49.792706,3.320664,33.68,-1.09,1.49,8.18
49.792706,3.320664,33.68,1.08,2.23,11.53
49.792483,3.320982,33.81,0.29,0.97,8.76
49.792483,3.320982,33.81,-1.57,0.96,9.67
49.792262,3.321302,33.88,0.09,0.72,7.83
49.792262,3.321302,33.88,-1.46,0.74,7.93
49.792047,3.321618,34.01,-1.37,2.18,11.39
49.792047,3.321618,34.01,0.64,0.48,9.23
49.791829,3.321944,34.21,-0.53,1.25,9.58
49.791829,3.321944,34.21,-1.24,1.78,9.56
49.791615,3.322274,34.11,-0.48,1.54,10.6
49.791615,3.322274,34.11,-0.5,0.8,9.13
49.791391,3.322605,34.16,-0.05,2.62,9.77
49.791391,3.322605,34.16,-0.49,2.79,11.27
49.791165,3.322935,34.29,-0.35,1.19,9.14
49.791165,3.322935,34.29,-1.37,1.17,10.02
49.790943,3.323265,34.36,-0.38,0.88,8.32
49.790943,3.323265,34.36,-1.46,1.9,9.65
49.790723,3.323598,34.34,0.61,0.69,8.5
49.790723,3.323598,34.34,-0.26,0.75,9.46
49.790498,3.323933,34.35,-0.34,1.66,11.36
49.790498,3.323933,34.35,-0.98,2.15,11.62
49.790273,3.324271,34.42,-0.96,1.26,10.51
49.790273,3.324271,34.42,-0.18,0.34,9.23
49.790054,3.324606,34.54,-0.94,2.49,10.07
49.789837,3.324944,34.33,-1.33,2.62,11.15
49.789837,3.324944,34.33,-0.86,2.1,11.06
49.789615,3.325272,34.73,-0.34,0.78,9.28
49.789615,3.325272,34.73,0.29,0.33,9.77
49.789395,3.325606,34.6,0.06,0.62,8.18
49.789395,3.325606,34.6,-0.77,2.69,11.77
49.789172,3.325937,34.62,-0.56,2.27,9.16
49.789172,3.325937,34.62,-1.75,1.93,10.38
49.788949,3.326286,34.78,-1.07,1.7,10.29
49.788949,3.326286,34.78,-1.31,1.38,10.43
49.788731,3.326644,34.83,-0.73,0.81,9.79
49.788731,3.326644,34.83,-0.92,1.67,10.27
49.78851,3.326997,34.83,-0.69,0.73,11.44
49.78851,3.326997,34.83,-1.63,0.1,9.72
49.788292,3.327344,34.85,0.46,1.0,9.83
49.788292,3.327344,34.85,-1.12,2.12,9.87
49.788075,3.327692,34.84,-1.42,2.26,11.77
49.788075,3.327692,34.84,-0.49,0.97,9.72
49.787856,3.328036,34.82,0.69,0.78,10.28
49.787856,3.328036,34.82,-1.12,0.68,10.57
49.787636,3.328381,34.8,-1.27,0.84,9.4
49.787636,3.328381,34.8,0.88,1.18,9.5
49.78741,3.328724,34.83,0.16,0.88,9.84
49.78741,3.328724,34.83,0.76,1.7,10.09
49.787186,3.329065,34.85,-0.23,0.73,9.17
49.787186,3.329065,34.85,-0.63,1.43,9.91
49.786964,3.329405,34.89,-1.34,1.82,9.3
49.786964,3.329405,34.89,-1.35,1.46,10.1
49.786742,3.329747,34.9,-0.75,2.21,9.96
49.786742,3.329747,34.9,0.44,1.5,10.25
49.786524,3.330089,34.73,-1.09,1.84,11.67
49.786524,3.330089,34.73,-0.34,0.74,9.51
49.786309,3.330431,34.57,-0.85,1.4,10.89
49.786309,3.330431,34.57,-1.21,0.77,8.51
49.786096,3.330768,34.14,-1.23,1.36,11.2
49.786096,3.330768,34.14,-1.29,1.45,9.65
49.785883,3.331103,33.8,-0.92,1.62,9.26
49.785883,3.331103,33.8,-0.74,1.41,9.74
49.785671,3.331433,33.86,-0.42,1.24,8.71
49.785671,3.331433,33.86,-2.01,0.89,10.1
49.785453,3.331768,33.88,-0.6,0.7,9.38
49.785237,3.332099,33.85,-1.33,1.7,11.84
49.785237,3.332099,33.85,0.58,0.97,9.44
49.785021,3.332432,33.84,0.09,0.92,7.69
49.785021,3.332432,33.84,0.11,0.78,9.57
49.784801,3.332769,33.77,0.03,1.54,8.42
49.784801,3.332769,33.77,-0.1,0.3,10.17
49.784589,3.3331,33.67,-0.68,0.77,9.39
49.784589,3.3331,33.67,-0.74,1.16,9.83
49.784379,3.33343,33.65,-1.29,0.9,8.8
49.784379,3.33343,33.65,-1.6,0.74,10.57
49.784164,3.333761,33.56,0.35,1.27,8.94
49.784164,3.333761,33.56,-0.85,1.28,10.73
49.783951,3.33409,33.55,0.05,1.72,8.88
49.783951,3.33409,33.55,-1.52,1.38,9.55
49.78374,3.334421,33.51,0.16,1.42,9.49
49.78374,3.334421,33.51,0.49,1.61,11.15
49.783527,3.33475,33.52,0.22,0.99,9.3
49.783527,3.33475,33.52,-0.16,1.47,11.88
49.783309,3.335075,33.57,0.45,1.53,10.52
49.783309,3.335075,33.57,0.69,1.84,8.12
49.783089,3.335401,33.67,-0.71,1.07,9.34
49.783089,3.335401,33.67,-1.66,1.87,9.85
49.782868,3.335727,33.73,-0.48,0.57,10.18
49.782868,3.335727,33.73,-1.7,1.06,10.56
49.782647,3.336051,33.76,-0.56,1.5,11.12
49.782647,3.336051,33.76,0.42,1.31,9.92
49.782426,3.336378,33.83,-0.49,1.68,10.06
49.782426,3.336378,33.83,0.07,0.78,9.97
49.782207,3.336702,33.85,-1.81,1.07,8.27
49.782207,3.336702,33.85,-0.36,1.5,9.86
49.781987,3.337029,33.78,-0.09,1.5,10.03
49.781987,3.337029,33.78,-1.18,3.06,9.84
49.781772,3.337351,33.79,-0.86,0.14,10.48
49.781772,3.337351,33.79,-0.94,0.41,8.77
49.781554,3.337674,33.82,-0.81,1.5,10.24
49.781554,3.337674,33.82,-0.05,0.92,9.3
49.781334,3.337999,33.82,-0.04,1.57,8.3
49.781334,3.337999,33.82,-0.12,1.58,7.83
49.781114,3.33832,33.8,-0.02,1.87,10.18
49.781114,3.33832,33.8,0.06,1.64,10.76
49.780893,3.338634,33.76,-1.29,1.26,8.97
49.780893,3.338634,33.76,-0.24,1.59,11.45
49.780669,3.338949,33.75,0.28,1.19,8.74
49.780442,3.339268,33.76,-0.21,1.7,8.75
49.780442,3.339268,33.76,-0.44,0.98,8.85
49.780217,3.339585,33.68,-1.81,1.47,9.36
49.780217,3.339585,33.68,0.3,0.96,9.37
49.779993,3.339903,33.62,-0.6,1.48,9.04
49.779993,3.339903,33.62,-1.01,1.35,11.99
49.779772,3.340217,33.56,-0.15,2.08,10.84
49.779772,3.340217,33.56,1.1,1.32,10.37
49.779549,3.340531,33.46,-1.57,1.51,7.74
49.779549,3.340531,33.46,-1.18,0.51,12.17
49.779327,3.34084,33.37,-0.7,2.11,11.19
49.779327,3.34084,33.37,1.47,1.04,8.33
49.779102,3.34115,33.33,-0.01,2.52,8.77
49.779102,3.34115,33.33,-0.01,1.24,9.82
49.778878,3.341458,33.31,-0.93,1.46,10.64
49.778878,3.341458,33.31,-0.37,0.78,9.37
49.778656,3.341762,33.32,-0.51,0.78,10.24
49.778656,3.341762,33.32,-0.72,1.66,9.75
49.778433,3.342066,33.33,-1.26,1.31,10.53
49.778433,3.342066,33.33,-0.71,2.02,9.51
49.778207,3.342375,33.34,0.41,1.31,9.73
49.778207,3.342375,33.34,-0.02,2.42,10.59
49.777982,3.34268,33.34,0.67,0.68,8.17
49.777982,3.34268,33.34,-0.42,1.21,12.12
49.777758,3.342988,33.44,0.6,1.24,9.48
49.777758,3.342988,33.44,-0.17,2.02,9.79
49.777536,3.343288,33.42,-0.93,1.37,7.69
49.777536,3.343288,33.42,-1.24,1.69,11.23
49.777308,3.343589,33.49,-0.56,1.36,9.73
49.777308,3.343589,33.49,-0.33,1.76,11.07
49.77708,3.343895,33.5,-1.25,1.2,8.18
49.77708,3.343895,33.5,-0.38,1.23,10.31
49.776853,3.344199,33.49,0.23,0.23,9.54
49.776853,3.344199,33.49,-0.57,1.01,12.08
49.776624,3.344499,33.53,-0.55,0.9,9.09
49.776624,3.344499,33.53,-1.49,1.36,9.24
49.776394,3.344796,33.53,-1.13,1.37,8.17
49.776394,3.344796,33.53,-0.52,1.13,11.48
49.776165,3.345096,33.54,0.3,0.8,8.01
49.775937,3.345399,33.54,-1.22,0.65,10.16
49.775937,3.345399,33.54,-1.05,0.83,9.23
49.775706,3.345702,33.5,-1.78,1.87,10.51
49.775706,3.345702,33.5,0.61,1.77,8.64
49.775472,3.345997,33.5,-1.49,0.99,11.43
49.775472,3.345997,33.5,-0.1,2.14,10.26
49.77524,3.346292,33.54,0.56,1.08,8.83
49.77524,3.346292,33.54,-1.16,1.94,9.23
49.775011,3.346584,33.53,-1.13,1.77,11.2
49.775011,3.346584,33.53,-0.79,2.03,10.07
49.774778,3.346879,33.51,-0.12,0.84,10.24
49.774778,3.346879,33.51,-0.75,1.46,7.81
49.774546,3.347171,33.47,0.68,1.33,9.25
49.774546,3.347171,33.47,0.13,1.76,9.09
49.774311,3.347463,33.46,-1.54,1.08,8.57
49.774311,3.347463,33.46,-0.74,2.1,12.08
49.774077,3.347754,33.48,0.41,0.75,7.7
49.774077,3.347754,33.48,0.02,1.83,9.94
49.773843,3.34804,33.4,-1.13,0.45,9.21
49.773843,3.34804,33.4,-1.35,2.33,9.89
49.77361,3.34833,33.39,0.12,0.41,9.54
49.77361,3.34833,33.39,-0.27,0.69,10.38
49.773376,3.348622,33.42,-0.44,1.13,9.52
49.773376,3.348622,33.42,0.04,1.05,10.67
49.77314,3.348915,33.51,0.37,1.16,9.04
49.77314,3.348915,33.51,1.09,0.91,10.73
49.772908,3.349202,33.45,-0.99,1.55,8.71
49.772908,3.349202,33.45,-0.99,1.78,12.5
49.772672,3.349489,33.66,-0.45,0.75,8.83
49.772672,3.349489,33.66,-1.39,0.85,10.6
49.772435,3.349775,33.78,0.22,0.42,9.57
49.772435,3.349775,33.78,-0.32,1.54,9.06
49.772196,3.350065,33.84,-0.23,0.38,10.06
49.772196,3.350065,33.84,-1.48,0.79,9.53
49.771957,3.350356,33.94,-0.38,2.07,10.79
49.771957,3.350356,33.94,-0.21,0.26,9.79
49.771717,3.350649,34.06,-0.91,0.86,8.41
49.771476,3.350946,34.13,-1.18,1.73,9.47
49.771476,3.350946,34.13,-0.66,1.67,11.99
49.771234,3.351241,34.26,-2.07,0.14,9.42
49.771234,3.351241,34.26,-0.02,1.21,10.36
49.770992,3.351534,34.36,0.07,1.43,9.48
49.770992,3.351534,34.36,-0.34,0.5,10.38
49.770751,3.351829,34.46,0.39,-0.09,9.3
49.770751,3.351829,34.46,-1.75,-0.24,8.26
49.770508,3.352126,34.41,-1.75,1.34,10.75
49.770508,3.352126,34.41,0.23,-0.23,9.04
49.770267,3.352421,33.94,0.84,0.19,10.67
49.770267,3.352421,33.94,-0.29,-0.17,10.3
49.770028,3.352706,33.63,-0.77,-0.04,9.13
49.770028,3.352706,33.63,-1.13,1.63,12.17
49.769792,3.352994,33.19,-0.79,1.14,9.75
49.769792,3.352994,33.19,0.91,0.53,8.4
49.769558,3.353271,32.84,-1.92,1.19,10.32
49.769558,3.353271,32.84,-2.04,1.88,11.76
49.769327,3.353547,32.61,-0.59,1.44,8.9
49.769327,3.353547,32.61,0.43,0.35,9.33
49.769099,3.353827,32.39,-0.05,-0.13,9.85
49.769099,3.353827,32.39,-0.07,-0.32,10.48
49.768872,3.354105,32.04,-0.68,0.42,9.97
49.768872,3.354105,32.04,-0.57,-0.23,11.16
49.768648,3.354382,31.69,0.7,-0.01,10.41
49.768648,3.354382,31.69,-0.84,-0.01,9.24
49.768427,3.354657,31.55,0.25,0.16,9.53
49.768427,3.354657,31.55,-0.12,1.02,10.3
49.768206,3.354929,31.46,0.57,1.37,8.86
49.768206,3.354929,31.46,-0.37,1.85,8.37
49.767983,3.355205,31.4,-0.35,1.6,10.0
49.767983,3.355205,31.4,-0.5,0.57,10.19
49.767763,3.355469,31.39,-1.03,1.03,10.74
49.767763,3.355469,31.39,-1.36,0.87,10.5
49.767542,3.355737,31.66,-0.63,1.41,10.92
49.767542,3.355737,31.66,-0.3,1.53,10.6
49.767315,3.356012,31.94,-1.82,0.81,12.67
49.767315,3.356012,31.94,-0.88,0.64,10.01
49.767089,3.356286,32.23,-0.57,1.05,8.98
49.767089,3.356286,32.23,-0.78,1.99,11.26
49.766861,3.356567,32.44,-0.49,1.66,8.17
49.766633,3.35685,32.86,0.33,1.81,9.18
49.766633,3.35685,32.86,0.03,1.99,10.17
49.766404,3.357139,33.1,-0.57,1.86,9.38
49.766404,3.357139,33.1,-1.01,0.81,9.7
49.76617,3.357432,33.21,-1.07,1.76,9.55
49.76617,3.357432,33.21,-0.67,1.59,8.33
49.765941,3.357728,33.42,-1.79,1.46,10.16
49.765941,3.357728,33.42,0.12,1.14,8.27
49.765714,3.358031,33.55,-0.01,1.55,10.89
49.765714,3.358031,33.55,-0.12,1.13,9.14
49.765482,3.358335,33.7,-1.04,1.47,8.03
49.765482,3.358335,33.7,-0.37,1.32,10.09
49.765249,3.358641,33.76,-0.96,2.33,10.23
49.765249,3.358641,33.76,-0.87,0.25,10.14
49.765016,3.358949,33.74,-0.57,1.62,10.93
49.765016,3.358949,33.74,-1.54,0.91,9.16
49.764784,3.359251,33.69,-0.91,0.71,10.03
49.764784,3.359251,33.69,-0.66,2.16,8.68
49.764558,3.359554,33.61,-1.54,1.29,9.8
49.764558,3.359554,33.61,-1.15,1.09,11.2
49.764331,3.359857,33.48,0.38,0.68,9.52
49.764331,3.359857,33.48,0.06,0.6,10.33
49.764108,3.360162,33.4,-1.3,1.06,9.89
49.764108,3.360162,33.4,0.09,1.65,11.15
49.763882,3.360472,33.17,-0.11,1.75,10.18
49.763882,3.360472,33.17,-0.07,0.89,9.38
49.763659,3.360781,33.12,-0.57,1.24,10.39
49.763659,3.360781,33.12,-0.58,1.77,10.63
49.76344,3.361089,33.01,0.22,1.15,10.44
49.76344,3.361089,33.01,-0.6,2.2,11.21
49.763224,3.361398,32.94,-1.84,1.06,9.28
49.763224,3.361398,32.94,-2.1,0.57,10.27
49.763008,3.361709,32.93,-1.7,1.22,10.07
49.763008,3.361709,32.93,-0.42,1.51,10.39
49.762793,3.362019,32.97,-0.76,0.7,11.5
49.762793,3.362019,32.97,-0.68,1.59,10.55
49.762573,3.362331,33.0,-1.7,1.5,8.35
49.762573,3.362331,33.0,-1.49,0.66,10.44
49.762356,3.362644,33.09,-0.51,1.76,9.4
49.762138,3.362962,33.13,-1.32,0.91,9.82
49.762138,3.362962,33.13,-1.65,1.49,10.81
49.761921,3.363278,33.23,-0.3,1.74,9.06
49.761921,3.363278,33.23,0.01,0.49,9.32
49.761706,3.363601,33.29,-0.48,1.79,9.77
49.761706,3.363601,33.29,-0.59,1.28,10.82
49.761493,3.363925,33.33,-1.5,1.61,10.78
49.761493,3.363925,33.33,-1.85,0.19,8.05
49.761284,3.364258,33.36,0.55,1.2,10.05
49.761284,3.364258,33.36,0.28,1.66,9.25
49.761074,3.364591,33.35,-0.75,1.36,9.94
49.761074,3.364591,33.35,-1.33,1.62,9.39
49.760866,3.36493,33.35,-0.13,0.43,10.11
49.760866,3.36493,33.35,-0.74,2.11,9.66
49.760663,3.365269,33.33,-1.34,0.81,8.6
49.760663,3.365269,33.33,0.01,1.65,9.9
49.760459,3.365614,33.42,0.27,0.57,10.46
49.760459,3.365614,33.42,0.71,1.21,11.71
49.760253,3.365954,33.56,-0.88,1.06,8.94
49.760253,3.365954,33.56,-1.46,1.85,12.33
49.760052,3.366299,33.65,-0.91,1.32,9.84
49.760052,3.366299,33.65,-0.13,1.55,10.76
49.759856,3.366641,33.63,-0.23,0.41,10.77
49.759856,3.366641,33.63,-0.82,0.83,8.53
49.759656,3.366988,33.61,-0.62,0.99,10.07
49.759656,3.366988,33.61,-0.74,2.17,10.08
49.759463,3.367333,33.53,0.02,1.36,9.55
49.759463,3.367333,33.53,-1.38,1.61,9.62
49.759262,3.367682,33.64,0.27,0.85,10.09
49.759262,3.367682,33.64,-0.88,1.52,8.49
49.759063,3.368029,33.72,-0.41,1.02,11.94
49.759063,3.368029,33.72,-0.5,1.68,9.65
49.758866,3.368384,33.68,-0.81,1.95,10.12
49.758866,3.368384,33.68,0.22,1.67,9.47
49.758669,3.368739,33.88,-0.89,2.17,9.34
49.758669,3.368739,33.88,-0.8,1.29,10.83
49.758471,3.369098,33.98,0.23,0.8,9.05
49.758471,3.369098,33.98,-1.64,2.17,10.23
49.758274,3.369467,34.02,-0.39,1.6,9.73
49.758274,3.369467,34.02,0.23,0.84,10.52
49.758078,3.369835,34.2,-1.14,1.93,8.83
49.757881,3.370207,34.36,-1.18,2.17,9.85
49.757881,3.370207,34.36,-1.42,1.43,10.43
49.757686,3.370578,34.44,-0.52,1.02,10.01
49.757686,3.370578,34.44,-1.01,1.68,10.46
49.757493,3.370955,34.58,-0.98,1.47,7.26
49.757493,3.370955,34.58,-1.16,1.23,9.73
49.757297,3.371329,34.53,-0.93,-0.46,10.87
49.757297,3.371329,34.53,-0.59,0.11,8.72
49.757103,3.371706,34.01,-1.36,1.41,8.38
49.757103,3.371706,34.01,0.29,1.21,9.96
49.756915,3.372077,33.86,-1.73,1.48,8.72
49.756915,3.372077,33.86,-0.36,2.08,10.85
49.756736,3.372453,33.86,-1.13,1.11,8.94
49.756736,3.372453,33.86,-0.79,1.45,8.38
49.75656,3.372831,33.89,0.45,1.15,13.17
49.75656,3.372831,33.89,-1.25,1.54,10.02
49.756386,3.373213,33.87,0.13,1.48,10.74
49.756386,3.373213,33.87,-0.15,0.42,9.11
49.756215,3.373599,33.89,-1.1,1.79,12.32
49.756215,3.373599,33.89,0.87,1.15,9.66
49.756043,3.373986,34.03,-1.46,1.6,9.58
49.756043,3.373986,34.03,-1.44,1.16,8.45
49.755868,3.374373,34.14,-0.32,1.07,9.89
49.755868,3.374373,34.14,-1.0,0.67,8.97
49.75569,3.374756,34.12,-1.17,1.2,9.37
49.75569,3.374756,34.12,-0.4,2.21,11.04
49.755511,3.375141,34.19,-0.52,0.36,9.66
49.755511,3.375141,34.19,-1.74,0.9,7.54
49.755334,3.375529,34.09,-0.39,0.99,10.52
49.755334,3.375529,34.09,-1.6,2.02,11.33
49.755159,3.375915,34.13,-0.1,0.65,9.37
49.755159,3.375915,34.13,0.42,1.16,8.66
49.754985,3.376308,34.14,-0.88,1.99,11.35
49.754985,3.376308,34.14,-0.57,0.75,8.67
49.754813,3.376701,33.98,0.47,1.96,9.94
49.754813,3.376701,33.98,-1.24,1.83,9.19
49.754645,3.377093,33.82,-0.74,1.41,9.62
49.754645,3.377093,33.82,-1.0,2.28,12.31
49.754476,3.377483,33.71,-0.31,2.39,10.36
49.754305,3.377864,33.52,-1.79,1.86,11.74
49.754305,3.377864,33.52,-0.12,1.23,8.8
49.754132,3.378244,33.33,0.5,1.17,9.78
49.754132,3.378244,33.33,-0.57,1.93,9.45
49.75396,3.378627,33.2,-0.38,1.23,10.88
49.75396,3.378627,33.2,-0.49,1.82,12.26
49.75379,3.37901,33.07,-0.68,1.84,9.43
49.75379,3.37901,33.07,-0.91,2.02,11.68
49.753623,3.379387,32.91,0.14,1.68,9.7
49.753623,3.379387,32.91,-0.07,1.78,8.34
49.753455,3.379769,32.74,0.31,0.73,8.5
49.753455,3.379769,32.74,-0.42,2.56,10.72
49.753289,3.380143,32.62,-1.39,1.7,8.57
49.753289,3.380143,32.62,-0.14,2.4,9.15
49.753124,3.380515,32.54,-0.73,1.15,10.36
49.753124,3.380515,32.54,-0.56,1.98,10.51
49.752958,3.380886,32.35,-0.86,1.49,11.66
49.752958,3.380886,32.35,-0.65,2.27,10.05
49.752794,3.381256,32.27,-0.12,1.5,9.53
49.752794,3.381256,32.27,0.53,1.42,8.87
49.752631,3.381626,32.05,-0.13,2.34,9.31
49.752631,3.381626,32.05,-0.39,1.75,6.69
49.752469,3.381993,31.96,-0.21,1.87,9.92
49.752469,3.381993,31.96,0.54,1.42,9.37
49.752307,3.382358,31.85,0.67,1.67,8.32
49.752307,3.382358,31.85,0.88,1.78,8.36
49.752147,3.382718,31.62,-0.49,2.66,7.69
49.752147,3.382718,31.62,-1.18,1.67,8.93
49.75198,3.383085,31.57,-0.36,1.62,9.03
49.75198,3.383085,31.57,-0.15,1.25,9.12
49.751819,3.383443,31.39,0.66,1.6,11.27
49.751819,3.383443,31.39,-0.98,0.57,10.99
49.751659,3.383806,31.31,1.06,1.44,9.02
49.751659,3.383806,31.31,-1.25,2.06,8.94
49.751496,3.384172,31.24,-0.21,1.63,9.52
49.751496,3.384172,31.24,-0.97,1.0,8.96
49.751338,3.38453,31.19,-1.04,0.85,10.48
49.751338,3.38453,31.19,0.97,0.96,8.56
49.751179,3.384886,31.26,-0.49,1.68,10.33
49.751179,3.384886,31.26,0.17,1.52,10.72
49.75102,3.385233,31.23,-0.5,1.35,9.99
49.75086,3.385582,31.33,-0.7,0.48,10.61
49.75086,3.385582,31.33,-0.46,1.08,10.8
49.750696,3.385937,31.43,0.13,1.1,9.47
49.750696,3.385937,31.43,-0.48,1.97,9.72
49.75053,3.386295,31.54,-1.71,1.41,10.8
49.75053,3.386295,31.54,-0.77,2.0,9.66
49.750366,3.386651,31.71,1.11,2.44,9.95
49.750366,3.386651,31.71,0.21,2.29,10.29
49.7502,3.387008,31.75,0.86,1.71,9.82
49.7502,3.387008,31.75,-0.57,1.17,10.36
49.750034,3.387366,31.9,0.53,1.28,11.08
49.750034,3.387366,31.9,0.21,2.11,10.6
49.749871,3.387725,32.04,-0.65,1.58,8.56
49.749871,3.387725,32.04,-0.95,1.74,9.88
49.74969,3.388078,32.15,-0.32,1.5,7.7
49.74969,3.388078,32.15,1.03,2.34,8.54
49.74951,3.388429,32.27,-0.23,1.76,10.55
49.74951,3.388429,32.27,0.35,1.36,11.07
49.749323,3.388782,32.44,0.27,1.36,9.96
49.749323,3.388782,32.44,-0.58,1.68,9.29
49.749139,3.389137,32.49,-1.06,1.98,8.13
49.749139,3.389137,32.49,-0.23,1.53,7.48
49.748951,3.389484,32.57,-0.23,1.17,10.32
49.748951,3.389484,32.57,-0.21,1.09,10.03
49.74876,3.38983,32.7,-0.93,2.31,8.26
49.74876,3.38983,32.7,0.59,0.74,8.03
49.748567,3.39017,32.84,0.09,2.04,10.42
49.748567,3.39017,32.84,-1.14,1.69,11.67
49.748369,3.390511,32.99,0.25,1.42,8.69
49.748369,3.390511,32.99,0.12,1.93,10.23
49.748172,3.39085,33.14,-1.2,2.01,10.45
49.748172,3.39085,33.14,0.0,0.09,9.36
49.747974,3.391187,33.26,-0.68,1.88,8.72
49.747974,3.391187,33.26,0.03,0.55,10.52
49.74777,3.391522,33.33,-0.33,2.01,10.46
49.747566,3.391854,33.48,0.0,0.61,10.31
49.747566,3.391854,33.48,-0.11,1.78,8.59
49.747357,3.392186,33.69,1.32,1.15,8.1
49.747357,3.392186,33.69,-1.2,1.8,9.96
49.747139,3.392515,33.78,-0.45,0.66,9.3
49.747139,3.392515,33.78,0.34,1.7,9.24
49.746925,3.392846,33.79,-0.07,0.98,11.41
49.746925,3.392846,33.79,-0.35,1.94,9.17
49.746705,3.393168,33.63,-0.76,0.32,11.2
49.746705,3.393168,33.63,-0.51,0.95,9.09
49.746484,3.393485,33.49,-0.31,1.53,10.06
49.746484,3.393485,33.49,0.22,1.22,9.14
49.746259,3.393795,33.25,0.33,0.79,11.36
49.746259,3.393795,33.25,-0.51,1.92,9.97
49.746034,3.394103,32.96,-0.14,1.48,9.93
49.746034,3.394103,32.96,-0.93,1.3,9.75
49.74581,3.394402,32.73,-0.09,1.76,9.44
49.74581,3.394402,32.73,-0.33,1.43,9.2
49.745584,3.394697,32.53,-0.32,1.84,7.65
49.745584,3.394697,32.53,-0.41,1.15,11.09
49.745362,3.394987,32.41,-0.46,1.89,11.02
49.745362,3.394987,32.41,1.1,1.57,10.05
49.745139,3.395282,32.3,-0.54,1.1,8.8
49.745139,3.395282,32.3,0.17,1.88,8.21
49.744919,3.395575,32.21,-0.1,0.68,8.94
49.744919,3.395575,32.21,0.25,2.0,8.15
49.744698,3.395864,32.07,0.35,0.97,8.98
49.744698,3.395864,32.07,0.35,1.24,10.36
49.744478,3.396146,31.97,1.4,1.86,10.02
49.744478,3.396146,31.97,-0.43,1.12,10.13
49.744259,3.396413,31.88,-0.46,1.91,10.17
49.744259,3.396413,31.88,-0.96,1.18,10.57
49.744028,3.396669,31.82,-0.2,1.62,10.39
49.744028,3.396669,31.82,-0.78,0.87,10.96
49.743794,3.396924,31.7,-0.7,1.24,9.6
49.743794,3.396924,31.7,1.08,1.02,8.14
49.743563,3.397176,31.66,1.24,1.8,9.2
49.743563,3.397176,31.66,-0.48,1.89,9.54
49.743331,3.397425,31.64,-1.01,2.06,9.58
49.743101,3.397675,31.66,-1.05,1.47,8.04
49.743101,3.397675,31.66,0.01,0.97,8.02
49.742867,3.397927,31.64,-1.14,1.24,10.03
49.742867,3.397927,31.64,0.45,2.13,10.49
49.742631,3.398172,31.64,-1.04,2.44,9.41
49.742631,3.398172,31.64,0.26,1.3,9.09
49.742393,3.398411,31.62,0.76,1.56,10.34
49.742393,3.398411,31.62,0.22,1.84,9.12
49.742152,3.398644,31.7,-0.63,0.87,10.71
49.742152,3.398644,31.7,-0.38,1.11,10.83
49.741905,3.398867,31.68,0.07,1.36,10.4
49.741905,3.398867,31.68,0.69,1.5,10.09
49.741655,3.399091,31.74,0.28,1.47,10.93
49.741655,3.399091,31.74,-0.58,1.35,11.54
49.741402,3.39932,32.0,0.59,1.39,10.55
49.741402,3.39932,32.0,-0.81,2.27,10.26
49.741145,3.399548,32.13,0.28,1.97,10.23
49.741145,3.399548,32.13,0.14,1.61,7.22
49.740901,3.399768,32.26,1.12,1.35,8.37
49.740901,3.399768,32.26,-0.13,1.73,8.41
49.740648,3.399983,32.34,-0.21,0.23,8.98
49.740648,3.399983,32.34,-0.28,1.1,10.72
49.740387,3.400194,32.42,0.85,1.37,10.26
49.740387,3.400194,32.42,0.27,2.25,9.06
49.740127,3.400406,32.51,0.23,1.15,8.9
49.740127,3.400406,32.51,-0.48,0.79,10.5
49.739867,3.400608,32.75,0.37,1.15,9.73
49.739867,3.400608,32.75,0.25,1.66,10.13
49.739603,3.400812,32.82,0.15,1.05,11.06
49.739603,3.400812,32.82,-1.25,2.09,10.83
49.73934,3.401016,32.97,-0.84,1.51,9.41
49.73934,3.401016,32.97,0.34,0.79,9.23
49.739077,3.401219,33.15,-0.68,2.48,11.37
49.739077,3.401219,33.15,-0.05,1.38,9.51
49.738808,3.40142,33.27,0.09,1.81,10.49
49.738808,3.40142,33.27,1.18,0.65,8.1
49.738542,3.401621,33.45,-0.07,0.8,11.15
49.738542,3.401621,33.45,-0.58,1.18,8.83
49.73827,3.401816,33.63,-0.29,2.43,11.64
49.737998,3.402015,33.82,-0.14,1.0,10.12
49.737998,3.402015,33.82,-0.96,2.03,9.66
49.737722,3.402204,33.97,-0.55,0.71,10.1
49.737722,3.402204,33.97,-0.32,1.41,9.93
49.737439,3.402397,34.14,-0.88,1.26,11.53
49.737439,3.402397,34.14,-1.51,-0.82,9.75
49.737158,3.402592,33.68,-1.01,0.96,7.62
49.737158,3.402592,33.68,0.04,-0.33,10.3
49.736885,3.402785,33.32,-0.96,1.28,10.43
49.736885,3.402785,33.32,-0.61,1.24,8.64
49.736616,3.402976,32.78,-0.55,-0.05,7.91
49.736616,3.402976,32.78,-1.3,1.22,9.99
49.736348,3.403168,32.78,0.31,1.77,8.5
49.736348,3.403168,32.78,0.38,0.89,9.93
49.73608,3.403358,32.88,-0.36,1.66,11.1
49.73608,3.403358,32.88,-1.56,1.09,9.88
49.735811,3.403547,32.96,0.41,0.57,9.92
49.735811,3.403547,32.96,-0.26,1.92,10.95
49.735542,3.403737,33.07,-0.8,0.64,9.63
49.735542,3.403737,33.07,0.12,0.67,9.91
49.735273,3.403927,33.08,0.36,1.82,14.97
49.735273,3.403927,33.08,0.77,0.34,9.14
49.735002,3.40412,33.1,-0.51,0.07,9.44
49.735002,3.40412,33.1,-1.3,1.9,9.4
49.734734,3.40431,33.06,-0.09,0.41,10.06
49.734734,3.40431,33.06,-0.56,0.51,10.61
49.734467,3.404498,33.04,-0.94,1.42,9.2
49.734467,3.404498,33.04,-0.18,0.49,9.36
49.734198,3.404684,33.23,-0.64,1.14,9.21
49.734198,3.404684,33.23,0.44,0.7,10.15
49.733924,3.404878,33.48,-0.36,1.55,9.04
49.733924,3.404878,33.48,-0.14,0.71,10.79
49.733648,3.405077,33.47,-0.62,2.02,8.8
49.733648,3.405077,33.47,-1.35,0.16,9.72
49.73337,3.405276,33.64,-0.82,0.45,9.89
49.73337,3.405276,33.64,-0.26,1.3,11.78
49.733094,3.40547,33.89,1.95,0.82,10.01
49.733094,3.40547,33.89,-1.5,0.55,9.46
49.732816,3.405666,34.07,-1.65,1.7,8.84
49.732538,3.405861,34.2,-0.16,0.76,9.22
49.732538,3.405861,34.2,0.47,0.45,10.37
49.732259,3.406055,34.28,-1.05,1.81,10.2
49.732259,3.406055,34.28,-1.2,0.87,10.8
49.731976,3.406253,34.6,-1.65,0.86,10.47
49.731976,3.406253,34.6,-0.17,1.46,11.55
49.731695,3.406447,34.56,-0.27,1.82,10.83
49.731695,3.406447,34.56,-0.51,1.72,9.62
49.731414,3.406647,34.38,0.33,-0.02,9.91
49.731414,3.406647,34.38,-0.23,0.61,9.92
49.731133,3.406845,34.3,-1.82,1.53,9.43
49.731133,3.406845,34.3,-0.51,1.29,10.91
49.730853,3.407042,34.23,-1.1,0.73,9.54
49.730853,3.407042,34.23,1.02,1.29,10.81
49.730574,3.407241,34.15,-0.63,2.08,10.69
49.730574,3.407241,34.15,-1.26,1.44,9.72
49.730297,3.407438,34.1,-0.03,1.24,9.23
49.730297,3.407438,34.1,-0.19,2.14,10.63
49.730021,3.407634,34.04,0.99,1.07,9.37
49.730021,3.407634,34.04,-1.72,0.97,9.83
49.72974,3.40783,33.93,0.49,1.85,8.39
49.72974,3.40783,33.93,0.82,1.02,7.95
49.729463,3.408019,33.85,-0.46,1.0,8.84
49.729463,3.408019,33.85,0.21,2.27,10.17
49.729186,3.408208,33.77,0.93,0.65,10.15
49.729186,3.408208,33.77,-0.61,1.85,11.28
49.728908,3.408399,33.65,1.44,1.33,8.69
49.728908,3.408399,33.65,-0.22,1.65,9.49
49.728631,3.408595,33.4,-0.37,0.72,10.15
49.728631,3.408595,33.4,-1.33,1.76,10.33
49.728358,3.408784,33.25,-1.3,0.94,9.27
49.728358,3.408784,33.25,-1.33,0.98,12.35
49.728088,3.408975,33.0,-0.53,1.92,9.0
49.728088,3.408975,33.0,-0.58,1.92,9.71
49.727819,3.409168,32.84,-0.75,1.41,11.32
49.727819,3.409168,32.84,0.0,2.23,7.98
49.72755,3.409357,32.74,-0.91,1.43,7.96
49.72755,3.409357,32.74,-0.48,1.78,9.42
49.727276,3.409545,32.67,0.4,1.72,8.88
49.72701,3.40973,32.63,-0.78,2.05,10.26
49.72701,3.40973,32.63,0.25,1.49,7.88
49.726747,3.409916,32.49,-0.09,1.01,7.66
49.726747,3.409916,32.49,-1.23,0.91,9.88
49.726481,3.410103,32.41,-1.57,1.08,10.11
49.726481,3.410103,32.41,-0.29,2.15,9.95
49.726219,3.410288,32.29,-0.24,1.82,7.73
49.726219,3.410288,32.29,-1.19,1.99,11.3
49.725958,3.410472,32.12,-0.66,1.5,11.58
49.725958,3.410472,32.12,-0.29,1.78,8.19
49.725696,3.410655,32.13,-0.77,1.29,9.22
49.725696,3.410655,32.13,0.21,2.42,11.12
49.725434,3.410836,32.18,-0.19,1.26,10.29
49.725434,3.410836,32.18,0.09,1.46,8.43
49.72517,3.411021,32.19,-0.79,1.71,10.12
49.72517,3.411021,32.19,-0.68,1.94,9.75
49.724902,3.411212,32.16,-1.24,1.24,10.13
49.724902,3.411212,32.16,0.08,1.47,9.93
49.724637,3.411403,32.46,-1.31,1.81,10.41
49.724637,3.411403,32.46,-0.9,1.38,8.23
49.724376,3.411596,32.61,-0.6,1.63,8.75
49.724376,3.411596,32.61,-1.22,1.29,10.92
49.724106,3.411802,32.84,-0.9,1.9,9.08
49.724106,3.411802,32.84,0.57,1.41,10.07
49.723842,3.412011,33.03,-0.65,1.01,10.75
49.723842,3.412011,33.03,-0.83,1.29,8.2
49.723577,3.412223,33.19,-1.01,1.73,7.86
49.723577,3.412223,33.19,-1.55,1.01,9.54
49.723312,3.412443,33.35,0.95,1.08,11.8
49.723312,3.412443,33.35,-1.91,1.76,10.27
49.723041,3.412655,33.54,-0.03,1.3,8.67
49.723041,3.412655,33.54,-1.93,1.48,9.12
49.722769,3.41287,33.69,-0.4,0.89,9.19
49.722769,3.41287,33.69,-0.16,1.25,9.69
49.7225,3.413086,33.82,-1.26,0.74,8.98
49.7225,3.413086,33.82,-0.35,0.76,10.39
49.722231,3.413303,33.85,-0.86,1.75,8.78
49.722231,3.413303,33.85,-0.47,1.57,11.22
49.721963,3.413525,33.85,-1.34,0.77,8.24
49.721963,3.413525,33.85,-0.51,2.15,9.92
49.721698,3.413748,33.86,-0.53,1.46,11.03
49.721698,3.413748,33.86,-0.33,1.81,10.16
49.72143,3.413978,33.82,-0.53,1.34,11.2
49.72143,3.413978,33.82,0.43,1.72,9.86
49.721166,3.414205,33.85,-1.06,0.79,10.42
49.720902,3.414436,33.83,0.04,1.18,9.97
49.720902,3.414436,33.83,-0.96,1.3,9.49
49.720639,3.414667,33.87,0.19,0.4,9.98
49.720639,3.414667,33.87,-1.37,1.87,9.6
49.720375,3.4149,33.79,-0.32,2.17,11.53
49.720375,3.4149,33.79,-1.13,0.83,10.74
49.720112,3.415136,33.76,-0.42,1.75,8.42
49.720112,3.415136,33.76,-1.87,1.24,11.2
49.71985,3.415371,33.67,-0.67,2.02,10.52
49.71985,3.415371,33.67,-0.37,1.13,10.5
49.719591,3.415605,33.5,-1.47,0.92,9.87
49.719591,3.415605,33.5,1.13,1.2,7.57
49.719333,3.415851,33.37,-0.95,1.69,8.19
49.719333,3.415851,33.37,-1.4,1.78,11.88
49.719078,3.41609,33.27,-0.98,2.21,11.31
49.719078,3.41609,33.27,-1.05,1.45,9.62
49.718822,3.416331,33.15,-0.41,1.86,9.96
49.718822,3.416331,33.15,0.3,1.6,8.12
49.718572,3.416575,33.02,1.2,1.34,10.36
49.718572,3.416575,33.02,0.24,2.0,9.02
49.718322,3.416817,32.93,0.34,1.12,8.43
49.718322,3.416817,32.93,0.33,1.3,10.13
49.718068,3.417059,32.92,-0.42,1.96,9.52
49.718068,3.417059,32.92,-0.04,1.68,9.55
49.717818,3.417303,32.92,0.73,1.28,10.13
49.717818,3.417303,32.92,-0.72,1.64,10.97
49.717571,3.417551,32.92,-0.52,1.67,8.61
49.717571,3.417551,32.92,-0.64,1.15,9.62
49.717322,3.417802,32.94,-0.86,2.24,11.41
49.717322,3.417802,32.94,-1.04,1.14,8.58
49.717077,3.418058,32.97,-1.69,2.3,11.75
49.717077,3.418058,32.97,-0.73,2.27,9.76
49.716837,3.418312,33.01,-0.14,0.91,8.58
49.716837,3.418312,33.01,-1.88,2.33,10.98
49.716596,3.418566,32.99,0.06,2.74,10.23
49.716596,3.418566,32.99,1.12,1.19,8.57
49.71635,3.418823,33.04,-0.33,2.7,11.65
49.71635,3.418823,33.04,0.18,2.04,9.52
49.716105,3.419078,33.12,-0.16,1.4,9.96
49.715859,3.41934,33.28,-0.11,1.93,9.08
49.715859,3.41934,33.28,-1.78,0.74,8.19
49.715615,3.419605,33.35,-1.44,2.23,10.84
49.715615,3.419605,33.35,-0.19,1.32,9.16
49.715369,3.419872,33.43,-0.51,1.48,10.35
49.715369,3.419872,33.43,-0.46,2.12,10.07
49.715124,3.420145,33.46,-1.64,2.51,11.78
49.715124,3.420145,33.46,-0.23,1.46,9.74
49.714879,3.420409,33.53,-1.85,2.2,12.38
49.714879,3.420409,33.53,-0.82,2.68,10.37
49.714631,3.420683,33.64,-0.71,1.26,10.62
49.714631,3.420683,33.64,-2.6,1.02,8.85
49.714387,3.420956,33.7,-0.23,1.7,10.53
49.714387,3.420956,33.7,-1.25,1.25,9.03
49.714144,3.421235,33.78,-0.16,2.27,10.43
49.714144,3.421235,33.78,0.02,1.08,9.08
49.7139,3.421518,33.91,-0.29,1.37,8.57
49.7139,3.421518,33.91,-0.89,1.88,12.31
49.713654,3.421803,33.89,0.05,0.91,8.6
49.713654,3.421803,33.89,-0.96,2.81,11.51
49.713413,3.422087,33.85,-1.17,0.91,8.71
49.713413,3.422087,33.85,-0.5,0.79,8.29
49.713172,3.422379,33.92,-0.08,1.64,10.93
49.713172,3.422379,33.92,-0.41,0.64,10.1
49.712931,3.422673,34.03,-1.72,1.39,8.07
49.712931,3.422673,34.03,-1.04,2.75,10.38
49.71269,3.422963,34.1,0.45,0.94,9.45
49.71269,3.422963,34.1,-1.24,1.89,10.86
49.712453,3.423259,34.14,-0.71,2.34,9.27
49.712453,3.423259,34.14,1.17,0.29,8.68
49.712219,3.423558,34.16,-0.87,1.25,9.55
49.712219,3.423558,34.16,-0.52,1.92,10.27
49.711981,3.42386,34.26,-0.72,0.39,9.02
49.711981,3.42386,34.26,0.38,1.06,9.28
49.711745,3.42416,34.41,-0.41,0.01,7.58
49.711745,3.42416,34.41,-1.39,2.69,12.19
49.711506,3.424463,34.52,-0.55,1.57,10.21
49.711506,3.424463,34.52,1.45,1.92,9.91
49.711268,3.424769,34.66,0.38,0.95,10.15
49.711268,3.424769,34.66,-0.15,-0.36,9.73
49.711032,3.425081,34.66,-0.86,0.4,10.01
49.711032,3.425081,34.66,-0.58,1.71,10.88
49.710794,3.425394,34.18,-0.1,0.16,10.12
49.710563,3.425699,33.87,-1.68,1.05,10.6
49.710563,3.425699,33.87,-1.86,2.01,9.46
49.710334,3.426006,33.84,-1.09,0.27,8.54
49.710334,3.426006,33.84,-0.6,1.91,9.75
49.710104,3.426316,33.95,0.16,0.27,9.45
49.710104,3.426316,33.95,-0.51,2.73,11.51
49.709874,3.426625,34.16,-1.1,2.34,9.39
49.709874,3.426625,34.16,0.65,0.38,9.78
49.709644,3.426946,34.2,-1.73,0.58,8.53
49.709644,3.426946,34.2,-0.41,1.61,9.72
49.709416,3.427267,34.25,-0.94,0.63,8.42
49.709416,3.427267,34.25,-0.37,-0.16,9.12
49.709189,3.427588,34.22,-0.85,0.48,8.76
49.709189,3.427588,34.22,-1.19,0.22,9.59
49.708963,3.42791,34.21,0.11,0.68,10.27
49.708963,3.42791,34.21,-0.73,1.25,9.62
49.70874,3.428232,34.11,-1.87,1.58,10.14
49.70874,3.428232,34.11,0.25,0.47,9.6
49.708519,3.428556,33.9,-0.2,1.92,9.49
49.708519,3.428556,33.9,0.16,1.14,9.47
49.708301,3.428877,33.7,-0.54,1.99,9.56
49.708301,3.428877,33.7,-0.18,0.02,9.41
49.708082,3.429197,33.33,-1.02,1.61,11.27
49.708082,3.429197,33.33,-1.05,-0.08,9.92
49.707865,3.429511,32.86,0.79,0.08,10.13
49.707865,3.429511,32.86,-0.57,1.72,10.44
49.707646,3.429821,32.58,-0.99,1.16,10.1
49.707646,3.429821,32.58,-0.72,1.47,10.01
49.707431,3.430124,32.58,-0.36,1.54,11.17
49.707431,3.430124,32.58,0.31,1.91,9.73
49.707216,3.430429,32.87,-0.34,1.87,9.93
49.707216,3.430429,32.87,-0.61,0.84,11.5
49.707,3.430739,33.14,0.43,1.91,10.13
49.707,3.430739,33.14,-1.16,0.45,9.42
49.706783,3.431055,33.34,-0.8,1.37,8.94
49.706783,3.431055,33.34,-0.76,0.74,10.54
49.706567,3.431374,33.37,0.3,1.06,11.51
49.706567,3.431374,33.37,-1.45,1.31,10.34
49.706348,3.431692,33.48,-0.4,1.82,11.25
49.706348,3.431692,33.48,-0.44,1.37,10.58
49.706128,3.432009,33.58,-0.85,1.82,10.83
49.705907,3.432329,33.79,1.61,1.5,10.23
49.705907,3.432329,33.79,-0.13,1.8,11.69
49.705684,3.432646,34.11,0.01,0.28,9.31
49.705684,3.432646,34.11,-1.05,1.35,9.76
49.705459,3.432968,34.34,-1.29,1.53,9.6
49.705459,3.432968,34.34,-1.16,1.59,11.1
49.705229,3.433295,34.53,-0.33,1.25,10.11
49.705229,3.433295,34.53,-0.71,1.93,10.08
49.705002,3.43362,34.67,-0.72,1.34,10.49
49.705002,3.43362,34.67,-0.42,1.98,10.1
49.704774,3.433948,34.71,-0.4,2.24,10.51
49.704774,3.433948,34.71,-0.29,1.92,10.91
49.704546,3.434275,34.75,-1.39,1.17,10.88
49.704546,3.434275,34.75,-0.94,0.79,9.41
49.704318,3.434605,34.81,-0.43,0.62,10.36
49.704318,3.434605,34.81,0.68,0.99,9.5
49.704091,3.434934,34.92,-1.27,1.24,8.11
49.704091,3.434934,34.92,-0.58,1.59,9.67
49.703862,3.435265,34.94,-1.75,1.23,8.14
49.703862,3.435265,34.94,-0.03,2.0,11.37
49.703633,3.435596,34.93,-0.06,1.41,9.78
49.703633,3.435596,34.93,0.04,2.35,11.08
49.703401,3.435928,34.89,-0.34,0.92,11.53
49.703401,3.435928,34.89,0.74,1.2,10.51
49.70317,3.436261,34.82,0.87,1.2,8.85
49.70317,3.436261,34.82,-0.62,1.35,11.53
49.702941,3.436589,34.85,-0.99,1.03,9.36
49.702941,3.436589,34.85,-0.01,0.94,9.73
49.702711,3.436914,34.82,-0.76,1.15,8.5
49.702711,3.436914,34.82,-0.35,1.8,10.08
49.702481,3.437242,34.85,-1.33,1.51,9.85
49.702481,3.437242,34.85,0.11,1.16,9.05
49.702253,3.43757,34.77,0.08,1.98,10.27
49.702253,3.43757,34.77,1.22,0.62,10.66
49.702025,3.4379,34.5,-0.25,0.67,10.04
49.702025,3.4379,34.5,-0.88,1.63,9.9
49.7018,3.438226,33.93,-0.19,1.07,10.57
49.7018,3.438226,33.93,-1.16,1.0,8.59
49.701579,3.438545,33.88,0.12,1.94,10.77
49.701579,3.438545,33.88,-1.05,1.2,7.56
49.701359,3.438868,33.84,-0.47,2.03,10.42
49.701359,3.438868,33.84,0.28,1.44,9.61
49.701139,3.439188,33.86,-1.64,1.24,9.38
49.70092,3.439507,33.87,-0.23,0.8,11.16
49.70092,3.439507,33.87,-0.67,1.05,9.36
49.700699,3.439832,33.87,-0.68,1.68,11.45
49.700699,3.439832,33.87,0.57,1.23,10.12
49.700477,3.44016,33.87,-0.57,1.01,9.27
49.700477,3.44016,33.87,-0.17,1.19,11.21
49.700257,3.440485,33.94,-0.32,0.79,9.76
49.700257,3.440485,33.94,-0.63,1.59,9.7
49.700037,3.440816,33.96,-0.5,0.8,9.45
49.700037,3.440816,33.96,-0.79,1.19,9.79
49.69982,3.441142,33.95,-1.3,1.37,8.84
49.69982,3.441142,33.95,-1.33,0.82,9.48
49.699604,3.441472,34.0,-1.96,1.47,8.1
49.699604,3.441472,34.0,-0.65,1.1,11.54
49.699391,3.441805,33.99,0.01,1.49,9.96
49.699391,3.441805,33.99,-1.18,1.44,8.34
49.699173,3.442144,34.0,0.38,1.47,11.32
49.699173,3.442144,34.0,-0.76,1.39,8.92
49.698958,3.442481,33.97,-0.26,1.95,12.0
49.698958,3.442481,33.97,-0.03,0.68,9.57
49.698746,3.442819,33.98,-1.18,1.79,9.16
49.698746,3.442819,33.98,-1.58,0.89,9.48
49.698535,3.443159,34.0,-0.13,0.53,10.39
49.698535,3.443159,34.0,-0.81,1.29,8.42
49.698324,3.443497,33.95,-0.26,0.2,10.39
49.698324,3.443497,33.95,-1.04,1.02,9.46
49.698116,3.443833,33.95,-1.07,1.35,9.28
49.698116,3.443833,33.95,0.39,0.61,11.39
49.697908,3.444184,34.02,-0.96,1.15,8.61
49.697908,3.444184,34.02,-1.83,1.88,10.65
49.697701,3.444534,34.01,-1.09,0.81,9.01
49.697701,3.444534,34.01,-0.87,1.61,9.11
49.697497,3.444898,34.06,-0.36,1.53,10.07
49.697497,3.444898,34.06,-0.77,0.89,10.86
49.697291,3.445255,34.13,-1.51,0.86,8.6
49.697291,3.445255,34.13,-1.16,2.12,10.68
49.697086,3.445607,34.17,0.05,0.61,9.28
49.697086,3.445607,34.17,-1.44,1.09,9.25
49.696879,3.445968,34.2,-0.91,1.94,8.79
49.696879,3.445968,34.2,-1.62,1.82,10.33
49.696681,3.446324,34.17,-1.54,0.75,8.01
49.69648,3.446682,34.28,-1.02,1.47,9.44
49.69648,3.446682,34.28,0.76,1.49,9.98
49.696286,3.447038,34.38,-0.29,0.23,9.11
49.696286,3.447038,34.38,-0.45,0.57,9.16
49.696091,3.447401,34.36,-0.75,2.88,10.84
49.696091,3.447401,34.36,-0.84,2.48,11.0
49.695896,3.447775,34.36,-0.57,1.17,8.8
49.695896,3.447775,34.36,-0.55,2.36,10.15
49.695701,3.44815,34.37,-0.65,1.69,8.59
49.695701,3.44815,34.37,-1.56,2.0,11.08
49.695511,3.448522,34.3,-1.24,0.84,7.11
49.695511,3.448522,34.3,-1.67,0.93,8.89
49.695324,3.448898,34.29,-1.05,2.42,10.88
49.695324,3.448898,34.29,-0.64,0.6,8.42
49.69514,3.449281,34.25,-1.82,0.2,10.27
49.69514,3.449281,34.25,-0.04,1.97,10.37
49.69496,3.449669,34.16,-0.89,0.11,9.92
49.69496,3.449669,34.16,0.06,1.05,8.5
49.694785,3.45006,34.14,-1.69,1.23,9.16
49.694785,3.45006,34.14,-0.47,0.98,9.27
49.694612,3.450452,34.11,-0.11,0.52,9.27
49.694612,3.450452,34.11,-0.14,2.0,10.41
49.694438,3.450841,34.11,-0.88,0.55,8.79
49.694438,3.450841,34.11,-0.27,0.25,8.86
49.694262,3.45123,34.01,-0.85,1.92,9.27
49.694262,3.45123,34.01,0.37,1.6,10.26
49.694094,3.451625,34.06,-1.47,0.17,8.42
49.694094,3.451625,34.06,-0.52,1.44,10.01
49.693926,3.452023,34.06,-1.01,0.34,10.14
49.693926,3.452023,34.06,-0.52,0.99,10.1
49.69376,3.452417,34.07,-0.25,1.68,9.08
49.69376,3.452417,34.07,-0.82,0.76,10.27
49.693595,3.452816,34.02,-1.5,1.35,9.98
49.693595,3.452816,34.02,-1.55,2.36,11.04
49.693432,3.453214,33.94,-0.27,1.14,9.4
49.693432,3.453214,33.94,-0.25,0.53,9.22
49.693276,3.453612,33.91,-1.41,0.65,9.71
49.693276,3.453612,33.91,0.69,0.89,9.94
49.693119,3.454013,33.82,0.1,2.12,8.85
49.693119,3.454013,33.82,0.47,1.02,9.6
49.692968,3.454419,33.67,-0.55,1.01,13.08
49.692968,3.454419,33.67,0.19,0.74,9.93
49.692823,3.454825,33.65,-1.11,1.82,9.11
49.692823,3.454825,33.65,-0.06,1.14,10.03
49.692676,3.455228,33.5,-1.01,1.07,10.76
49.692531,3.455633,33.37,-0.68,1.04,10.59
49.692531,3.455633,33.37,-1.08,1.43,8.81
49.69239,3.456044,33.26,-0.23,1.98,9.37
49.69239,3.456044,33.26,-1.14,0.56,11.24
49.692251,3.456452,33.21,-0.52,1.72,10.71
49.692251,3.456452,33.21,-0.69,0.73,9.89
49.692111,3.456861,33.17,-0.75,1.98,9.95
49.692111,3.456861,33.17,-1.13,1.06,10.25
49.691978,3.457269,33.05,-0.45,0.54,9.51
49.691978,3.457269,33.05,-0.53,2.06,9.83
49.691847,3.457678,33.03,-1.44,0.73,8.72
49.691847,3.457678,33.03,-0.75,0.28,9.35
49.691716,3.458089,32.92,-2.35,0.86,10.29
49.691716,3.458089,32.92,-1.96,1.59,8.03
49.691588,3.458498,32.74,-1.53,0.45,8.96
49.691588,3.458498,32.74,0.68,1.35,12.3
49.691462,3.458908,32.64,-1.84,1.2,8.97
49.691462,3.458908,32.64,-1.74,3.08,12.77
49.691338,3.459321,32.66,-0.85,0.83,8.39
49.691338,3.459321,32.66,-0.06,1.36,11.88
49.691213,3.459732,32.66,-0.81,1.51,8.43
49.691213,3.459732,32.66,-0.42,1.8,9.56
49.69109,3.460145,32.76,-0.21,1.49,9.8
49.69109,3.460145,32.76,-1.73,1.56,11.02
49.690967,3.460557,32.8,-0.67,1.7,8.96
49.690967,3.460557,32.8,-1.32,1.47,8.94
49.690847,3.460972,32.76,-1.43,1.22,11.37
49.690847,3.460972,32.76,-0.77,1.29,9.3
49.690729,3.461386,32.71,-0.63,2.15,10.51
49.690729,3.461386,32.71,-0.99,1.16,9.48
49.690611,3.461803,32.63,-0.53,1.31,11.42
49.690611,3.461803,32.63,-0.01,2.21,11.17
49.690496,3.462214,32.44,-0.75,0.53,10.16
49.690496,3.462214,32.44,-0.96,1.84,9.81
49.690384,3.462627,32.36,0.99,2.16,9.35
49.690384,3.462627,32.36,-0.08,1.7,7.27
49.690269,3.463038,32.11,-0.37,1.36,10.37
49.690269,3.463038,32.11,-0.28,0.62,8.59
49.690156,3.46345,32.19,0.06,1.9,9.9
49.690044,3.463859,32.14,-0.72,1.59,10.87
49.690044,3.463859,32.14,-0.31,2.37,10.08
49.689936,3.46427,32.13,-0.52,2.25,9.8
49.689936,3.46427,32.13,-1.02,1.96,11.68
49.689828,3.464682,32.12,-1.21,2.06,8.97
49.689828,3.464682,32.12,-0.43,1.83,10.12
49.689723,3.465094,32.1,-0.63,1.89,9.12
49.689723,3.465094,32.1,-0.91,1.69,8.87
49.689618,3.465506,31.99,-0.07,1.44,7.8
49.689618,3.465506,31.99,-0.55,2.14,7.65
49.689511,3.465916,32.09,0.26,2.21,8.58
49.689511,3.465916,32.09,-1.15,1.81,9.22
49.689399,3.466319,31.7,-0.91,1.73,7.97
49.689399,3.466319,31.7,-0.04,2.05,9.43
49.689287,3.46673,31.81,-0.44,1.71,9.84
49.689287,3.46673,31.81,-0.47,1.68,8.61
49.689181,3.467141,31.91,-1.56,1.07,7.81
49.689181,3.467141,31.91,0.51,1.44,8.93
49.689077,3.467552,31.96,-1.0,2.11,8.97
49.689077,3.467552,31.96,0.48,1.73,10.33
49.688973,3.467966,32.06,-0.61,0.99,11.01
49.688973,3.467966,32.06,0.0,1.26,9.42
49.688868,3.468382,32.16,-1.12,0.96,9.67
49.688868,3.468382,32.16,-0.11,1.91,10.84
49.688761,3.468801,32.37,-0.24,1.72,8.26
49.688761,3.468801,32.37,-0.32,1.37,8.38
49.688655,3.469217,32.51,0.48,1.46,9.39
49.688655,3.469217,32.51,-1.55,2.13,11.48
49.688547,3.469637,32.76,-0.97,1.91,8.47
49.688547,3.469637,32.76,-1.35,1.24,9.18
49.688444,3.470063,33.04,0.06,1.36,10.03
49.688444,3.470063,33.04,-1.31,1.39,8.49
49.688335,3.470484,33.14,-0.65,1.28,7.69
49.688335,3.470484,33.14,-0.82,2.08,11.41
49.68822,3.470911,33.33,0.45,1.5,9.75
49.68822,3.470911,33.33,-1.36,0.81,10.41
49.688109,3.471342,33.48,-0.76,1.3,9.21
49.688109,3.471342,33.48,-0.14,2.41,10.94
49.688001,3.471774,33.61,-1.62,1.06,7.98
49.687889,3.472211,33.67,-0.79,2.2,12.24
49.687889,3.472211,33.67,-0.67,1.3,10.11
49.687781,3.472644,33.68,-0.15,2.5,10.52
49.687781,3.472644,33.68,-0.11,1.04,10.04
49.687672,3.473079,33.69,-1.53,1.57,9.03
49.687672,3.473079,33.69,0.91,0.82,8.18
49.68757,3.473526,33.68,-1.12,1.42,8.24
49.68757,3.473526,33.68,-0.71,2.38,11.2
49.687465,3.473968,33.71,0.25,1.15,9.46
49.687465,3.473968,33.71,0.23,1.71,10.54
49.687358,3.474409,33.77,0.77,0.11,8.88
49.687358,3.474409,33.77,-0.41,2.59,11.36
49.687252,3.474847,33.84,-0.07,1.56,10.12
49.687252,3.474847,33.84,-1.24,1.31,9.29
49.687141,3.475289,34.04,-1.45,1.49,10.89
49.687141,3.475289,34.04,0.12,1.16,8.67
49.687032,3.475733,34.07,-1.55,0.9,9.73
49.687032,3.475733,34.07,-1.0,0.96,10.79
49.68693,3.476176,34.15,1.07,1.15,9.57
49.68693,3.476176,34.15,-0.13,1.43,9.65
49.686823,3.476619,34.18,0.5,1.2,12.2
49.686823,3.476619,34.18,0.48,1.09,11.71
49.686705,3.477058,34.27,0.71,1.04,8.82
49.686705,3.477058,34.27,-0.67,1.54,9.82
49.686584,3.477491,34.27,-1.52,1.4,10.11
49.686584,3.477491,34.27,-1.61,1.0,10.69
49.686467,3.477929,34.18,0.06,0.25,8.56
49.686467,3.477929,34.18,-1.45,1.7,12.84
49.686356,3.478367,34.12,-0.33,1.49,10.68
49.686356,3.478367,34.12,1.53,1.13,8.94
49.686242,3.478807,34.11,-1.08,0.76,8.83
49.686242,3.478807,34.11,-2.07,1.2,10.7
49.686127,3.479249,34.11,0.24,0.41,9.12
49.686127,3.479249,34.11,-0.73,1.22,8.7
49.686016,3.479689,34.1,-1.59,1.74,9.26
49.686016,3.479689,34.1,-0.95,0.57,8.77
49.685901,3.480128,34.04,-1.57,1.66,8.85
49.685901,3.480128,34.04,-0.23,1.18,9.94
49.685788,3.480567,33.94,-1.08,0.89,9.5
49.685788,3.480567,33.94,-1.13,1.21,9.95
49.685678,3.481005,33.91,-0.37,1.02,8.26
49.685571,3.481443,33.86,-0.5,1.51,8.62
49.685571,3.481443,33.86,1.0,0.93,9.05
49.685465,3.48188,33.81,-0.85,1.73,9.54
49.685465,3.48188,33.81,-1.25,1.68,9.41
49.685354,3.482316,33.71,-0.8,1.72,9.78
49.685354,3.482316,33.71,-1.16,1.8,10.01
49.685245,3.482752,33.64,0.68,0.56,8.38
49.685245,3.482752,33.64,-1.36,1.89,12.97
49.685134,3.483187,33.59,-0.63,0.45,8.22
49.685134,3.483187,33.59,-0.63,2.09,9.29
49.685026,3.483622,33.5,-0.64,0.93,10.56
49.685026,3.483622,33.5,-1.24,1.57,11.22
49.684914,3.484053,33.38,-0.46,0.58,7.78
49.684914,3.484053,33.38,-1.33,1.87,10.37
49.684809,3.484481,33.28,-0.62,1.33,8.63
49.684809,3.484481,33.28,0.16,0.68,11.19
49.684702,3.484912,33.19,-0.26,1.04,8.09
49.684702,3.484912,33.19,-1.36,1.03,7.76
49.684594,3.485338,33.05,-0.66,0.56,11.55
49.684594,3.485338,33.05,-0.24,1.25,9.28
49.684483,3.485765,32.94,-0.05,0.95,9.01
49.684483,3.485765,32.94,0.27,-0.07,10.92
49.684372,3.486191,32.85,-0.38,1.92,9.17
49.684372,3.486191,32.85,-1.61,1.48,9.81
49.684264,3.486614,32.72,-0.12,1.02,8.6
49.684264,3.486614,32.72,0.05,0.42,9.53
49.684158,3.487036,32.69,-0.35,1.76,9.65
49.684158,3.487036,32.69,-1.06,1.37,9.05
49.684047,3.48746,32.92,-0.17,0.96,11.19
49.684047,3.48746,32.92,0.55,2.11,9.31
49.683938,3.487885,33.17,-1.04,1.42,8.64
49.683938,3.487885,33.17,-1.25,1.65,11.35
49.683828,3.488316,33.5,0.46,1.46,10.69
49.683828,3.488316,33.5,0.4,1.02,8.33
49.683716,3.488749,33.82,0.27,0.76,9.99
49.683716,3.488749,33.82,-1.5,0.76,8.63
49.683604,3.489183,34.05,-0.43,1.5,9.43
49.683604,3.489183,34.05,-0.26,0.67,8.34
49.683491,3.48962,34.21,-0.68,0.1,8.36
49.683491,3.48962,34.21,-1.58,0.48,9.27
49.683375,3.490059,34.31,0.65,2.29,12.02
49.683375,3.490059,34.31,0.1,1.06,9.97
49.683259,3.490497,34.36,-0.12,0.58,9.6
49.683143,3.490935,34.26,-0.83,1.93,9.58
49.683143,3.490935,34.26,0.85,2.2,12.04
49.683022,3.491373,34.11,-0.84,0.62,11.04
49.683022,3.491373,34.11,0.49,2.31,9.88
49.682904,3.491804,33.94,-0.98,1.83,11.16
49.682904,3.491804,33.94,0.17,1.84,10.36
49.682785,3.492237,33.58,-0.9,1.82,10.29
49.682785,3.492237,33.58,-0.02,1.14,8.29
49.682667,3.492664,33.34,-0.72,1.98,10.29
49.682667,3.492664,33.34,-0.41,1.12,10.01
49.682547,3.493087,33.08,-1.03,1.33,10.34
49.682547,3.493087,33.08,-0.76,2.0,9.62
49.682429,3.493504,32.8,0.11,1.8,8.56
49.682429,3.493504,32.8,-0.37,0.95,10.01
49.682309,3.493916,32.57,-0.76,1.25,11.25
49.682309,3.493916,32.57,-1.39,1.87,8.8
49.682187,3.494325,32.39,-1.44,1.87,9.23
49.682187,3.494325,32.39,-0.14,1.96,9.23
49.682066,3.494735,32.26,0.01,1.2,9.42
49.682066,3.494735,32.26,0.86,2.38,8.43
49.681945,3.495145,32.17,-0.97,0.75,9.78
49.681945,3.495145,32.17,-0.29,1.53,10.44
49.681826,3.49555,32.14,-0.63,2.04,9.69
49.681826,3.49555,32.14,-1.03,1.71,10.5
49.681707,3.495951,32.1,1.04,2.68,12.35
49.681707,3.495951,32.1,-0.59,1.84,10.45
49.681579,3.49635,32.01,-0.64,1.45,9.49
49.681579,3.49635,32.01,-0.14,2.44,10.36
49.681447,3.496744,31.95,-0.75,1.54,8.11
49.681447,3.496744,31.95,0.53,1.84,8.78
49.681312,3.49714,31.84,-1.37,2.29,7.33
49.681312,3.49714,31.84,0.01,1.78,8.58
49.681177,3.497532,31.8,-1.14,1.39,8.43
49.681177,3.497532,31.8,-1.15,1.5,9.78
49.681037,3.49792,31.83,-2.0,1.5,8.08
49.680899,3.498302,31.77,-1.2,1.88,8.54
49.680899,3.498302,31.77,-0.4,2.41,11.02
49.68076,3.498688,31.88,-0.04,1.26,9.51
49.68076,3.498688,31.88,-0.39,1.29,9.6
49.680621,3.499071,31.93,-0.23,2.12,9.49
49.680621,3.499071,31.93,-1.46,2.26,7.58
49.680477,3.499458,32.02,-0.7,2.35,8.02
49.680477,3.499458,32.02,-0.21,2.11,9.28
49.680327,3.499841,32.1,-0.44,1.95,9.83
49.680327,3.499841,32.1,1.11,1.68,9.99
49.680173,3.500226,32.26,0.31,1.37,9.64
49.680173,3.500226,32.26,-1.41,0.83,10.04
49.680023,3.500608,32.39,-0.18,2.14,10.33
49.680023,3.500608,32.39,0.37,1.41,9.81
49.67987,3.500993,32.6,0.4,1.87,9.56
49.67987,3.500993,32.6,0.27,1.0,10.59
49.67972,3.501371,32.77,0.25,1.52,10.1
49.67972,3.501371,32.77,-1.15,1.84,8.67
49.679565,3.501758,32.98,1.34,1.26,7.75
49.679565,3.501758,32.98,-0.71,2.21,10.98
49.679403,3.502137,33.13,-0.39,1.39,9.1
49.679403,3.502137,33.13,-0.37,0.78,11.5
49.67924,3.50252,33.28,-0.08,1.41,8.59
49.67924,3.50252,33.28,-0.36,1.4,11.26
49.679075,3.502905,33.44,0.11,2.6,11.45
49.679075,3.502905,33.44,-0.05,1.12,9.27
49.67891,3.503284,33.63,-0.63,1.6,10.2
49.67891,3.503284,33.63,-0.45,1.28,11.05
49.67874,3.50367,33.71,-0.7,1.58,8.3
49.67874,3.50367,33.71,-0.39,2.35,12.12
49.678568,3.504054,33.8,-0.14,1.02,9.04
49.678568,3.504054,33.8,0.54,1.87,8.51
49.678392,3.504439,33.99,-0.35,2.45,11.2
49.678392,3.504439,33.99,0.89,0.2,11.86
49.678211,3.504822,34.15,-0.75,1.58,10.22
49.678211,3.504822,34.15,-0.29,-0.43,9.27
49.678028,3.505201,33.67,-2.38,1.18,10.71
49.678028,3.505201,33.67,0.7,0.05,8.56
49.677848,3.505573,33.39,-0.46,1.11,8.08
49.677848,3.505573,33.39,0.55,0.38,7.89
49.677668,3.505948,33.43,-0.56,2.34,10.3
49.677668,3.505948,33.43,0.11,0.72,9.26
49.677486,3.506323,33.55,-0.34,1.35,10.73
49.677301,3.50669,33.65,0.07,-0.06,8.58
49.677301,3.50669,33.65,0.19,2.24,7.99
49.677114,3.507057,33.74,-0.43,-0.34,8.56
49.677114,3.507057,33.74,0.63,1.86,10.47
49.676922,3.507419,33.79,-0.81,1.32,10.28
49.676922,3.507419,33.79,-0.79,1.45,9.12
49.67673,3.50778,33.84,-1.01,2.1,11.38
49.67673,3.50778,33.84,-0.41,0.45,8.94
49.676537,3.508138,33.94,-0.87,2.49,9.39
49.676537,3.508138,33.94,-0.26,2.81,13.21
49.676346,3.508496,33.99,-0.04,1.64,10.68
49.676346,3.508496,33.99,-0.54,3.17,11.0
49.676153,3.50886,34.01,1.57,1.57,11.35
49.676153,3.50886,34.01,-0.55,0.79,8.24
49.675956,3.509225,34.09,-0.93,1.8,9.81
49.675956,3.509225,34.09,0.45,1.53,10.6
49.675756,3.509587,34.02,-0.07,-0.13,9.02
49.675756,3.509587,34.02,0.53,1.57,9.61
49.675552,3.509944,33.79,0.89,-0.2,10.2
49.675552,3.509944,33.79,-0.23,0.94,11.5
49.675352,3.51028,33.4,0.66,1.0,9.09
49.675352,3.51028,33.4,-1.5,1.77,10.4
49.675151,3.510619,33.16,-1.94,1.05,11.25
49.675151,3.510619,33.16,-0.88,0.05,10.27
49.674953,3.510956,33.11,-1.07,1.82,10.65
49.674953,3.510956,33.11,-0.27,0.47,8.23
49.674754,3.511296,33.09,-0.36,0.11,9.38
49.674754,3.511296,33.09,0.34,1.53,10.47
49.674553,3.511639,33.07,0.32,0.66,10.95
49.674553,3.511639,33.07,-0.42,1.07,10.43
49.674351,3.511975,33.18,-0.66,0.45,8.45
49.674351,3.511975,33.18,-0.28,1.37,10.62
49.674149,3.512312,33.29,-0.37,0.71,9.09
49.674149,3.512312,33.29,0.04,0.61,9.18
49.673946,3.512649,33.31,-1.05,1.23,9.23
49.673946,3.512649,33.31,-1.21,0.18,10.4
49.673742,3.512988,33.3,0.49,1.61,12.08
49.673742,3.512988,33.3,0.46,0.62,9.28
49.673536,3.513323,33.34,-0.65,1.83,10.33
49.673536,3.513323,33.34,-0.23,1.8,10.24
49.67333,3.513667,33.31,-1.17,1.38,10.34
49.67333,3.513667,33.31,-0.67,0.61,8.05
49.673125,3.514002,33.39,0.87,0.74,9.81
49.672919,3.514338,33.47,-0.44,1.53,9.89
49.672919,3.514338,33.47,-1.26,0.61,10.27
49.672714,3.514678,33.51,-0.03,2.41,8.63
49.672714,3.514678,33.51,-0.68,0.48,11.05
49.67251,3.515018,33.61,-1.07,1.17,8.77
49.67251,3.515018,33.61,0.82,0.43,9.67
49.672304,3.515357,33.65,-1.25,1.54,10.09
49.672304,3.515357,33.65,-1.93,2.37,10.13
49.672099,3.515693,33.7,-0.93,1.13,9.17
49.672099,3.515693,33.7,-0.2,2.56,10.31
49.67189,3.516035,33.86,-1.18,0.68,11.32
49.67189,3.516035,33.86,-0.07,2.94,11.08
49.671685,3.516387,33.95,-1.12,1.28,10.16
49.671685,3.516387,33.95,0.18,0.93,10.89
49.671481,3.516739,34.12,-1.07,1.08,9.38
49.671481,3.516739,34.12,-0.74,2.49,10.97
49.671277,3.517096,34.32,-1.74,1.16,10.86
49.671277,3.517096,34.32,0.38,1.34,8.26
49.671071,3.517451,34.38,0.18,1.59,10.5
49.671071,3.517451,34.38,-0.3,2.09,10.47
49.670867,3.517807,34.37,-2.27,1.93,10.67
49.670867,3.517807,34.37,-1.58,1.33,8.21
49.670663,3.518165,34.39,-1.51,0.86,9.66
49.670663,3.518165,34.39,0.28,1.87,11.05
49.670462,3.518519,34.38,-0.53,2.2,8.31
49.670462,3.518519,34.38,1.04,1.36,9.45
49.670263,3.518882,34.41,-0.35,0.99,8.41
49.670263,3.518882,34.41,-1.72,1.62,9.23
49.670064,3.519242,34.43,-0.53,1.23,11.26
49.670064,3.519242,34.43,-1.12,1.85,10.6
49.669861,3.519605,34.46,-1.17,0.79,9.86
49.669861,3.519605,34.46,0.0,0.69,9.43
49.669665,3.519973,34.51,-0.29,2.25,10.39
49.669665,3.519973,34.51,-0.58,2.43,10.74
49.669473,3.520343,34.44,-1.06,2.35,9.29
49.669473,3.520343,34.44,0.45,1.61,10.03
49.669282,3.520716,34.43,-1.17,1.16,9.61
49.669282,3.520716,34.43,-1.41,1.37,11.16
49.669091,3.521091,34.49,-1.02,1.06,10.5
49.6689,3.521469,34.5,-0.87,1.08,9.62
49.6689,3.521469,34.5,0.14,1.07,10.23
49.668707,3.521851,34.49,-0.3,1.79,9.52
49.668707,3.521851,34.49,-0.96,2.17,8.75
49.668522,3.522233,34.54,-1.05,2.5,9.77
49.668522,3.522233,34.54,-0.58,1.09,9.9
49.668333,3.522612,34.65,0.68,0.92,9.74
49.668333,3.522612,34.65,-0.54,0.96,10.35
49.668144,3.522995,34.7,-0.79,2.15,9.64
49.668144,3.522995,34.7,-0.79,2.47,9.18
49.667954,3.523383,34.79,-0.39,1.72,9.9
49.667954,3.523383,34.79,-0.72,1.43,10.19
49.667769,3.523774,34.82,-0.45,0.73,9.62
49.667769,3.523774,34.82,-0.04,1.13,11.26
49.667588,3.524164,34.54,0.4,0.98,9.7
49.667588,3.524164,34.54,-1.15,1.07,10.14
49.66741,3.524554,34.44,-1.74,0.41,9.32
49.66741,3.524554,34.44,-0.66,1.28,9.11
49.667232,3.524942,34.31,-0.86,0.29,10.08
49.667232,3.524942,34.31,-0.6,1.62,9.8
49.667061,3.525336,34.16,-0.81,1.52,10.22
49.667061,3.525336,34.16,-0.24,0.81,9.98
49.66689,3.525729,34.0,-0.63,0.84,7.09
49.66689,3.525729,34.0,-0.2,0.37,11.09
49.666723,3.526117,33.86,-0.34,0.23,9.67
49.666723,3.526117,33.86,-0.86,2.03,11.89
49.666554,3.526508,33.73,-1.37,1.21,9.9
49.666554,3.526508,33.73,-0.07,1.67,9.91
49.666391,3.526901,33.76,-0.25,1.43,10.07
49.666391,3.526901,33.76,-0.44,1.7,7.81
49.66623,3.5273,33.78,-0.33,1.65,9.86
49.66623,3.5273,33.78,0.48,1.26,10.24
49.666066,3.527693,33.82,-0.51,1.35,10.75
49.666066,3.527693,33.82,-0.87,0.59,9.06
49.665899,3.528085,33.73,-1.54,0.96,7.71
49.665899,3.528085,33.73,-0.68,0.44,9.42
49.665738,3.528477,33.67,-0.81,1.74,8.67
49.665738,3.528477,33.67,-0.46,1.82,11.0
49.665578,3.528877,33.76,-0.9,1.34,9.48
49.66542,3.529274,33.89,-1.2,1.78,8.65
49.66542,3.529274,33.89,-1.08,1.67,11.25
49.665263,3.529673,33.89,-0.24,1.14,8.87
49.665263,3.529673,33.89,-1.05,0.7,11.34
49.665109,3.530077,33.84,-0.09,0.99,10.17
49.665109,3.530077,33.84,-1.51,0.46,8.39
49.664952,3.530484,33.7,0.3,1.05,11.39
49.664952,3.530484,33.7,-1.94,1.52,8.74
49.6648,3.53089,33.76,-0.75,2.26,11.22
