Location-lat,Location-long,Speed,Accelerometer-X,Accelerometer-Y,Accelerometer-Z
50.145825,3.124197,33.13,-0.01,1.14,9.2
50.145825,3.124197,33.13,0.82,1.26,9.84
50.145632,3.124555,33.17,-0.16,1.54,11.05
50.145632,3.124555,33.17,-0.55,1.52,8.71
50.145441,3.124906,33.07,-0.16,1.44,9.13
50.145441,3.124906,33.07,-1.34,1.89,11.81
50.145246,3.12526,33.04,-0.45,2.16,9.74
50.145246,3.12526,33.04,-2.22,1.47,8.37
50.145049,3.125608,33.08,-2.22,1.92,9.05
50.145049,3.125608,33.08,-0.58,1.77,8.63
50.144848,3.125962,33.12,-0.05,1.79,9.93
50.144848,3.125962,33.12,-0.7,2.9,10.76
50.144651,3.126313,33.12,-0.11,1.26,8.47
50.144651,3.126313,33.12,0.21,1.32,10.33
50.144461,3.126665,33.22,-0.7,1.64,9.65
50.144461,3.126665,33.22,-0.79,1.78,9.55
50.144275,3.127029,33.14,-1.21,2.01,10.09
50.144275,3.127029,33.14,-0.69,1.7,8.87
50.144086,3.12739,33.25,-1.02,1.03,12.03
50.144086,3.12739,33.25,-0.8,2.16,8.89
50.143897,3.127752,33.18,0.74,1.24,9.8
50.143897,3.127752,33.18,-1.0,2.31,11.16
50.143705,3.128114,33.22,0.5,0.81,8.48
50.143705,3.128114,33.22,-0.43,1.65,11.32
50.143519,3.128468,33.23,0.22,1.49,9.72
50.143519,3.128468,33.23,0.05,2.4,10.9
50.143326,3.128819,33.24,0.29,0.65,10.0
50.143326,3.128819,33.24,0.31,1.65,10.13
50.143134,3.12917,33.24,0.17,1.58,9.62
50.143134,3.12917,33.24,0.29,1.66,10.28
50.142944,3.129525,33.17,1.03,1.63,11.14
50.142944,3.129525,33.17,1.06,1.08,9.52
50.142753,3.129883,33.25,0.31,1.33,10.02
50.142753,3.129883,33.25,-0.59,2.16,9.56
50.14256,3.130245,33.16,-0.23,1.57,8.39
50.14256,3.130245,33.16,-0.34,2.59,9.67
50.142367,3.130602,33.02,-1.44,1.81,9.55
50.142367,3.130602,33.02,-1.66,2.36,9.84
50.14217,3.130958,32.98,-1.5,1.94,9.79
50.141973,3.131305,32.87,0.0,1.91,10.79
50.141973,3.131305,32.87,-0.78,1.49,8.52
50.14178,3.131656,32.75,0.2,1.37,11.66
50.14178,3.131656,32.75,-1.01,1.77,10.92
50.141596,3.131997,32.62,0.01,1.72,7.86
50.141596,3.131997,32.62,-0.54,1.16,8.08
50.141406,3.132349,32.47,0.4,1.11,10.73
50.141406,3.132349,32.47,-0.36,0.79,11.0
50.141219,3.132695,32.37,-0.88,2.14,9.84
50.141219,3.132695,32.37,0.08,0.67,9.44
50.141029,3.13305,32.21,0.24,1.36,9.28
50.141029,3.13305,32.21,-0.61,1.44,9.61
50.14084,3.13339,32.2,-1.26,0.62,8.48
50.14084,3.13339,32.2,0.01,1.75,9.23
50.140649,3.133724,32.09,0.47,0.94,10.18
50.140649,3.133724,32.09,0.88,1.56,10.21
50.140456,3.134066,31.87,0.26,1.48,10.39
50.140456,3.134066,31.87,1.02,0.98,9.57
50.140267,3.134398,31.85,1.51,0.96,10.93
50.140267,3.134398,31.85,0.86,1.4,9.22
50.140075,3.134727,31.73,-0.14,1.8,10.69
50.140075,3.134727,31.73,-0.56,1.06,9.95
50.139878,3.135052,31.49,1.51,1.1,8.88
50.139878,3.135052,31.49,-1.13,1.65,8.08
50.139686,3.135378,31.61,0.33,2.43,10.66
50.139686,3.135378,31.61,-0.6,1.81,10.13
50.139489,3.135703,31.72,-1.08,1.4,9.94
50.139489,3.135703,31.72,-0.42,1.09,8.87
50.139294,3.136023,31.65,-0.91,1.01,8.12
50.139294,3.136023,31.65,-0.33,1.12,9.45
50.1391,3.136344,31.75,0.68,2.49,9.28
50.1391,3.136344,31.75,-0.2,1.9,9.48
50.138902,3.136662,31.82,1.4,1.21,8.26
50.138902,3.136662,31.82,-0.26,2.47,10.3
50.138701,3.136981,32.01,0.55,1.19,9.15
50.138701,3.136981,32.01,0.75,1.31,9.68
50.138497,3.137298,32.05,0.45,1.22,9.82
50.138497,3.137298,32.05,-0.44,1.56,8.59
50.138289,3.137623,32.06,-0.18,1.93,9.79
50.138079,3.137948,32.24,-1.15,1.18,8.04
50.138079,3.137948,32.24,0.54,0.96,9.78
50.137873,3.138259,32.29,-0.45,2.04,11.24
50.137873,3.138259,32.29,-1.06,2.09,10.83
50.137667,3.138573,32.33,-0.02,2.88,10.86
50.137667,3.138573,32.33,-0.22,1.73,9.41
50.137458,3.138888,32.39,0.95,0.75,8.71
50.137458,3.138888,32.39,0.09,1.46,9.56
50.137248,3.139201,32.42,0.22,2.75,10.1
50.137248,3.139201,32.42,0.05,2.11,11.3
50.137035,3.139513,32.54,-0.34,2.28,10.6
50.137035,3.139513,32.54,-0.3,1.37,8.44
50.136818,3.139821,32.67,-0.45,1.57,10.95
50.136818,3.139821,32.67,-0.22,3.5,12.65
50.136602,3.140134,32.71,-0.23,2.14,8.37
50.136602,3.140134,32.71,-0.57,2.01,9.95
50.136389,3.14044,32.94,0.55,1.72,10.4
50.136389,3.14044,32.94,-0.09,2.13,10.16
50.13617,3.140745,33.01,0.49,2.03,9.28
50.13617,3.140745,33.01,0.38,1.54,9.65
50.135949,3.141048,33.0,0.51,1.51,10.04
50.135949,3.141048,33.0,0.34,1.26,11.63
50.135726,3.141345,33.1,-1.69,2.29,10.19
50.135726,3.141345,33.1,-0.61,1.28,8.93
50.135498,3.141642,33.2,-1.03,1.38,9.41
50.135498,3.141642,33.2,-1.23,1.14,8.13
50.135271,3.141937,33.36,1.18,1.45,11.14
50.135271,3.141937,33.36,0.06,1.7,8.6
50.135046,3.142238,33.37,0.66,1.36,12.19
50.135046,3.142238,33.37,0.44,3.27,10.19
50.134818,3.142539,33.45,0.24,1.2,11.28
50.134818,3.142539,33.45,-0.25,0.82,8.74
50.134585,3.142843,33.57,-1.89,1.17,10.89
50.134585,3.142843,33.57,0.45,0.92,10.12
50.134353,3.143139,33.51,-0.11,0.52,11.75
50.134353,3.143139,33.51,-0.18,0.7,9.02
50.13412,3.143426,33.47,0.97,0.86,11.03
50.13412,3.143426,33.47,0.62,0.83,9.07
50.133887,3.14371,33.41,0.28,0.48,8.55
50.133887,3.14371,33.41,0.27,1.59,9.82
50.133647,3.143997,33.4,0.55,1.64,9.89
50.133406,3.144277,33.37,0.35,1.51,10.41
50.133406,3.144277,33.37,-2.03,1.25,7.99
50.133163,3.14456,33.34,-1.58,1.49,10.59
50.133163,3.14456,33.34,-0.78,2.04,8.34
50.132924,3.144833,33.27,2.04,0.43,10.0
50.132924,3.144833,33.27,-0.06,2.35,9.0
50.132685,3.14511,33.12,0.75,1.55,8.89
50.132685,3.14511,33.12,0.66,1.67,12.37
50.132442,3.145386,33.08,-0.31,1.25,7.88
50.132442,3.145386,33.08,-0.59,1.16,10.92
50.132198,3.145662,33.13,-0.1,1.31,10.97
50.132198,3.145662,33.13,0.17,1.06,9.79
50.131963,3.145929,33.17,-0.24,1.74,11.2
50.131963,3.145929,33.17,-1.45,2.49,10.19
50.131723,3.146192,33.2,1.06,1.01,9.44
50.131723,3.146192,33.2,-1.35,2.34,9.99
50.131478,3.146462,33.23,0.32,1.09,9.17
50.131478,3.146462,33.23,1.35,0.87,7.75
50.131233,3.146728,33.19,-0.03,0.96,8.53
50.131233,3.146728,33.19,-0.25,0.88,8.98
50.130981,3.146991,33.2,-1.19,1.27,13.08
50.130981,3.146991,33.2,0.07,1.29,9.29
50.130733,3.147246,33.18,0.24,1.04,8.87
50.130733,3.147246,33.18,-0.09,2.83,9.63
50.130486,3.147499,33.23,-0.23,1.36,7.71
50.130486,3.147499,33.23,-0.08,2.06,12.05
50.130232,3.147749,33.32,0.5,0.78,9.65
50.130232,3.147749,33.32,-1.7,1.75,11.48
50.129979,3.148002,33.39,-1.24,2.38,8.77
50.129979,3.148002,33.39,1.79,1.11,12.12
50.129721,3.14825,33.48,-0.49,1.68,8.64
50.129721,3.14825,33.48,1.59,0.76,8.84
50.129467,3.148498,33.55,0.09,1.71,10.72
50.129467,3.148498,33.55,-1.42,1.26,10.06
50.129207,3.148746,33.48,-1.34,0.65,7.82
50.129207,3.148746,33.48,1.25,0.5,11.09
50.128945,3.148991,33.42,0.41,1.24,9.63
50.128945,3.148991,33.42,0.26,0.91,11.08
50.128689,3.149229,33.35,-0.45,2.59,9.06
50.128689,3.149229,33.35,-1.27,1.04,8.45
50.12843,3.149461,33.26,0.83,1.25,12.22
50.12843,3.149461,33.26,-0.95,1.21,9.5
50.128163,3.149685,33.11,1.82,1.15,9.84
50.127898,3.149911,32.95,-0.41,2.78,9.7
50.127898,3.149911,32.95,-0.11,1.24,9.73
50.127642,3.150143,32.76,0.84,0.41,10.3
50.127642,3.150143,32.76,-1.21,2.39,9.13
50.127387,3.150362,32.58,-0.96,2.21,10.66
50.127387,3.150362,32.58,-0.45,1.18,8.75
50.127128,3.150571,32.38,0.96,1.55,10.39
50.127128,3.150571,32.38,-1.09,1.63,9.8
50.126871,3.150777,32.29,0.64,1.13,11.4
50.126871,3.150777,32.29,0.14,0.62,9.91
50.126613,3.15098,32.26,-0.84,1.61,11.68
50.126613,3.15098,32.26,-0.95,1.87,9.98
50.126356,3.151189,32.17,-0.74,1.94,9.16
50.126356,3.151189,32.17,-0.28,1.54,9.34
50.126099,3.151393,32.1,0.54,1.36,9.29
50.126099,3.151393,32.1,-1.06,1.2,8.71
50.125841,3.151595,32.0,0.47,1.85,9.51
50.125841,3.151595,32.0,0.34,1.6,8.84
50.125583,3.15179,31.96,-0.97,1.13,8.91
50.125583,3.15179,31.96,0.5,0.99,10.24
50.125327,3.15199,32.0,-0.32,1.09,8.3
50.125327,3.15199,32.0,1.08,1.09,9.59
50.125072,3.152187,32.01,1.57,1.11,10.49
50.125072,3.152187,32.01,-1.48,0.88,11.93
50.124809,3.15238,32.04,1.06,1.35,11.12
50.124809,3.15238,32.04,0.1,1.88,10.21
50.124542,3.152579,32.1,0.69,1.63,12.06
50.124542,3.152579,32.1,-2.12,2.74,9.17
50.124281,3.152759,32.2,-0.56,1.34,9.34
50.124281,3.152759,32.2,-0.8,1.17,9.04
50.124015,3.152934,32.36,-0.1,1.5,9.18
50.124015,3.152934,32.36,0.46,1.2,10.0
50.123755,3.153114,32.47,-1.06,1.86,11.02
50.123755,3.153114,32.47,-1.4,1.72,10.69
50.123488,3.153295,32.54,0.05,1.87,10.14
50.123488,3.153295,32.54,-1.32,1.13,9.29
50.123223,3.153489,32.67,-0.89,1.08,9.92
50.123223,3.153489,32.67,-1.12,1.66,11.51
50.122954,3.153681,32.86,-0.58,0.97,8.78
50.122954,3.153681,32.86,-0.23,0.88,7.94
50.122686,3.153866,33.06,-1.72,1.35,9.25
50.12241,3.154046,33.17,-0.67,0.79,8.31
50.12241,3.154046,33.17,0.88,0.87,9.48
50.12214,3.154233,33.33,0.24,0.87,9.47
50.12214,3.154233,33.33,-1.19,0.24,7.49
50.121868,3.154415,33.34,-0.3,1.34,10.54
50.121868,3.154415,33.34,-1.24,0.76,10.2
50.121594,3.154591,32.86,-0.41,0.49,10.98
50.121594,3.154591,32.86,-0.19,1.57,11.75
50.121322,3.154769,32.68,-0.05,1.24,9.4
50.121322,3.154769,32.68,0.91,0.82,9.91
50.121058,3.154947,32.79,0.86,1.21,8.99
50.121058,3.154947,32.79,-0.78,1.94,9.41
50.120787,3.155123,33.1,0.09,1.14,8.23
50.120787,3.155123,33.1,-1.0,1.01,11.2
50.120508,3.155295,33.39,-1.41,1.24,7.41
50.120508,3.155295,33.39,1.03,0.91,10.42
50.120228,3.155472,33.76,-0.26,1.22,8.51
50.120228,3.155472,33.76,-1.08,2.35,8.78
50.119943,3.155662,34.05,-0.52,0.77,9.27
50.119943,3.155662,34.05,-1.46,1.94,9.54
50.119659,3.155849,34.32,-1.67,1.59,9.96
50.119659,3.155849,34.32,-1.05,0.46,8.97
50.119376,3.156035,34.04,0.37,0.97,10.54
50.119376,3.156035,34.04,-0.8,1.75,9.02
50.119095,3.156212,33.76,0.27,-0.22,10.96
50.119095,3.156212,33.76,-0.78,0.88,9.93
50.118809,3.156392,33.54,1.01,0.19,9.9
50.118809,3.156392,33.54,-1.93,0.37,10.54
50.118533,3.156564,32.92,-1.36,0.21,10.45
50.118533,3.156564,32.92,-1.0,-0.04,10.71
50.118262,3.156735,32.45,-0.8,-0.11,11.1
50.118262,3.156735,32.45,0.39,0.8,11.46
50.117993,3.15691,32.08,-0.34,1.52,9.94
50.117993,3.15691,32.08,-1.39,1.09,9.62
50.117724,3.157082,31.97,-0.27,1.68,9.34
50.117724,3.157082,31.97,-0.81,0.94,8.95
50.117458,3.157253,32.13,-0.3,2.15,10.01
50.117458,3.157253,32.13,0.44,1.82,9.82
50.117186,3.157426,32.06,-0.76,2.3,9.49
50.117186,3.157426,32.06,-0.6,0.52,10.62
50.116914,3.157596,32.3,-0.13,0.86,10.15
50.116641,3.157765,32.62,0.17,0.88,9.78
50.116641,3.157765,32.62,-1.88,1.58,10.98
50.116367,3.157935,32.88,0.71,0.12,10.72
50.116367,3.157935,32.88,-0.37,0.43,10.65
50.11609,3.158109,33.17,-1.45,1.86,10.26
50.11609,3.158109,33.17,-0.82,1.36,8.7
50.115811,3.158282,33.48,1.05,0.87,12.33
50.115811,3.158282,33.48,-1.34,0.74,9.01
50.115533,3.158455,33.69,-0.64,2.12,10.86
50.115533,3.158455,33.69,0.59,0.82,11.74
50.115252,3.158631,33.58,0.02,0.65,11.16
50.115252,3.158631,33.58,-0.5,2.07,9.51
50.11498,3.158805,32.95,0.11,1.13,11.75
50.11498,3.158805,32.95,-1.81,2.06,11.68
50.114705,3.158975,32.99,-0.15,0.9,8.42
50.114705,3.158975,32.99,-0.62,1.04,10.75
50.114428,3.159149,32.95,-1.96,1.99,9.98
50.114428,3.159149,32.95,0.34,0.73,10.27
50.114151,3.159328,32.93,1.19,0.64,12.44
50.114151,3.159328,32.93,-1.07,1.54,11.34
50.113878,3.159503,32.89,-1.42,1.54,9.14
50.113878,3.159503,32.89,0.43,1.78,12.31
50.113605,3.159678,33.0,-0.36,1.63,7.93
50.113605,3.159678,33.0,-0.22,1.07,9.96
50.113331,3.159847,33.09,-0.01,1.75,10.89
50.113331,3.159847,33.09,-0.58,1.41,10.15
50.113052,3.16002,33.22,-0.91,1.53,8.28
50.113052,3.16002,33.22,-1.1,2.04,9.45
50.112772,3.160198,33.19,-1.14,0.95,9.36
50.112772,3.160198,33.19,-1.0,2.76,9.91
50.112493,3.160382,33.23,1.2,1.4,9.32
50.112493,3.160382,33.23,0.76,1.67,10.26
50.112216,3.160552,33.14,-0.13,1.33,8.01
50.112216,3.160552,33.14,-1.43,1.03,8.1
50.111935,3.160725,33.31,-0.81,2.4,8.67
50.111935,3.160725,33.31,-0.39,0.29,8.78
50.111659,3.160897,33.32,-0.6,0.68,11.27
50.111659,3.160897,33.32,-0.64,0.95,10.39
50.11138,3.161068,33.28,-1.25,1.1,9.3
50.11138,3.161068,33.28,-2.33,2.45,9.13
50.111106,3.161235,33.2,-1.48,0.66,6.15
50.110829,3.161403,33.15,2.04,1.59,7.42
50.110829,3.161403,33.15,-0.15,1.8,11.65
50.110551,3.161579,32.97,1.86,0.07,9.9
50.110551,3.161579,32.97,-0.28,1.29,8.21
50.110271,3.161751,32.99,-0.24,1.85,9.99
50.110271,3.161751,32.99,0.77,0.91,10.38
50.109995,3.161915,32.93,-0.2,1.23,10.75
50.109995,3.161915,32.93,0.85,2.15,8.4
50.109718,3.16208,32.75,-1.05,1.98,8.48
50.109718,3.16208,32.75,-1.43,1.1,10.17
50.109446,3.162245,32.64,-1.47,1.52,10.98
50.109446,3.162245,32.64,1.28,1.64,9.98
50.109174,3.162412,32.46,-0.57,2.12,8.73
50.109174,3.162412,32.46,-1.6,1.24,9.54
50.108904,3.162572,32.29,0.09,1.57,11.72
50.108904,3.162572,32.29,0.86,1.95,10.76
50.108634,3.162729,32.04,0.34,2.03,11.77
50.108634,3.162729,32.04,-1.37,1.35,11.01
50.108366,3.162887,31.98,-2.48,1.33,9.75
50.108366,3.162887,31.98,-1.81,1.61,8.63
50.108094,3.163047,32.0,-0.7,2.22,9.51
50.108094,3.163047,32.0,-0.37,1.7,9.82
50.107823,3.163211,32.0,0.14,2.17,9.29
50.107823,3.163211,32.0,-0.36,2.29,10.22
50.107556,3.163371,31.99,0.33,1.73,10.71
50.107556,3.163371,31.99,0.54,2.07,7.27
50.107289,3.16353,31.96,0.15,1.52,8.52
50.107289,3.16353,31.96,0.41,1.8,8.18
50.107021,3.163687,32.03,-0.11,1.86,9.66
50.107021,3.163687,32.03,-0.83,0.88,9.36
50.106749,3.163837,32.03,-0.94,1.38,11.08
50.106749,3.163837,32.03,-0.03,1.79,10.42
50.106473,3.163988,32.55,-1.81,2.45,11.23
50.106473,3.163988,32.55,0.2,1.12,10.6
50.106199,3.164137,32.14,-1.12,0.52,11.0
50.106199,3.164137,32.14,-0.81,1.56,9.99
50.105928,3.164289,32.08,-0.39,2.37,9.54
50.105928,3.164289,32.08,0.11,1.92,9.78
50.105659,3.164445,32.05,-1.16,1.62,8.27
50.10539,3.164591,32.04,-0.26,2.14,10.55
50.10539,3.164591,32.04,-0.61,1.31,9.38
50.105117,3.164742,31.96,0.66,2.45,10.44
50.105117,3.164742,31.96,-0.93,0.74,8.48
50.104845,3.164893,31.88,0.55,1.56,9.85
50.104845,3.164893,31.88,0.53,2.01,9.72
50.104576,3.165048,31.93,0.65,1.3,8.78
50.104576,3.165048,31.93,0.97,1.3,9.95
50.10431,3.165193,31.99,0.01,0.7,8.44
50.10431,3.165193,31.99,0.5,1.59,8.71
50.104035,3.165335,32.07,-0.1,1.33,7.59
50.104035,3.165335,32.07,-0.79,1.22,9.36
50.10376,3.165458,32.06,-1.36,1.53,9.17
50.10376,3.165458,32.06,0.03,1.24,11.41
50.103484,3.165588,32.05,-0.92,1.29,11.33
50.103484,3.165588,32.05,0.78,1.1,11.22
50.103211,3.165728,31.99,-1.33,2.05,12.97
50.103211,3.165728,31.99,-1.24,2.9,10.86
50.102938,3.165863,31.98,0.42,1.93,10.34
50.102938,3.165863,31.98,-1.51,2.47,10.12
50.102667,3.165992,31.9,-0.73,1.95,9.28
50.102667,3.165992,31.9,-1.64,1.85,11.88
50.102398,3.166121,31.87,-2.22,1.69,11.68
50.102398,3.166121,31.87,-0.83,1.74,9.53
50.102128,3.166254,31.71,-0.95,2.83,10.75
50.102128,3.166254,31.71,-1.18,1.83,11.71
50.101852,3.16639,31.69,-0.89,1.83,11.66
50.101852,3.16639,31.69,-0.92,2.04,12.0
50.101578,3.166524,31.7,-1.61,1.55,9.27
50.101578,3.166524,31.7,-0.69,0.64,10.21
50.101304,3.166657,31.72,-0.1,1.62,10.62
50.101304,3.166657,31.72,0.98,2.07,8.78
50.101029,3.166789,31.76,-0.5,0.6,11.03
50.101029,3.166789,31.76,1.7,0.48,11.54
50.100753,3.166923,31.73,-0.02,1.6,11.08
50.100753,3.166923,31.73,-0.62,1.78,8.23
50.10048,3.16705,31.7,0.02,1.46,10.34
50.10048,3.16705,31.7,0.41,1.59,11.05
50.100205,3.167172,31.74,-0.15,1.41,8.87
50.100205,3.167172,31.74,0.38,1.63,9.08
50.099931,3.167295,31.72,1.0,0.55,8.64
50.09966,3.167418,31.75,-0.6,1.13,9.15
50.09966,3.167418,31.75,-0.04,0.57,8.86
50.099386,3.16754,31.75,-1.3,1.58,7.81
50.099386,3.16754,31.75,-0.5,3.12,9.94
50.099113,3.167661,31.74,0.38,1.96,10.27
50.099113,3.167661,31.74,0.27,1.19,9.62
50.098836,3.167785,31.74,-1.34,0.45,9.72
50.098836,3.167785,31.74,-0.92,2.56,9.32
50.098555,3.16791,31.86,-0.41,1.65,8.93
50.098555,3.16791,31.86,-1.7,1.54,10.18
50.098278,3.168026,31.82,-1.19,2.25,9.42
50.098278,3.168026,31.82,-0.33,1.9,8.47
50.098005,3.168147,31.89,-0.59,1.72,9.03
50.098005,3.168147,31.89,-0.34,2.64,8.38
50.097731,3.168266,31.9,-0.48,1.95,9.28
50.097731,3.168266,31.9,0.53,0.88,9.96
50.097454,3.168379,31.93,0.3,1.97,9.54
50.097454,3.168379,31.93,-1.26,0.68,8.62
50.097184,3.168478,31.95,-0.04,1.31,9.56
50.097184,3.168478,31.95,-1.28,1.72,8.55
50.096908,3.168577,32.05,-0.69,1.55,9.45
50.096908,3.168577,32.05,-0.58,0.44,10.07
50.096628,3.168684,32.14,-1.14,0.69,9.32
50.096628,3.168684,32.14,1.33,1.02,12.06
50.09635,3.168791,32.22,-1.24,2.02,13.08
50.09635,3.168791,32.22,-1.25,0.75,6.84
50.096069,3.168898,32.34,-2.68,2.56,10.8
50.096069,3.168898,32.34,0.07,1.12,8.62
50.095777,3.169003,32.27,-0.01,1.1,9.07
50.095777,3.169003,32.27,0.5,0.82,9.45
50.095486,3.16911,32.36,0.11,1.98,10.16
50.095486,3.16911,32.36,-0.52,1.69,11.36
50.095195,3.169221,32.32,-1.79,1.1,10.42
50.095195,3.169221,32.32,-0.51,2.23,8.29
50.094909,3.169329,32.35,-0.2,2.23,8.34
50.094909,3.169329,32.35,0.96,1.7,8.57
50.09463,3.169438,32.38,0.59,0.63,9.76
50.09463,3.169438,32.38,-0.22,1.54,11.42
50.094345,3.16955,32.48,-0.8,2.11,10.55
50.094345,3.16955,32.48,-1.01,1.1,8.44
50.094064,3.169648,32.5,0.32,1.38,10.43
50.094064,3.169648,32.5,0.52,1.7,8.64
50.093781,3.169745,32.59,-1.43,2.55,10.59
50.093496,3.169839,32.8,0.06,2.03,11.06
50.093496,3.169839,32.8,-0.62,0.6,8.52
50.093204,3.16995,32.93,-0.71,1.37,10.77
50.093204,3.16995,32.93,0.16,1.76,10.65
50.092915,3.170062,33.13,-0.2,0.91,8.15
50.092915,3.170062,33.13,-1.3,2.39,11.03
50.092624,3.170158,33.52,-1.2,0.66,7.49
50.092624,3.170158,33.52,0.72,2.11,11.31
50.092334,3.170256,33.57,0.52,0.86,8.86
50.092334,3.170256,33.57,-0.11,2.14,10.26
50.092037,3.170353,33.86,-1.52,1.46,7.6
50.092037,3.170353,33.86,0.21,1.19,11.72
50.09174,3.170459,34.11,-0.76,2.15,9.34
50.09174,3.170459,34.11,-0.53,-0.17,9.56
50.091445,3.170565,33.88,0.3,1.42,9.87
50.091445,3.170565,33.88,0.57,1.52,11.7
50.091152,3.170666,33.4,-1.38,1.84,12.52
50.091152,3.170666,33.4,-0.08,0.32,9.58
50.090867,3.170762,32.95,-0.8,0.84,10.36
50.090867,3.170762,32.95,-0.18,1.02,10.01
50.09058,3.170854,32.68,-1.5,1.41,8.08
50.09058,3.170854,32.68,0.1,0.53,8.54
50.090298,3.170936,32.32,-0.79,1.0,10.19
50.090298,3.170936,32.32,0.39,0.49,10.24
50.090024,3.171019,31.99,0.36,1.34,10.77
50.090024,3.171019,31.99,-0.68,1.73,10.67
50.08974,3.171107,31.91,-1.14,1.33,10.76
50.08974,3.171107,31.91,-1.4,0.96,10.18
50.089455,3.171192,32.1,-1.32,1.94,10.77
50.089455,3.171192,32.1,0.49,0.94,10.11
50.089167,3.171274,32.3,-0.37,1.08,7.71
50.089167,3.171274,32.3,-0.61,1.59,8.28
50.088879,3.171351,32.59,0.78,1.05,11.38
50.088879,3.171351,32.59,-2.21,2.43,11.1
50.08859,3.171433,32.79,-1.02,1.44,10.24
50.08859,3.171433,32.79,-0.14,1.35,9.28
50.088308,3.171528,32.95,0.93,1.29,10.77
50.088308,3.171528,32.95,0.02,1.98,9.74
50.088023,3.17162,33.05,0.22,1.19,8.93
50.087735,3.171713,33.15,-0.66,1.33,10.1
50.087735,3.171713,33.15,-0.32,1.34,9.15
50.087438,3.171808,33.25,0.07,1.36,12.2
50.087438,3.171808,33.25,-1.41,1.7,10.66
50.087142,3.171898,33.36,-0.15,0.76,7.87
50.087142,3.171898,33.36,-0.63,2.53,10.44
50.086847,3.171986,33.39,0.43,1.18,11.76
50.086847,3.171986,33.39,-2.41,2.42,11.15
50.086549,3.17208,33.46,-0.34,1.34,8.74
50.086549,3.17208,33.46,0.21,0.84,11.06
50.086252,3.172176,33.54,-0.07,0.89,9.64
50.086252,3.172176,33.54,-1.78,1.82,10.05
50.085954,3.172265,33.6,0.59,0.89,8.77
50.085954,3.172265,33.6,-1.83,2.52,10.89
50.085663,3.172349,33.65,0.65,1.03,9.78
50.085663,3.172349,33.65,-0.56,0.72,9.45
50.085369,3.17245,33.79,0.73,1.27,9.22
50.085369,3.17245,33.79,-0.57,0.43,9.88
50.085071,3.172542,33.84,-2.08,3.39,8.86
50.085071,3.172542,33.84,-1.8,0.68,8.09
50.08477,3.172627,33.98,0.36,1.42,10.56
50.08477,3.172627,33.98,-1.79,2.77,11.16
50.084468,3.172716,33.99,0.12,1.36,12.17
50.084468,3.172716,33.99,-0.84,2.22,8.07
50.084168,3.172807,34.06,-0.23,1.71,11.52
50.084168,3.172807,34.06,-0.63,1.34,11.25
50.083866,3.172898,33.98,-1.9,1.53,9.73
50.083866,3.172898,33.98,0.76,1.45,8.17
50.083566,3.172987,33.9,0.32,1.72,11.54
50.083566,3.172987,33.9,0.71,0.25,10.23
50.083267,3.173075,33.78,-0.89,-0.01,9.96
50.083267,3.173075,33.78,0.18,2.92,11.11
50.082967,3.173161,33.7,0.78,0.35,11.39
50.082967,3.173161,33.7,-1.76,3.32,12.22
50.082668,3.17324,33.69,1.64,1.04,9.45
50.082668,3.17324,33.69,-0.84,0.84,10.34
50.082368,3.173333,33.68,0.41,1.25,9.74
50.082368,3.173333,33.68,-1.07,0.93,9.22
50.082071,3.173423,33.65,0.7,1.54,8.88
50.082071,3.173423,33.65,0.89,1.53,11.52
50.081775,3.173517,33.63,-0.72,1.98,9.43
50.081476,3.173608,33.5,-0.5,0.8,8.55
50.081476,3.173608,33.5,-1.79,1.19,11.5
50.08118,3.173697,33.36,-0.67,1.45,9.68
50.08118,3.173697,33.36,-0.76,0.73,10.25
50.080885,3.173779,33.22,-0.26,2.52,11.15
50.080885,3.173779,33.22,0.04,1.61,9.82
50.080592,3.173864,33.13,-0.97,0.76,11.03
50.080592,3.173864,33.13,0.23,1.04,11.21
50.080296,3.173964,33.06,-0.91,1.35,9.61
50.080296,3.173964,33.06,0.54,1.39,10.61
50.080008,3.174058,33.05,0.11,0.49,8.19
50.080008,3.174058,33.05,0.08,1.42,11.64
50.07972,3.17415,32.99,-0.33,2.26,13.11
50.07972,3.17415,32.99,-0.06,1.26,9.62
50.079424,3.174231,32.91,-0.33,1.81,9.09
50.079424,3.174231,32.91,0.49,1.41,10.56
50.079136,3.174309,32.77,0.18,1.49,9.74
50.079136,3.174309,32.77,-0.11,0.85,8.5
50.078842,3.17439,32.61,-0.43,1.71,10.89
50.078842,3.17439,32.61,0.47,2.4,10.2
50.07855,3.174477,32.61,-2.38,1.46,10.26
50.07855,3.174477,32.61,0.23,1.54,10.59
50.078263,3.174562,32.58,-1.79,1.85,10.42
50.078263,3.174562,32.58,1.08,2.15,11.01
50.077977,3.17465,32.6,-0.61,2.63,10.4
50.077977,3.17465,32.6,-1.52,1.42,8.02
50.077689,3.17474,32.76,-2.19,2.48,9.28
50.077689,3.17474,32.76,0.13,1.24,8.63
50.077403,3.174825,32.76,-1.69,1.74,7.88
50.077403,3.174825,32.76,1.14,1.26,9.63
50.077118,3.174907,32.83,0.14,2.31,10.4
50.077118,3.174907,32.83,0.68,1.67,10.57
50.076832,3.174992,32.74,-0.87,1.34,9.06
50.076832,3.174992,32.74,-0.02,2.38,10.63
50.076538,3.175089,32.81,-1.02,2.84,10.24
50.076538,3.175089,32.81,-0.51,1.27,7.48
50.07625,3.175173,32.78,-0.83,1.25,10.79
50.075961,3.175257,32.69,0.51,1.43,12.01
50.075961,3.175257,32.69,0.17,2.26,9.92
50.075677,3.175347,32.69,0.6,1.74,10.16
50.075677,3.175347,32.69,0.59,1.63,9.28
50.075394,3.175443,32.69,-0.82,1.69,10.87
50.075394,3.175443,32.69,-0.96,1.98,10.36
50.075109,3.175538,32.58,0.67,1.37,9.09
50.075109,3.175538,32.58,-1.02,1.09,9.31
50.074822,3.175629,32.62,0.52,1.32,8.58
50.074822,3.175629,32.62,-1.41,2.25,10.4
50.074532,3.175713,32.56,0.6,2.01,10.46
50.074532,3.175713,32.56,-0.05,1.57,10.18
50.074237,3.175794,32.66,-0.54,1.31,8.88
50.074237,3.175794,32.66,-2.08,1.74,10.44
50.073944,3.175871,32.68,-2.07,2.68,8.9
50.073944,3.175871,32.68,-0.68,1.54,10.89
50.073651,3.17595,32.69,1.49,0.84,10.18
50.073651,3.17595,32.69,-1.38,2.09,8.41
50.07336,3.176034,32.74,-0.72,2.19,10.5
50.07336,3.176034,32.74,-0.14,1.18,9.66
50.073071,3.176116,32.77,0.66,1.09,9.59
50.073071,3.176116,32.77,-0.79,1.45,9.87
50.072786,3.176198,32.77,0.2,0.82,8.41
50.072786,3.176198,32.77,-1.62,0.36,8.6
50.0725,3.176287,32.72,0.6,1.9,10.36
50.0725,3.176287,32.72,0.01,1.54,11.46
50.072213,3.176376,32.61,0.58,1.84,8.05
50.072213,3.176376,32.61,-1.15,1.32,9.25
50.07192,3.176469,32.65,-1.37,0.82,10.45
50.07192,3.176469,32.65,-1.19,1.52,10.01
50.07163,3.176555,32.73,-0.37,1.22,10.34
50.07163,3.176555,32.73,1.42,2.26,9.87
50.07134,3.176632,32.84,-0.49,1.62,10.85
50.07134,3.176632,32.84,-0.13,0.61,8.94
50.071055,3.176718,32.86,-0.45,0.89,9.95
50.071055,3.176718,32.86,-0.02,1.36,10.34
50.070771,3.176802,32.91,0.35,1.77,10.57
50.070771,3.176802,32.91,-0.8,0.57,10.55
50.070483,3.176892,32.93,0.56,0.92,12.11
50.070483,3.176892,32.93,0.11,2.18,9.96
50.070195,3.17697,32.99,-0.57,0.63,9.35
50.069905,3.177049,33.09,1.64,0.74,12.99
50.069905,3.177049,33.09,-0.05,1.74,10.32
50.069615,3.177124,33.14,1.07,1.5,10.94
50.069615,3.177124,33.14,-1.14,1.52,9.55
50.069325,3.177193,33.19,-1.05,1.27,8.78
50.069325,3.177193,33.19,-0.07,1.49,11.43
50.069031,3.177257,33.14,-1.38,1.83,9.5
50.069031,3.177257,33.14,0.2,0.59,9.05
50.068737,3.177319,33.31,-0.29,1.85,10.08
50.068737,3.177319,33.31,0.15,0.85,8.11
50.06844,3.177381,33.41,-1.93,1.35,9.64
50.06844,3.177381,33.41,-1.29,1.56,7.92
50.068141,3.177435,33.52,-0.62,1.19,9.96
50.068141,3.177435,33.52,-1.03,1.44,10.0
50.067833,3.177479,33.66,0.13,1.92,8.75
50.067833,3.177479,33.66,-1.27,0.57,8.7
50.067528,3.177523,33.76,-0.53,2.05,9.47
50.067528,3.177523,33.76,-0.27,1.22,10.3
50.067223,3.177574,33.9,-0.33,0.76,9.27
50.067223,3.177574,33.9,-1.65,2.71,10.0
50.066917,3.177626,33.96,0.92,1.87,10.33
50.066917,3.177626,33.96,-1.08,1.0,7.92
50.066612,3.177677,34.15,-1.58,2.04,9.93
50.066612,3.177677,34.15,-0.23,1.94,10.77
50.066305,3.177728,34.27,1.02,1.3,10.61
50.066305,3.177728,34.27,0.01,0.51,10.31
50.065997,3.177779,34.33,-1.24,1.98,11.22
50.065997,3.177779,34.33,0.23,0.85,11.07
50.065692,3.177824,34.41,1.91,1.11,10.38
50.065692,3.177824,34.41,0.5,0.91,9.88
50.065385,3.177868,34.4,-0.61,1.28,10.89
50.065385,3.177868,34.4,-0.38,2.55,9.53
50.065075,3.177913,34.53,-1.27,2.08,9.74
50.065075,3.177913,34.53,-0.41,1.18,10.99
50.064768,3.177949,34.52,0.27,0.56,11.18
50.064768,3.177949,34.52,-0.83,0.43,6.26
50.064457,3.177991,34.59,-0.49,1.82,10.3
50.064457,3.177991,34.59,-1.53,1.82,10.44
50.064146,3.178033,34.57,-0.96,1.21,11.04
50.064146,3.178033,34.57,0.35,1.1,9.64
50.063837,3.178069,34.57,0.23,1.08,7.62
50.063528,3.178101,34.25,0.2,1.5,8.73
50.063528,3.178101,34.25,0.6,1.15,10.05
50.063218,3.178133,34.15,-1.01,1.23,8.43
50.063218,3.178133,34.15,-0.44,1.65,11.8
50.062916,3.178157,34.25,0.59,1.35,11.56
50.062916,3.178157,34.25,-0.51,0.94,9.01
50.06261,3.178182,34.37,-1.48,2.94,10.26
50.06261,3.178182,34.37,0.21,2.52,11.68
50.0623,3.178209,34.48,-1.2,1.81,10.36
50.0623,3.178209,34.48,-1.26,1.47,10.17
50.061986,3.178233,34.67,-1.13,0.76,8.05
50.061986,3.178233,34.67,-0.06,1.13,9.1
50.061676,3.178251,34.76,-0.25,1.44,8.82
50.061676,3.178251,34.76,-0.82,2.02,7.68
50.061363,3.178265,35.01,0.03,2.02,8.76
50.061363,3.178265,35.01,0.03,1.72,8.22
50.061048,3.178278,35.11,-1.78,0.55,7.77
50.061048,3.178278,35.11,-0.25,2.19,9.78
50.060733,3.178287,35.26,-0.54,0.74,9.8
50.060733,3.178287,35.26,-0.97,0.91,10.54
50.060419,3.1783,35.17,0.08,2.1,7.34
50.060419,3.1783,35.17,-1.29,0.71,8.49
50.060107,3.178314,34.91,-0.31,0.82,8.61
50.060107,3.178314,34.91,0.01,0.73,9.17
50.059801,3.178326,33.66,-0.63,0.44,10.17
50.059801,3.178326,33.66,-0.91,1.33,8.83
50.0595,3.17833,33.44,-0.26,1.4,8.66
50.0595,3.17833,33.44,-0.77,0.56,11.63
50.059201,3.178332,33.1,0.23,1.0,10.51
50.059201,3.178332,33.1,0.49,1.01,10.07
50.0589,3.178347,33.09,-1.46,1.64,8.13
50.0589,3.178347,33.09,-0.38,0.74,7.92
50.058605,3.178347,33.07,0.2,1.18,12.51
50.058605,3.178347,33.07,-2.41,1.21,10.53
50.058307,3.178347,32.96,-0.11,0.76,10.44
50.058307,3.178347,32.96,0.17,0.99,10.22
50.058013,3.178347,32.59,0.88,0.73,11.03
50.058013,3.178347,32.59,-0.1,1.03,10.82
50.05773,3.178335,32.1,-0.88,1.16,10.98
50.057444,3.178325,31.75,-0.1,0.4,11.32
50.057444,3.178325,31.75,1.14,0.82,10.79
50.05716,3.178316,31.26,0.64,0.26,10.41
50.05716,3.178316,31.26,-0.23,1.78,9.6
50.056881,3.178299,30.8,-0.8,1.17,9.64
50.056881,3.178299,30.8,-0.42,1.41,11.66
50.05661,3.178287,30.83,-0.68,1.62,8.6
50.05661,3.178287,30.83,-0.17,1.73,11.87
50.056335,3.178275,30.7,0.25,0.53,8.15
50.056335,3.178275,30.7,-1.21,0.94,9.15
50.056061,3.178264,30.77,-1.59,1.0,8.89
50.056061,3.178264,30.77,-0.97,1.39,12.08
50.055788,3.17825,31.04,-1.22,1.99,7.79
50.055788,3.17825,31.04,-0.49,0.97,9.33
50.055514,3.178235,31.24,-0.12,1.36,11.72
50.055514,3.178235,31.24,-0.46,1.75,10.04
50.055237,3.178218,31.45,-0.25,0.99,9.36
50.055237,3.178218,31.45,-0.81,0.21,11.11
50.054954,3.178195,31.55,-0.32,0.84,8.87
50.054954,3.178195,31.55,-2.92,1.13,7.28
50.05467,3.178165,31.72,-0.27,1.57,9.49
50.05467,3.178165,31.72,1.15,0.66,8.63
50.054384,3.178137,31.98,-0.92,0.89,9.18
50.054384,3.178137,31.98,1.75,0.41,8.99
50.054098,3.178109,32.17,1.35,1.02,11.39
50.054098,3.178109,32.17,0.89,-0.35,11.9
50.053808,3.17808,32.33,-1.43,0.45,9.82
50.053808,3.17808,32.33,-0.87,1.68,10.1
50.053518,3.178052,32.45,-1.4,1.68,9.85
50.053518,3.178052,32.45,-0.82,0.54,9.17
50.053224,3.178024,32.42,-0.07,0.4,11.48
50.053224,3.178024,32.42,-0.18,1.73,11.44
50.052932,3.177994,32.34,-0.35,0.98,11.02
50.052932,3.177994,32.34,-0.62,1.19,10.39
50.05264,3.17796,32.27,-0.54,1.25,9.81
50.05264,3.17796,32.27,-0.65,1.43,7.68
50.05235,3.177923,32.17,-0.47,2.32,7.0
50.05235,3.177923,32.17,-0.34,1.24,8.08
50.052061,3.177889,31.97,-1.64,1.24,8.35
50.052061,3.177889,31.97,-1.58,0.92,10.68
50.051774,3.177853,31.85,0.0,1.57,9.52
50.051774,3.177853,31.85,0.83,1.54,8.91
50.051481,3.177822,31.53,-0.24,1.15,10.05
50.051193,3.177783,31.51,-0.23,1.52,11.77
50.051193,3.177783,31.51,-0.52,1.8,10.1
50.050906,3.177737,31.35,0.19,2.35,9.42
50.050906,3.177737,31.35,0.47,2.18,9.87
50.050619,3.17768,31.08,-0.5,2.12,6.67
50.050619,3.17768,31.08,0.29,1.04,10.31
50.050343,3.177616,30.8,-0.89,1.22,10.71
50.050343,3.177616,30.8,-2.12,2.08,7.68
50.05007,3.177561,30.49,-1.24,1.59,9.62
50.05007,3.177561,30.49,-0.11,1.18,9.52
50.049794,3.177508,30.27,-1.01,2.07,8.28
50.049794,3.177508,30.27,-0.95,1.11,9.71
50.049518,3.177458,30.01,-0.12,1.63,8.66
50.049518,3.177458,30.01,0.13,1.86,8.89
50.049247,3.177401,29.83,0.24,2.01,9.49
50.049247,3.177401,29.83,-0.25,1.5,8.97
50.048982,3.177341,29.62,-0.58,1.37,8.6
50.048982,3.177341,29.62,-0.75,2.44,11.16
50.048716,3.177285,29.47,0.5,1.75,9.57
50.048716,3.177285,29.47,-0.42,1.46,9.91
50.048452,3.177225,29.28,0.52,0.79,9.81
50.048452,3.177225,29.28,-0.37,1.85,12.1
50.048191,3.177163,29.06,-1.02,1.5,9.72
50.048191,3.177163,29.06,-0.74,1.43,11.05
50.047932,3.177099,28.97,0.5,1.82,8.58
50.047932,3.177099,28.97,-1.15,1.63,7.56
50.047674,3.177032,28.81,-1.53,1.8,8.09
50.047674,3.177032,28.81,-0.25,1.16,10.75
50.047419,3.176961,28.68,-0.45,1.87,10.78
50.047419,3.176961,28.68,1.15,1.58,9.64
50.047166,3.17689,28.51,-1.24,1.79,8.72
50.047166,3.17689,28.51,-1.35,1.57,9.22
50.046914,3.176818,28.37,0.03,2.22,9.93
50.046914,3.176818,28.37,0.1,1.72,8.66
50.046659,3.17676,28.24,0.42,1.9,10.11
50.046659,3.17676,28.24,-0.53,1.5,9.72
50.046404,3.176692,28.17,-1.7,1.13,10.96
50.046404,3.176692,28.17,-0.24,1.72,10.79
50.046156,3.176617,28.1,-1.58,1.95,9.62
50.045906,3.176548,28.01,-0.44,1.08,10.6
50.045906,3.176548,28.01,-1.24,2.03,9.12
50.045654,3.176479,28.11,-0.3,2.38,9.76
50.045654,3.176479,28.11,-0.49,1.32,9.6
50.045406,3.176408,28.09,-1.09,1.46,9.26
50.045406,3.176408,28.09,-1.09,1.58,8.95
50.04516,3.176327,27.96,1.5,1.36,9.84
50.04516,3.176327,27.96,-1.66,1.92,9.28
50.044914,3.176251,27.88,0.01,1.77,10.23
50.044914,3.176251,27.88,-1.13,1.24,10.3
50.044666,3.176168,27.86,-0.18,2.3,9.39
50.044666,3.176168,27.86,-0.86,0.91,10.63
50.044423,3.176087,27.84,-2.15,1.66,9.46
50.044423,3.176087,27.84,0.62,2.5,9.39
50.044176,3.176008,27.75,-0.11,2.36,10.02
50.044176,3.176008,27.75,-0.17,2.23,11.95
50.043931,3.17593,27.61,-0.37,1.59,10.07
50.043931,3.17593,27.61,-1.75,1.01,9.98
50.043688,3.175846,27.66,-0.47,2.58,9.26
50.043688,3.175846,27.66,0.68,1.47,9.88
50.043441,3.175768,27.62,-0.68,1.42,9.28
50.043441,3.175768,27.62,-0.94,1.85,10.32
50.043197,3.175683,27.66,-1.07,2.11,10.44
50.043197,3.175683,27.66,-0.53,1.91,10.17
50.042956,3.175599,27.64,-0.39,2.14,10.39
50.042956,3.175599,27.64,-0.67,1.67,8.93
50.042717,3.17551,27.82,0.13,1.55,10.22
50.042717,3.17551,27.82,-0.34,1.38,10.96
50.04247,3.175422,27.89,-1.03,0.57,9.54
50.04247,3.175422,27.89,0.68,2.46,10.07
50.042224,3.175333,28.05,-1.5,2.0,8.57
50.042224,3.175333,28.05,-0.4,1.33,12.07
50.041975,3.175255,28.16,-0.88,2.3,9.81
50.041975,3.175255,28.16,0.48,2.6,11.35
50.041727,3.175171,28.32,-1.5,2.34,9.02
50.041727,3.175171,28.32,-1.33,1.41,12.04
50.041479,3.175086,28.52,0.68,1.58,10.09
50.041479,3.175086,28.52,-0.85,2.21,10.02
50.041228,3.174999,28.7,-0.13,2.09,9.2
50.041228,3.174999,28.7,-0.71,1.12,8.05
50.040975,3.174918,28.93,-0.41,1.77,8.37
50.040721,3.174838,29.13,0.26,1.5,8.33
50.040721,3.174838,29.13,-0.7,2.1,9.03
50.040465,3.174746,29.3,-0.88,1.43,9.4
50.040465,3.174746,29.3,-0.8,1.98,9.41
50.040206,3.174657,29.54,-0.61,1.47,10.13
50.040206,3.174657,29.54,-0.19,0.54,9.75
50.039947,3.174569,29.88,-1.56,2.49,9.21
50.039947,3.174569,29.88,-1.05,1.8,9.19
50.039685,3.174474,30.16,-1.07,1.86,8.79
50.039685,3.174474,30.16,-0.63,1.72,9.49
50.03942,3.174381,30.4,-2.53,2.37,8.16
50.03942,3.174381,30.4,-1.16,0.55,9.64
50.039153,3.174293,30.7,-1.09,1.56,9.44
50.039153,3.174293,30.7,-1.65,2.38,9.9
50.03888,3.174207,31.02,-0.08,1.58,9.54
50.03888,3.174207,31.02,-0.05,0.84,10.44
50.038606,3.174113,31.36,-0.22,1.73,10.24
50.038606,3.174113,31.36,0.34,1.45,8.53
50.038332,3.174017,31.68,-1.6,1.43,7.74
50.038332,3.174017,31.68,-0.56,0.7,8.95
50.038055,3.17392,32.02,0.38,1.72,10.46
50.038055,3.17392,32.02,-1.58,1.73,9.59
50.037769,3.17383,32.25,0.52,1.95,11.54
50.037769,3.17383,32.25,1.21,1.17,10.77
50.037487,3.173732,32.43,-1.66,2.6,10.07
50.037487,3.173732,32.43,0.59,1.04,8.72
50.03721,3.173633,32.62,-0.6,1.66,9.74
50.03721,3.173633,32.62,-0.93,1.69,9.46
50.036923,3.173537,32.98,0.97,0.04,9.84
50.036923,3.173537,32.98,-1.66,0.64,8.98
50.036632,3.17344,33.09,-0.48,0.88,10.96
50.036632,3.17344,33.09,0.71,1.23,9.68
50.036346,3.173341,32.55,-1.35,0.66,9.31
50.036346,3.173341,32.55,-1.0,1.65,9.18
50.036064,3.173246,32.13,-0.76,0.72,8.6
50.036064,3.173246,32.13,1.13,0.56,11.86
50.035782,3.173147,32.05,0.18,0.49,10.04
50.035782,3.173147,32.05,-0.24,1.73,10.31
50.035501,3.17305,32.17,0.68,0.34,10.05
50.035501,3.17305,32.17,-1.54,1.49,9.9
50.035218,3.172956,32.31,-0.57,2.03,9.78
50.034935,3.172859,32.43,-0.26,0.99,9.05
50.034935,3.172859,32.43,-0.12,1.28,8.11
50.034652,3.172762,32.62,-0.4,1.56,10.35
50.034652,3.172762,32.62,-0.72,0.58,11.32
50.034364,3.172664,32.75,-0.57,1.93,9.2
50.034364,3.172664,32.75,-1.97,1.61,9.14
50.034077,3.172568,32.77,-0.09,1.51,8.99
50.034077,3.172568,32.77,-1.15,1.74,9.5
50.033786,3.172478,32.94,-0.24,0.1,11.44
50.033786,3.172478,32.94,-1.89,1.68,9.52
50.0335,3.172373,33.01,-0.87,0.76,11.4
50.0335,3.172373,33.01,-0.45,1.11,9.04
50.033207,3.172279,33.03,0.27,0.55,10.98
50.033207,3.172279,33.03,-2.26,2.27,9.92
50.032919,3.172184,33.03,-1.63,1.28,9.07
50.032919,3.172184,33.03,-2.11,3.07,8.79
50.032629,3.172089,33.13,-0.65,1.21,9.93
50.032629,3.172089,33.13,0.85,0.79,10.18
50.032339,3.171998,33.36,-0.77,0.67,9.38
50.032339,3.171998,33.36,-1.62,1.22,9.94
50.032045,3.171898,33.44,-1.44,1.17,8.86
50.032045,3.171898,33.44,0.11,1.19,11.1
50.031753,3.171806,33.4,-1.08,1.07,8.73
50.031753,3.171806,33.4,-2.14,2.16,10.02
50.031459,3.17172,33.11,-1.06,0.51,10.1
50.031459,3.17172,33.11,-1.56,1.2,9.55
50.031157,3.171641,33.69,-0.43,0.98,9.92
50.031157,3.171641,33.69,-1.93,1.35,10.83
50.030858,3.171558,33.48,-0.9,0.64,8.43
50.030858,3.171558,33.48,-0.3,1.3,10.41
50.030562,3.171476,33.81,1.13,1.26,9.56
50.030562,3.171476,33.81,-1.57,0.66,10.18
50.030267,3.171399,33.98,-1.06,2.38,9.0
50.030267,3.171399,33.98,-2.35,2.64,10.28
50.029969,3.171323,34.19,-1.3,-0.1,10.02
50.029969,3.171323,34.19,-1.07,2.01,9.52
50.029664,3.171256,34.31,-0.9,2.74,8.35
50.029356,3.171194,34.38,0.87,1.38,10.16
50.029356,3.171194,34.38,-0.73,0.57,10.58
50.029051,3.171129,34.19,-1.9,0.69,9.35
50.029051,3.171129,34.19,1.37,-0.45,8.93
50.02875,3.171067,33.65,-1.52,0.91,9.77
50.02875,3.171067,33.65,-1.81,2.54,8.24
50.028452,3.171009,33.45,-0.63,0.39,9.37
50.028452,3.171009,33.45,-1.51,1.59,10.68
50.028155,3.170955,33.43,-1.78,1.35,8.94
50.028155,3.170955,33.43,1.44,1.39,9.74
50.027852,3.170908,33.46,0.3,1.32,10.0
50.027852,3.170908,33.46,0.2,0.8,11.43
50.027551,3.170862,33.45,-1.75,2.02,8.36
50.027551,3.170862,33.45,0.52,1.27,11.78
50.027254,3.170813,33.46,1.14,1.43,10.37
50.027254,3.170813,33.46,-1.49,0.95,10.14
50.026958,3.170768,33.49,-1.73,1.59,8.94
50.026958,3.170768,33.49,1.43,1.12,10.16
50.026655,3.170733,33.44,0.11,0.6,9.24
50.026655,3.170733,33.44,1.04,0.64,10.79
50.026351,3.170702,33.27,-2.02,1.78,8.51
50.026351,3.170702,33.27,1.48,0.93,9.41
50.026057,3.170659,33.36,-2.65,0.77,9.74
50.026057,3.170659,33.36,-0.28,0.24,8.23
50.025759,3.17062,33.31,-2.6,2.26,10.12
50.025759,3.17062,33.31,-2.64,0.93,9.94
50.02546,3.170588,33.33,-0.23,2.04,11.63
50.02546,3.170588,33.33,-1.52,1.19,9.76
50.025162,3.170561,33.53,0.33,1.98,10.77
50.025162,3.170561,33.53,0.11,1.87,8.96
50.024867,3.170536,33.47,-0.98,1.9,9.59
50.024867,3.170536,33.47,-0.18,1.85,9.22
50.024561,3.170518,33.73,-0.65,1.67,10.26
50.024561,3.170518,33.73,-0.92,1.83,9.94
50.024253,3.170506,33.79,-0.31,1.41,9.09
50.024253,3.170506,33.79,-0.39,1.56,11.76
50.023947,3.170493,33.93,-0.37,0.8,7.62
50.023947,3.170493,33.93,-1.22,1.68,8.75
50.023639,3.170481,33.84,-2.32,1.02,10.49
50.023639,3.170481,33.84,-1.74,1.61,7.45
50.023334,3.170473,33.8,-1.79,2.45,10.39
50.023025,3.170475,33.86,-0.02,0.3,8.56
50.023025,3.170475,33.86,-0.41,3.09,10.94
50.02272,3.170476,33.93,-1.0,1.34,10.34
50.02272,3.170476,33.93,-1.67,1.98,10.25
50.022416,3.170479,33.97,-1.92,2.07,11.34
50.022416,3.170479,33.97,0.82,1.18,12.1
50.022108,3.170492,34.03,-1.19,2.38,11.89
50.022108,3.170492,34.03,-2.55,2.0,10.09
50.021799,3.170505,34.02,0.48,2.02,11.28
50.021799,3.170505,34.02,-0.84,2.59,11.36
50.021493,3.170519,33.96,-0.9,1.13,11.92
50.021493,3.170519,33.96,-1.36,0.36,7.45
50.021184,3.170539,33.74,-0.29,1.76,10.95
50.021184,3.170539,33.74,0.02,1.33,9.0
50.020878,3.170568,33.55,-0.67,1.07,8.99
50.020878,3.170568,33.55,-1.81,1.47,12.29
50.020574,3.170597,33.44,0.37,1.35,7.44
50.020574,3.170597,33.44,1.14,1.42,11.16
50.020271,3.170625,33.31,0.38,1.32,10.57
50.020271,3.170625,33.31,1.44,2.57,11.97
50.019971,3.170652,33.17,-1.52,2.65,13.79
50.019971,3.170652,33.17,-0.48,0.13,12.06
50.019677,3.170675,33.12,-1.54,1.84,10.4
50.019677,3.170675,33.12,-0.79,2.23,9.62
50.019384,3.170709,33.15,-0.51,1.75,9.61
50.019384,3.170709,33.15,-1.34,2.28,10.42
50.019092,3.170743,33.07,-0.19,1.18,9.04
50.019092,3.170743,33.07,1.22,0.59,9.92
50.018803,3.170774,33.03,-0.22,2.34,11.33
50.018803,3.170774,33.03,0.45,1.31,9.37
50.018509,3.170816,33.03,0.0,0.85,11.0
50.018509,3.170816,33.03,-1.11,1.48,9.87
50.018215,3.17086,33.2,0.51,1.2,11.6
50.018215,3.17086,33.2,-2.72,1.82,10.67
50.017922,3.170898,33.27,-0.9,0.64,8.69
50.017922,3.170898,33.27,-1.17,2.07,9.96
50.017621,3.170956,33.39,-1.43,0.94,9.5
50.017621,3.170956,33.39,-2.43,2.5,9.99
50.017324,3.171008,33.51,0.88,1.42,9.97
50.017324,3.171008,33.51,-2.52,2.25,10.04
50.017024,3.17107,33.78,-0.08,1.51,10.12
50.016724,3.171137,34.07,-3.06,1.88,9.17
50.016724,3.171137,34.07,-1.63,1.3,11.31
50.016422,3.171211,34.06,-0.65,0.42,7.75
50.016422,3.171211,34.06,-1.51,2.52,10.05
50.016116,3.1713,34.28,-1.73,1.92,9.97
50.016116,3.1713,34.28,1.42,1.17,10.69
50.015814,3.171381,34.52,-0.21,1.76,10.21
50.015814,3.171381,34.52,0.52,0.93,8.81
50.015513,3.171453,34.66,0.55,2.18,10.28
50.015513,3.171453,34.66,0.12,1.07,10.42
50.015206,3.171532,34.66,0.85,-0.26,9.27
50.015206,3.171532,34.66,0.94,-0.48,11.24
50.014903,3.171614,33.95,-0.91,1.41,9.03
50.014903,3.171614,33.95,-0.23,-0.32,9.05
50.014603,3.171699,33.4,-1.7,1.67,9.39
50.014603,3.171699,33.4,-1.55,0.57,9.21
50.014315,3.171782,32.94,-0.74,0.7,10.64
50.014315,3.171782,32.94,0.76,0.34,8.7
50.014027,3.171871,32.76,0.79,0.89,10.59
50.014027,3.171871,32.76,0.46,0.83,9.32
50.013737,3.17197,32.86,-1.93,1.7,10.5
50.013737,3.17197,32.86,-1.39,0.68,9.34
50.013451,3.17206,32.89,0.79,0.97,10.11
50.013451,3.17206,32.89,-0.5,2.15,9.15
50.013163,3.172168,33.02,-0.66,0.91,8.89
50.013163,3.172168,33.02,-1.04,0.35,9.17
50.012876,3.172265,33.07,-2.6,2.5,9.55
50.012876,3.172265,33.07,-1.01,0.73,9.33
50.012588,3.172361,33.22,0.47,0.82,11.28
50.012588,3.172361,33.22,-0.9,1.04,8.93
50.012301,3.172477,33.27,0.25,1.02,11.72
50.012301,3.172477,33.27,-0.1,1.26,9.81
50.012016,3.172598,33.29,-0.42,1.27,7.39
50.012016,3.172598,33.29,-1.41,2.44,9.68
50.011725,3.172721,33.33,1.07,0.55,11.56
50.011725,3.172721,33.33,-0.95,1.25,12.12
50.011436,3.17284,33.22,-1.36,0.77,8.87
50.011436,3.17284,33.22,-1.98,1.26,11.44
50.011145,3.172961,33.27,-0.73,2.23,9.86
50.011145,3.172961,33.27,1.01,0.94,10.91
50.010857,3.173088,33.19,-1.15,1.77,12.18
50.010567,3.173217,33.07,-0.8,1.31,8.7
50.010567,3.173217,33.07,-0.35,1.22,11.79
50.010283,3.173339,32.97,-1.81,2.11,10.08
50.010283,3.173339,32.97,-0.47,1.26,13.59
50.010001,3.173462,32.8,-0.1,1.8,12.19
50.010001,3.173462,32.8,-1.42,1.55,11.81
50.009717,3.173595,32.72,-0.89,1.74,9.31
50.009717,3.173595,32.72,-0.71,2.16,8.81
50.009431,3.173731,32.61,-1.07,1.67,8.96
50.009431,3.173731,32.61,-1.4,1.71,10.38
50.00914,3.173865,32.48,0.04,2.32,8.39
50.00914,3.173865,32.48,-1.66,1.39,8.37
50.008856,3.173999,32.42,-0.41,1.38,9.2
50.008856,3.173999,32.42,0.49,1.42,9.96
50.008573,3.174137,32.34,-1.04,2.36,9.33
50.008573,3.174137,32.34,-1.43,2.19,11.35
50.008295,3.174286,32.35,-1.91,2.55,9.27
50.008295,3.174286,32.35,-0.48,1.6,8.94
50.008017,3.174436,32.17,-1.06,1.79,8.76
50.008017,3.174436,32.17,-1.2,2.09,8.02
50.007746,3.17458,32.1,-0.94,1.77,8.83
50.007746,3.17458,32.1,-0.51,1.68,10.96
50.007476,3.174728,32.0,0.4,1.6,10.28
50.007476,3.174728,32.0,0.7,1.21,11.43
50.007208,3.174881,31.9,-0.32,1.69,11.77
50.007208,3.174881,31.9,-1.74,0.93,8.05
50.006927,3.175048,31.87,0.38,2.18,10.42
50.006927,3.175048,31.87,-0.51,1.96,10.5
50.006657,3.175211,31.88,-2.91,2.19,9.59
50.006657,3.175211,31.88,-0.18,1.5,12.05
50.00639,3.175369,31.91,-1.44,1.97,10.18
50.00639,3.175369,31.91,-1.98,1.32,8.98
50.006127,3.175534,31.83,0.41,1.7,10.54
50.006127,3.175534,31.83,-1.45,1.54,11.77
50.005866,3.1757,31.77,-0.69,1.54,10.76
50.005866,3.1757,31.77,0.13,1.41,9.25
50.005603,3.175866,31.75,-0.54,1.06,10.8
50.005603,3.175866,31.75,-0.02,1.89,10.86
50.005337,3.176041,31.82,-0.45,1.73,10.56
50.005073,3.176223,31.98,0.7,1.81,12.73
50.005073,3.176223,31.98,0.3,2.04,11.65
50.004807,3.176396,32.13,-2.37,2.51,11.15
50.004807,3.176396,32.13,-0.73,1.8,9.94
50.004545,3.176569,32.25,-1.02,1.96,8.76
50.004545,3.176569,32.25,0.37,0.98,9.03
50.004291,3.176767,32.48,0.01,0.81,8.03
50.004291,3.176767,32.48,-1.48,1.14,8.95
50.004034,3.176955,32.62,-2.34,1.51,10.55
50.004034,3.176955,32.62,-1.49,2.6,8.57
50.003773,3.177146,32.82,-1.77,1.48,9.88
50.003773,3.177146,32.82,-0.51,2.0,9.44
50.003509,3.177346,33.09,-2.1,1.81,10.58
50.003509,3.177346,33.09,-0.17,0.48,9.28
50.00325,3.177544,33.22,-1.58,2.06,9.14
50.00325,3.177544,33.22,-0.55,0.63,9.1
50.002985,3.177748,33.35,-0.03,1.46,11.88
50.002985,3.177748,33.35,-0.69,1.23,7.41
50.002718,3.177953,33.49,-0.59,0.97,8.41
50.002718,3.177953,33.49,-0.33,1.14,10.0
50.00245,3.178158,33.41,0.01,0.34,10.77
50.00245,3.178158,33.41,-0.41,0.82,10.25
50.002187,3.178367,32.84,-0.34,1.72,7.97
50.002187,3.178367,32.84,1.38,0.51,11.8
50.001924,3.178578,32.8,-1.04,1.11,10.83
50.001924,3.178578,32.8,-2.28,2.03,9.01
50.001664,3.178793,32.82,-0.58,1.59,9.57
50.001664,3.178793,32.82,-1.3,1.36,11.88
50.001399,3.179009,32.96,-2.14,2.31,10.38
50.001399,3.179009,32.96,-1.45,1.28,7.95
50.001134,3.179223,33.08,-1.76,1.32,9.68
50.001134,3.179223,33.08,-1.23,1.16,10.03
50.000874,3.179439,33.22,0.7,1.08,11.27
50.000874,3.179439,33.22,-0.82,1.98,8.97
50.000608,3.179661,33.26,-2.38,1.34,7.41
50.000608,3.179661,33.26,-2.56,2.03,10.56
50.000345,3.179888,33.38,-1.08,1.0,8.22
50.000345,3.179888,33.38,0.7,0.97,10.26
50.000086,3.180109,33.49,-1.06,0.98,7.85
50.000086,3.180109,33.49,-1.76,2.44,10.62
49.999824,3.180334,33.54,-0.53,1.27,10.5
49.999824,3.180334,33.54,0.59,1.5,11.28
49.99956,3.180558,33.53,-0.32,1.13,10.15
49.999299,3.180783,33.55,0.48,1.23,12.51
49.999299,3.180783,33.55,-0.1,0.08,7.7
49.999032,3.181005,33.5,-1.75,2.12,11.41
49.999032,3.181005,33.5,0.29,1.39,10.45
49.998764,3.181229,33.47,2.13,2.34,10.3
49.998764,3.181229,33.47,0.92,0.34,12.31
49.998492,3.181443,33.44,0.79,1.28,11.1
49.998492,3.181443,33.44,-0.27,0.9,9.51
49.998223,3.181666,33.61,-1.87,2.04,11.34
49.998223,3.181666,33.61,-0.6,2.56,10.49
49.997962,3.181889,33.65,0.58,1.6,12.18
49.997962,3.181889,33.65,-0.99,1.67,9.38
49.997695,3.182116,33.7,-0.66,1.31,9.88
49.997695,3.182116,33.7,-0.68,1.53,8.07
49.997427,3.182343,33.76,-1.2,1.05,10.77
49.997427,3.182343,33.76,-0.41,0.52,9.11
49.997159,3.182566,33.72,-1.4,2.46,5.87
49.997159,3.182566,33.72,0.33,2.64,8.94
49.99689,3.182786,33.73,-1.67,1.99,10.04
49.99689,3.182786,33.73,0.33,1.63,10.32
49.996617,3.182995,33.73,-0.56,1.16,9.76
49.996617,3.182995,33.73,-0.81,1.41,10.2
49.996343,3.183207,33.73,-0.4,0.47,9.77
49.996343,3.183207,33.73,-0.11,1.41,10.12
49.996071,3.183417,33.73,-0.92,1.44,6.48
49.996071,3.183417,33.73,-0.45,2.16,11.41
49.995796,3.183625,33.71,0.27,1.46,11.02
49.995796,3.183625,33.71,-1.23,1.74,9.86
49.995526,3.183838,33.74,-1.62,1.99,10.41
49.995526,3.183838,33.74,-0.64,1.72,8.56
49.995254,3.184054,33.69,0.64,2.21,10.87
49.995254,3.184054,33.69,-0.52,1.03,8.42
49.994983,3.184265,33.66,-1.19,2.21,8.94
49.994983,3.184265,33.66,0.43,2.08,11.77
49.994704,3.184459,33.7,0.2,2.14,9.92
49.994704,3.184459,33.7,-0.86,1.86,11.3
49.994435,3.18466,33.74,-0.44,0.85,7.22
49.994435,3.18466,33.74,0.62,1.84,10.1
49.994162,3.184863,33.83,-0.84,1.12,8.64
49.994162,3.184863,33.83,0.83,1.32,9.45
49.993888,3.18507,33.87,1.91,1.53,10.51
49.993888,3.18507,33.87,0.6,0.01,9.4
49.993613,3.18527,33.92,0.54,2.64,10.99
49.993333,3.185471,33.97,-1.71,1.09,8.97
49.993333,3.185471,33.97,0.47,0.95,9.68
49.993047,3.185658,34.02,-0.41,2.97,11.03
49.993047,3.185658,34.02,-1.38,0.88,7.77
49.992763,3.185844,34.1,0.11,1.05,9.96
49.992763,3.185844,34.1,-0.86,2.73,8.61
49.992484,3.186037,34.2,0.56,0.49,10.75
49.992484,3.186037,34.2,-1.02,1.19,8.97
49.992204,3.186227,34.25,0.36,2.51,10.29
49.992204,3.186227,34.25,1.9,2.04,9.34
49.991919,3.186413,34.24,0.46,1.58,9.18
49.991919,3.186413,34.24,-0.84,1.28,10.07
49.991636,3.186602,34.43,-1.23,2.51,9.96
49.991636,3.186602,34.43,-0.21,1.93,11.48
49.991344,3.186785,34.5,0.69,1.78,9.36
49.991344,3.186785,34.5,-0.83,0.5,10.18
49.991049,3.18696,34.79,-0.95,0.68,10.02
49.991049,3.18696,34.79,-1.19,0.27,9.25
49.990749,3.187123,34.95,-0.88,3.04,10.22
49.990749,3.187123,34.95,-0.82,3.6,9.71
49.990452,3.187278,34.97,1.09,2.4,11.31
49.990452,3.187278,34.97,-2.01,2.7,8.21
49.990155,3.187437,35.08,-2.47,2.54,9.28
49.990155,3.187437,35.08,-0.5,2.69,10.44
49.989855,3.187601,35.03,0.29,1.3,9.79
49.989855,3.187601,35.03,0.51,0.92,10.54
49.989547,3.187752,34.97,-0.01,0.99,9.24
49.989547,3.187752,34.97,1.34,1.18,11.31
49.989249,3.18791,34.37,1.85,1.17,10.52
49.989249,3.18791,34.37,-0.07,2.86,10.19
49.988961,3.188054,34.32,-1.05,2.42,9.84
49.988961,3.188054,34.32,-0.41,1.2,9.54
49.988665,3.188195,34.4,-0.96,0.85,9.87
49.988665,3.188195,34.4,0.07,2.09,8.9
49.988367,3.188339,34.49,0.02,2.92,10.47
49.988367,3.188339,34.49,1.3,0.84,8.83
49.988067,3.188479,34.55,0.86,1.55,9.17
49.988067,3.188479,34.55,-0.13,0.98,9.14
49.98777,3.188625,34.51,0.04,2.95,9.63
49.98777,3.188625,34.51,-1.3,2.59,9.56
49.987472,3.188746,34.26,0.98,1.51,10.84
49.987472,3.188746,34.26,0.36,1.58,10.36
49.987176,3.18887,34.13,-0.95,2.22,9.18
49.986885,3.189003,33.84,-0.48,0.9,9.6
49.986885,3.189003,33.84,-1.08,1.28,9.96
49.986606,3.18914,32.97,-1.4,0.27,9.77
49.986606,3.18914,32.97,0.1,1.07,9.77
49.986332,3.189267,32.04,0.48,0.33,9.64
49.986332,3.189267,32.04,0.58,-0.07,10.15
49.986065,3.189396,31.13,0.58,1.2,9.25
49.986065,3.189396,31.13,-0.84,0.56,10.58
49.985803,3.189505,30.34,-0.94,0.23,9.66
49.985803,3.189505,30.34,0.16,1.13,10.79
49.985544,3.189598,29.8,-1.14,1.55,10.25
49.985544,3.189598,29.8,-0.34,0.19,10.06
49.98528,3.189696,29.45,-0.85,1.54,9.05
49.98528,3.189696,29.45,-2.07,2.57,9.3
49.985024,3.189792,29.74,-1.7,1.73,10.14
49.985024,3.189792,29.74,-1.27,2.01,10.22
49.984766,3.189889,30.12,-0.22,1.99,9.58
49.984766,3.189889,30.12,-1.0,1.58,9.52
49.984502,3.190008,30.35,0.14,0.92,11.84
49.984502,3.190008,30.35,-0.23,2.48,9.53
49.98424,3.19012,30.69,-0.41,1.49,11.63
49.98424,3.19012,30.69,-0.01,1.8,9.05
49.98397,3.190229,30.92,0.79,1.87,10.16
49.98397,3.190229,30.92,-0.08,2.22,9.09
49.983697,3.190327,31.17,-1.43,1.82,10.22
49.983697,3.190327,31.17,-0.38,2.12,12.14
49.983417,3.190405,31.55,-0.01,1.42,8.9
49.983417,3.190405,31.55,-0.97,2.23,9.21
49.983137,3.190477,31.78,-1.27,1.38,9.92
49.983137,3.190477,31.78,-0.35,1.36,9.98
49.982861,3.190561,31.74,0.19,2.04,9.84
49.982861,3.190561,31.74,0.6,1.04,9.99
49.982575,3.190653,32.1,0.6,1.84,11.36
49.982575,3.190653,32.1,0.37,1.08,10.99
49.982289,3.190737,32.33,-2.46,2.05,8.98
49.982289,3.190737,32.33,0.35,2.65,9.75
49.98201,3.190823,32.62,0.59,1.7,10.2
49.98201,3.190823,32.62,-0.92,1.82,11.8
49.981722,3.190905,32.88,-1.65,2.83,9.56
49.981722,3.190905,32.88,-0.29,1.42,8.89
49.981434,3.190994,33.05,-0.94,1.82,9.94
49.981144,3.191089,33.12,-0.61,0.97,9.39
49.981144,3.191089,33.12,0.22,1.74,9.65
49.980853,3.191185,33.33,0.09,2.73,10.12
49.980853,3.191185,33.33,0.34,0.07,8.98
49.980558,3.191284,33.45,-0.77,1.19,10.07
49.980558,3.191284,33.45,-0.67,0.13,9.46
49.980264,3.191376,33.55,0.23,1.56,10.8
49.980264,3.191376,33.55,-1.84,0.78,8.86
49.979971,3.19147,33.62,-0.92,2.74,9.54
49.979971,3.19147,33.62,0.34,0.17,9.03
49.979674,3.191573,33.73,-0.39,2.66,8.71
49.979674,3.191573,33.73,0.33,0.91,10.34
49.979377,3.191679,33.84,-0.73,0.26,9.06
49.979377,3.191679,33.84,-0.47,1.42,10.51
49.979074,3.191785,34.06,0.1,1.4,9.66
49.979074,3.191785,34.06,-1.1,0.55,9.88
49.978776,3.191884,34.2,-1.1,1.77,8.8
49.978776,3.191884,34.2,1.21,-0.04,10.95
49.978481,3.191979,33.67,-0.47,1.84,9.73
49.978481,3.191979,33.67,-0.68,0.77,10.76
49.978188,3.192073,33.24,-1.39,2.33,8.82
49.978188,3.192073,33.24,-0.41,1.34,9.38
49.9779,3.192168,33.27,-0.77,2.96,9.06
49.9779,3.192168,33.27,0.6,1.3,11.08
49.977609,3.192262,33.36,-2.44,1.64,10.58
49.977609,3.192262,33.36,-1.18,0.77,8.32
49.977316,3.192356,33.33,-1.54,1.24,9.64
49.977316,3.192356,33.33,1.02,1.43,10.07
49.977023,3.192458,33.45,-0.63,0.91,11.72
49.977023,3.192458,33.45,-1.57,0.03,7.19
49.976731,3.192556,33.68,-1.38,3.01,9.27
49.976731,3.192556,33.68,-1.58,0.4,7.82
49.976433,3.192657,33.95,0.23,0.97,11.2
49.976433,3.192657,33.95,-2.17,2.47,9.47
49.976132,3.192757,34.16,-1.18,0.34,9.74
49.976132,3.192757,34.16,0.37,0.65,9.36
49.975829,3.19286,34.29,-1.15,2.77,10.0
49.975527,3.192965,34.26,1.12,0.44,10.12
49.975527,3.192965,34.26,-0.53,0.92,10.92
49.975228,3.193065,33.81,-1.5,0.55,8.16
49.975228,3.193065,33.81,-1.15,0.97,9.42
49.974928,3.19316,33.73,-0.59,2.63,10.15
49.974928,3.19316,33.73,0.11,0.66,10.52
49.974627,3.193262,33.7,-1.78,1.81,8.61
49.974627,3.193262,33.7,0.0,0.88,10.44
49.974331,3.193363,33.75,-2.3,2.4,7.73
49.974331,3.193363,33.75,1.7,1.04,11.05
49.974038,3.19346,33.75,-0.56,0.02,8.69
49.974038,3.19346,33.75,-0.01,0.65,9.28
49.973746,3.193557,33.9,-1.24,0.87,9.8
49.973746,3.193557,33.9,-0.11,1.0,10.01
49.973452,3.193657,34.0,0.86,1.36,11.94
49.973452,3.193657,34.0,-1.34,0.67,8.81
49.973157,3.193766,34.11,-0.5,2.11,10.16
49.973157,3.193766,34.11,0.22,1.52,10.87
49.972855,3.193871,34.29,-0.83,0.59,9.97
49.972855,3.193871,34.29,-1.75,0.43,8.81
49.972554,3.193982,34.45,-0.52,1.58,9.62
49.972554,3.193982,34.45,-1.96,1.38,10.97
49.972254,3.194096,34.73,-0.81,1.22,8.57
49.972254,3.194096,34.73,-1.58,1.52,9.31
49.97195,3.1942,34.84,-1.9,0.97,10.56
49.97195,3.1942,34.84,0.01,1.37,10.79
49.971647,3.194307,34.99,-0.97,0.84,8.03
49.971647,3.194307,34.99,-2.13,1.22,7.32
49.971342,3.194426,35.06,-0.66,1.99,9.28
49.971342,3.194426,35.06,-1.47,0.35,10.88
49.971036,3.19455,35.04,-0.25,0.73,12.36
49.971036,3.19455,35.04,-1.12,0.56,9.4
49.97073,3.194681,34.94,-0.66,0.43,8.35
49.97073,3.194681,34.94,-0.98,1.08,9.37
49.970428,3.194803,34.93,-1.83,1.87,7.21
49.970428,3.194803,34.93,-1.05,2.15,10.16
49.970124,3.194924,34.78,-2.15,2.61,9.01
49.970124,3.194924,34.78,0.15,1.58,10.08
49.969822,3.195041,34.6,-0.04,0.63,8.47
49.969822,3.195041,34.6,-2.0,1.72,10.26
49.969524,3.19516,34.52,-1.07,1.94,7.72
49.969524,3.19516,34.52,-1.75,1.81,10.08
49.969223,3.195289,34.27,-0.31,0.86,10.98
49.968924,3.195422,33.97,-0.19,2.13,9.96
49.968924,3.195422,33.97,-0.37,2.24,9.85
49.968633,3.195548,33.92,-1.31,1.25,10.28
49.968633,3.195548,33.92,-0.67,2.1,9.18
49.968338,3.19568,33.85,0.79,1.27,12.21
49.968338,3.19568,33.85,-1.87,1.16,8.42
49.968045,3.195811,33.82,-0.08,1.27,10.88
49.968045,3.195811,33.82,-1.59,1.1,9.59
49.967749,3.195947,33.85,-1.23,2.29,8.86
49.967749,3.195947,33.85,0.3,0.46,9.53
49.967453,3.196085,33.87,0.02,0.38,10.55
49.967453,3.196085,33.87,-1.08,2.23,9.96
49.967164,3.196219,33.8,-0.1,1.17,10.51
49.967164,3.196219,33.8,-1.04,2.49,9.17
49.966875,3.196354,33.87,-0.26,1.26,12.86
49.966875,3.196354,33.87,-0.75,2.11,9.78
49.966583,3.196493,33.88,-2.1,1.69,10.17
49.966583,3.196493,33.88,1.69,0.98,10.42
49.966287,3.196645,33.81,-2.72,2.45,9.57
49.966287,3.196645,33.81,1.97,1.46,11.49
49.965997,3.196786,33.79,-0.72,0.78,7.78
49.965997,3.196786,33.79,0.25,1.68,10.09
49.965708,3.196936,33.7,-1.81,1.3,9.35
49.965708,3.196936,33.7,-1.1,2.94,9.05
49.965419,3.197085,33.67,-1.8,0.58,7.37
49.965419,3.197085,33.67,-2.16,2.54,10.31
49.96513,3.197235,33.57,-0.14,1.34,7.55
49.96513,3.197235,33.57,0.17,1.42,11.75
49.964845,3.197384,33.55,0.13,1.21,9.9
49.964845,3.197384,33.55,0.43,1.84,9.42
49.964558,3.197537,33.49,0.41,0.87,12.07
49.964558,3.197537,33.49,-0.14,0.57,9.41
49.964274,3.197695,33.34,-0.59,1.11,9.04
49.964274,3.197695,33.34,-1.23,2.33,10.43
49.963986,3.19785,33.39,-0.33,0.73,10.24
49.963986,3.19785,33.39,-2.09,2.17,11.23
49.963702,3.198001,33.43,-0.87,0.69,8.47
49.963702,3.198001,33.43,-1.22,2.44,10.51
49.963416,3.198157,33.56,-0.69,0.69,10.5
49.963416,3.198157,33.56,-2.41,2.17,10.07
49.963138,3.198322,33.55,0.04,1.42,9.29
49.962858,3.198497,33.61,-2.72,2.5,11.12
49.962858,3.198497,33.61,-0.36,1.08,8.08
49.962575,3.198664,32.82,-0.62,1.75,10.24
49.962575,3.198664,32.82,-0.06,1.2,8.64
49.962297,3.19883,33.93,-0.88,0.66,8.53
49.962297,3.19883,33.93,-0.98,1.78,9.8
49.962014,3.19901,34.06,0.86,0.7,9.75
49.962014,3.19901,34.06,-1.06,0.65,9.32
49.961728,3.199192,34.37,0.2,0.73,11.5
49.961728,3.199192,34.37,0.53,1.68,10.58
49.961444,3.199376,34.47,1.81,1.23,11.46
49.961444,3.199376,34.47,-0.02,0.19,7.3
49.961152,3.199551,34.51,-1.23,0.81,8.6
49.961152,3.199551,34.51,0.18,2.61,10.65
49.960865,3.199733,34.53,-1.92,2.54,8.47
49.960865,3.199733,34.53,-1.74,2.63,9.17
49.960585,3.199916,34.56,0.68,0.32,11.44
49.960585,3.199916,34.56,-1.38,0.46,7.53
49.960304,3.200112,34.24,0.19,0.39,9.83
49.960304,3.200112,34.24,0.75,0.42,10.14
49.960026,3.200307,33.84,-1.06,0.64,10.09
49.960026,3.200307,33.84,-0.86,1.98,9.16
49.959753,3.200489,33.5,-1.58,0.9,9.05
49.959753,3.200489,33.5,-2.42,2.55,8.55
49.959479,3.200666,33.37,-0.36,1.03,6.47
49.959479,3.200666,33.37,1.21,0.78,8.9
49.959203,3.200847,33.29,-0.74,1.56,9.22
49.959203,3.200847,33.29,1.46,0.84,11.11
49.958919,3.201033,33.22,-0.24,1.34,9.64
49.958919,3.201033,33.22,0.23,0.34,9.16
49.958639,3.201215,33.18,-1.02,2.74,8.84
49.958639,3.201215,33.18,-0.01,0.68,9.03
49.958361,3.201391,33.14,-1.73,2.11,10.39
49.958361,3.201391,33.14,-1.27,3.11,10.45
49.958082,3.201566,33.12,-1.2,2.07,7.65
49.958082,3.201566,33.12,-1.3,2.94,9.51
49.957806,3.201746,33.18,-0.27,1.47,10.32
49.957806,3.201746,33.18,-0.08,1.73,10.76
49.957532,3.201923,33.24,-1.15,1.09,8.49
49.957532,3.201923,33.24,-0.91,1.94,8.31
49.957256,3.202106,33.34,0.25,1.76,10.31
49.956981,3.202288,33.52,0.26,0.96,10.74
49.956981,3.202288,33.52,-1.86,2.81,9.83
49.956705,3.202471,33.54,1.63,1.62,9.94
49.956705,3.202471,33.54,-1.02,1.81,10.4
49.956423,3.202659,33.7,-1.36,1.02,8.64
49.956423,3.202659,33.7,-0.17,2.14,9.86
49.95614,3.202843,33.83,-1.34,2.08,9.52
49.95614,3.202843,33.83,0.01,0.98,8.57
49.955858,3.203026,33.86,-0.42,3.11,11.04
49.955858,3.203026,33.86,0.57,0.52,9.89
49.95558,3.203207,33.91,-0.58,2.93,10.09
49.95558,3.203207,33.91,-0.57,1.18,10.13
49.955303,3.203386,33.88,-1.71,1.44,9.59
49.955303,3.203386,33.88,-0.33,1.26,8.89
49.955024,3.203569,33.92,1.35,1.09,9.75
49.955024,3.203569,33.92,-0.21,0.31,8.72
49.954745,3.203749,33.93,-0.34,1.95,10.24
49.954745,3.203749,33.93,-1.83,0.92,9.31
49.954466,3.203934,33.87,-0.78,1.56,8.94
49.954466,3.203934,33.87,-2.17,2.27,9.97
49.954184,3.204123,33.83,0.91,0.82,11.12
49.954184,3.204123,33.83,-1.75,2.23,9.17
49.953903,3.204306,33.81,0.93,1.2,12.08
49.953903,3.204306,33.81,-1.43,1.11,8.45
49.953626,3.204486,33.84,0.93,1.13,11.82
49.953626,3.204486,33.84,-1.85,0.67,8.68
49.953346,3.204666,33.83,-0.11,3.24,10.86
49.953346,3.204666,33.83,-0.55,0.94,8.74
49.953069,3.204847,33.78,0.61,1.43,9.93
49.953069,3.204847,33.78,-2.53,2.38,9.96
49.952788,3.205034,33.84,0.01,1.2,11.0
49.952788,3.205034,33.84,-2.23,1.81,11.19
49.952507,3.20522,33.81,0.86,1.27,9.57
49.952507,3.20522,33.81,-0.27,-0.36,10.26
49.952231,3.205404,33.8,0.26,1.68,12.75
49.952231,3.205404,33.8,-0.72,0.1,8.71
49.95195,3.205587,33.76,-1.41,3.12,11.04
49.95195,3.205587,33.76,-0.11,1.0,9.9
49.951674,3.205769,33.71,-0.74,2.6,8.19
49.951392,3.205952,33.68,1.3,1.43,11.5
49.951392,3.205952,33.68,-0.7,2.43,10.08
49.951114,3.206134,33.66,0.24,1.5,9.69
49.951114,3.206134,33.66,-0.91,1.78,10.69
49.950837,3.206316,33.65,1.3,0.99,10.81
49.950837,3.206316,33.65,0.45,0.89,10.36
49.950562,3.206497,33.65,0.69,1.04,10.1
49.950562,3.206497,33.65,0.99,1.11,10.71
49.950283,3.206686,33.68,-1.14,0.98,9.5
49.950283,3.206686,33.68,0.61,2.28,10.78
49.950002,3.206868,33.73,-1.75,2.43,9.61
49.950002,3.206868,33.73,0.66,1.36,10.38
49.949722,3.207046,33.68,-0.19,1.71,12.29
49.949722,3.207046,33.68,-0.34,1.49,9.31
49.949444,3.207225,33.73,0.44,2.6,10.75
49.949444,3.207225,33.73,-0.11,1.02,7.97
49.949162,3.207411,33.81,0.03,0.85,8.84
49.949162,3.207411,33.81,-1.18,2.1,7.96
49.948881,3.207594,33.91,1.16,1.61,11.39
49.948881,3.207594,33.91,-1.0,2.84,9.6
49.948602,3.207779,34.04,-1.61,1.47,9.03
49.948602,3.207779,34.04,1.19,1.15,11.86
49.94832,3.207961,34.15,-0.37,2.15,9.45
49.94832,3.207961,34.15,-2.21,2.65,10.52
49.94804,3.208148,34.2,1.0,1.26,9.96
49.94804,3.208148,34.2,0.47,1.19,9.58
49.947749,3.20833,34.3,-1.84,3.1,8.16
49.947749,3.20833,34.3,-1.1,1.77,10.4
49.947462,3.208516,34.4,0.65,1.43,11.52
49.947462,3.208516,34.4,-0.68,0.33,10.18
49.947176,3.208702,34.54,0.84,1.45,11.28
49.947176,3.208702,34.54,-0.04,1.41,10.68
49.946889,3.20889,34.71,-0.47,0.17,10.54
49.946889,3.20889,34.71,0.45,0.25,11.6
49.9466,3.209082,34.43,-1.18,0.26,10.07
49.9466,3.209082,34.43,-1.71,2.25,9.77
49.946318,3.209269,34.0,1.3,0.97,10.21
49.946318,3.209269,34.0,-1.34,0.86,9.92
49.946047,3.209442,33.4,-1.86,1.04,11.75
49.946047,3.209442,33.4,-0.4,1.19,8.45
49.945765,3.209625,33.81,1.02,1.02,12.18
49.945488,3.209816,34.07,-1.02,1.22,9.9
49.945488,3.209816,34.07,0.84,1.46,11.8
49.945207,3.210011,34.32,-1.27,-0.03,9.31
49.945207,3.210011,34.32,-1.45,1.69,10.72
49.94493,3.210206,34.4,0.7,1.46,11.16
49.94493,3.210206,34.4,0.71,1.77,9.62
49.944652,3.210406,34.46,-0.67,1.39,11.6
49.944652,3.210406,34.46,-0.67,2.74,7.8
49.944373,3.210611,34.62,-1.92,1.99,9.82
49.944373,3.210611,34.62,-2.68,1.88,9.73
49.944097,3.21081,34.68,-0.72,1.04,8.68
49.944097,3.21081,34.68,-0.38,1.09,9.49
49.943816,3.211014,34.66,-0.17,1.84,10.57
49.943816,3.211014,34.66,-0.89,2.19,8.15
49.94354,3.211224,34.63,-1.42,2.39,11.16
49.94354,3.211224,34.63,-2.42,1.82,10.37
49.943259,3.211434,34.59,-0.91,0.95,9.28
49.943259,3.211434,34.59,-0.77,0.22,10.49
49.942982,3.211642,34.22,-1.02,0.79,7.83
49.942982,3.211642,34.22,-0.45,2.01,10.94
49.942709,3.211853,33.79,0.23,1.14,9.09
49.942709,3.211853,33.79,-0.04,0.51,10.96
49.942442,3.212061,33.62,-1.57,0.93,8.85
49.942442,3.212061,33.62,-1.47,1.19,8.75
49.942169,3.212262,33.54,-0.85,0.09,8.25
49.942169,3.212262,33.54,-2.78,1.98,10.33
49.941892,3.212468,33.5,0.79,0.91,9.3
49.941892,3.212468,33.5,-0.58,1.01,11.13
49.941626,3.212681,33.37,-1.31,1.98,8.31
49.941626,3.212681,33.37,-1.07,1.49,10.93
49.941356,3.212885,33.21,0.86,1.57,11.04
49.941356,3.212885,33.21,0.59,1.46,8.3
49.94109,3.2131,33.11,-0.97,0.89,11.19
49.94109,3.2131,33.11,-0.21,1.07,9.77
49.940824,3.213315,33.02,0.53,0.62,7.2
49.940824,3.213315,33.02,0.04,2.13,10.34
49.940563,3.21353,32.98,-0.35,1.36,8.6
49.940563,3.21353,32.98,-1.48,1.59,8.35
49.940304,3.213747,32.91,-1.31,0.9,10.2
49.940041,3.213953,32.85,-1.31,1.45,9.16
49.940041,3.213953,32.85,-0.94,0.62,9.18
49.939779,3.214158,32.75,-0.29,0.52,12.02
49.939779,3.214158,32.75,0.23,1.09,12.61
49.93952,3.214379,32.64,0.04,2.42,11.3
49.93952,3.214379,32.64,-0.45,0.75,9.28
49.939262,3.214612,32.63,-1.8,0.57,9.28
49.939262,3.214612,32.63,0.16,1.14,12.21
49.939007,3.214838,32.59,-0.92,2.23,11.31
49.939007,3.214838,32.59,-1.47,1.53,10.6
49.938755,3.215061,32.51,-0.8,1.57,10.0
49.938755,3.215061,32.51,-2.44,0.79,9.18
49.938507,3.21529,32.42,-1.15,0.34,9.29
49.938507,3.21529,32.42,-1.62,1.2,12.45
49.93826,3.215515,32.32,-1.85,1.58,10.66
49.93826,3.215515,32.32,-0.01,1.27,9.81
49.938014,3.215741,32.33,0.38,1.47,10.05
49.938014,3.215741,32.33,-0.87,1.0,9.64
49.93776,3.215971,32.41,0.37,0.87,11.01
49.93776,3.215971,32.41,-0.22,0.88,11.09
49.937509,3.216204,32.47,-0.84,2.36,11.31
49.937509,3.216204,32.47,-0.96,1.88,8.97
49.937258,3.216435,32.54,-0.33,2.51,10.93
49.937258,3.216435,32.54,-0.35,1.15,9.77
49.937005,3.216668,32.6,0.52,0.69,10.93
49.937005,3.216668,32.6,-1.43,1.92,10.77
49.936749,3.216908,32.61,0.13,1.72,10.29
49.936749,3.216908,32.61,0.37,1.14,10.2
49.936499,3.217145,32.72,0.32,1.25,10.29
49.936499,3.217145,32.72,-0.5,1.37,11.05
49.936247,3.21738,32.77,-0.91,1.59,9.64
49.936247,3.21738,32.77,0.68,0.55,9.33
49.935997,3.217625,32.89,-1.13,2.39,10.3
49.935997,3.217625,32.89,-1.31,2.27,9.86
49.935746,3.217876,33.07,0.28,0.98,11.16
49.935746,3.217876,33.07,-0.68,2.57,9.85
49.935493,3.21813,33.16,-0.89,0.62,6.24
49.935493,3.21813,33.16,-0.95,1.24,12.27
49.935244,3.218382,33.29,-1.09,1.44,7.96
49.935244,3.218382,33.29,-0.51,0.84,10.26
49.934996,3.218635,33.31,0.61,1.31,8.65
49.93475,3.218887,33.4,1.42,0.92,12.28
49.93475,3.218887,33.4,-1.87,1.93,10.85
49.9345,3.219137,33.44,-0.01,1.88,7.59
49.9345,3.219137,33.44,0.76,0.76,9.23
49.934244,3.219391,33.53,-0.85,1.12,9.15
49.934244,3.219391,33.53,-0.61,3.19,10.25
49.933981,3.21965,33.62,0.69,0.86,8.15
49.933981,3.21965,33.62,-1.07,2.99,11.41
49.93372,3.219907,33.7,0.92,1.07,9.23
49.93372,3.219907,33.7,-0.61,1.87,10.56
49.933461,3.220156,33.68,-0.84,0.84,9.57
49.933461,3.220156,33.68,0.55,1.06,8.81
49.933205,3.220397,33.73,-1.81,2.66,10.96
49.933205,3.220397,33.73,0.13,0.76,10.0
49.932952,3.220639,33.81,-1.29,2.35,10.64
49.932952,3.220639,33.81,1.49,1.1,9.48
49.932688,3.220875,33.83,-2.16,2.76,8.2
49.932688,3.220875,33.83,1.32,0.96,10.17
49.932424,3.221112,33.83,-1.91,1.3,8.62
49.932424,3.221112,33.83,0.68,0.08,9.57
49.932163,3.221352,33.82,-1.51,0.48,10.5
49.932163,3.221352,33.82,-0.71,1.76,9.98
49.931905,3.221588,33.85,-0.36,1.75,10.24
49.931905,3.221588,33.85,-0.5,1.83,8.68
49.931641,3.221819,33.86,-0.92,1.52,10.58
49.931641,3.221819,33.86,0.59,0.98,7.92
49.931372,3.222054,33.88,-0.66,2.64,8.78
49.931372,3.222054,33.88,-0.06,0.93,12.04
49.931102,3.222292,33.88,-1.31,0.23,8.03
49.931102,3.222292,33.88,-0.37,1.43,10.35
49.930834,3.222514,33.93,-1.51,0.97,8.46
49.930834,3.222514,33.93,0.23,1.63,10.76
49.93057,3.222734,33.89,-1.66,2.02,8.03
49.93057,3.222734,33.89,-0.63,1.25,8.83
49.930305,3.222953,33.81,-0.82,2.8,10.05
49.930305,3.222953,33.81,1.77,0.78,10.64
49.930047,3.223182,33.86,-0.93,2.78,10.0
49.930047,3.223182,33.86,1.24,0.78,9.37
49.929781,3.223399,33.76,0.26,0.28,9.39
49.929781,3.223399,33.76,-0.23,1.03,12.07
49.929515,3.223622,33.8,-2.0,1.11,9.04
49.929246,3.223841,33.79,-1.27,1.81,10.31
49.929246,3.223841,33.79,-1.14,0.55,9.22
49.928979,3.224053,33.75,0.23,2.37,9.99
49.928979,3.224053,33.75,0.51,1.46,8.62
49.928712,3.224269,33.96,-0.05,0.5,9.07
49.928712,3.224269,33.96,-1.13,2.96,9.95
49.928437,3.224487,34.17,-1.36,0.81,9.25
49.928437,3.224487,34.17,1.05,0.45,12.1
49.928164,3.224701,34.34,0.23,2.5,10.32
49.928164,3.224701,34.34,1.51,1.4,11.19
49.927888,3.224916,34.27,-0.96,0.29,8.07
49.927888,3.224916,34.27,-1.1,0.34,8.94
49.92761,3.22513,34.35,-2.37,2.58,8.0
49.92761,3.22513,34.35,-0.6,0.96,9.95
49.927331,3.225341,34.56,-0.12,0.78,11.39
49.927331,3.225341,34.56,1.34,1.3,11.48
49.927051,3.225554,34.57,-0.17,2.14,9.89
49.927051,3.225554,34.57,-1.29,2.28,10.01
49.926767,3.225764,34.47,-2.32,3.2,12.29
49.926767,3.225764,34.47,-0.23,1.61,7.75
49.926482,3.225975,34.53,0.05,0.03,8.42
49.926482,3.225975,34.53,-1.59,0.65,9.4
49.926201,3.226182,34.53,-0.53,0.67,11.03
49.926201,3.226182,34.53,-1.6,1.87,9.07
49.925923,3.226389,34.48,0.79,-0.34,4.38
49.925923,3.226389,34.48,0.85,0.77,9.65
49.925649,3.226607,34.43,-0.23,2.57,11.55
49.925649,3.226607,34.43,-1.61,2.28,9.33
49.925375,3.226817,34.36,-1.69,1.6,9.21
49.925375,3.226817,34.36,-0.06,0.21,11.02
49.925098,3.227033,34.31,0.74,1.27,9.98
49.925098,3.227033,34.31,0.39,2.28,9.85
49.924825,3.227245,34.33,-1.67,0.5,8.67
49.924825,3.227245,34.33,-0.73,0.23,10.65
49.924549,3.227459,34.31,-0.1,0.9,11.13
49.924549,3.227459,34.31,0.35,1.38,10.94
49.924271,3.227678,34.3,1.13,0.58,10.27
49.924271,3.227678,34.3,-1.45,-0.3,8.66
49.923999,3.227895,34.23,-1.03,0.29,10.64
49.923999,3.227895,34.23,0.69,0.16,10.66
49.923731,3.228111,34.11,-1.74,0.63,9.88
49.923467,3.228332,33.62,-0.37,-0.48,9.42
49.923467,3.228332,33.62,-2.21,0.95,10.67
49.923205,3.228552,33.07,0.05,-0.24,10.92
49.923205,3.228552,33.07,-0.64,0.3,8.39
49.922944,3.228765,32.7,-0.34,0.85,9.76
49.922944,3.228765,32.7,-0.3,1.33,9.57
49.922683,3.228985,32.71,1.2,1.17,10.58
49.922683,3.228985,32.71,-1.77,1.47,10.06
49.922424,3.229197,32.68,-0.04,1.42,10.0
49.922424,3.229197,32.68,-0.73,1.48,10.13
49.922156,3.229415,32.78,1.78,1.41,11.92
49.922156,3.229415,32.78,-1.6,1.99,9.6
49.921889,3.229635,32.88,-1.14,1.29,8.92
49.921889,3.229635,32.88,-1.09,1.27,8.92
49.921627,3.229847,32.93,-1.96,1.59,9.98
49.921627,3.229847,32.93,-1.37,2.05,9.1
49.921364,3.230073,32.95,-1.29,1.37,9.36
49.921364,3.230073,32.95,-0.13,1.02,10.28
49.921104,3.230308,33.02,-0.28,2.05,10.15
49.921104,3.230308,33.02,-1.91,1.36,8.09
49.920844,3.230538,33.0,-1.75,1.53,10.58
49.920844,3.230538,33.0,-1.47,1.29,11.64
49.920583,3.230769,33.19,-1.67,0.72,9.91
49.920583,3.230769,33.19,-2.62,1.24,8.14
49.920322,3.230999,33.16,-0.73,0.13,8.85
49.920322,3.230999,33.16,-1.04,2.09,10.07
49.920062,3.23123,33.19,-0.15,0.1,9.33
49.920062,3.23123,33.19,-0.08,0.57,10.84
49.919808,3.231455,33.14,0.21,0.31,8.84
49.919808,3.231455,33.14,0.35,0.39,10.61
49.919549,3.231692,33.12,-0.83,1.56,11.93
49.919549,3.231692,33.12,0.27,0.77,9.37
49.919292,3.231936,33.17,-1.42,1.13,12.51
49.919292,3.231936,33.17,-0.84,1.04,7.67
49.919033,3.232176,33.21,-0.14,1.62,10.82
49.919033,3.232176,33.21,-0.81,1.42,9.25
49.918774,3.232414,33.3,-0.09,0.66,8.62
49.918774,3.232414,33.3,-0.8,1.11,11.06
49.918514,3.232657,33.44,-0.42,1.81,8.53
49.918514,3.232657,33.44,0.7,1.34,11.26
49.918258,3.232902,33.57,-0.74,0.54,8.05
49.917998,3.23315,33.68,0.46,1.34,11.8
49.917998,3.23315,33.68,-0.59,0.98,9.38
49.917738,3.233397,33.77,-1.71,2.28,8.89
49.917738,3.233397,33.77,-1.91,1.35,8.25
49.91748,3.233645,33.85,-1.85,2.34,9.57
49.91748,3.233645,33.85,-0.45,1.47,12.79
49.917222,3.233894,33.89,0.22,1.02,9.52
49.917222,3.233894,33.89,-1.38,1.52,11.68
49.916967,3.234145,34.01,-0.21,0.74,10.49
49.916967,3.234145,34.01,-1.43,1.75,8.65
49.916711,3.234401,34.19,-0.45,1.79,12.26
49.916711,3.234401,34.19,0.19,0.74,12.27
49.916455,3.234664,34.26,0.86,0.93,8.15
49.916455,3.234664,34.26,-1.08,0.61,10.77
49.916203,3.234928,33.69,0.77,0.36,10.05
49.916203,3.234928,33.69,0.0,1.84,9.02
49.915955,3.235186,33.31,0.12,1.09,8.43
49.915955,3.235186,33.31,-2.29,1.5,11.96
49.915709,3.235439,33.42,-1.92,0.68,7.88
49.915709,3.235439,33.42,-0.08,1.55,11.98
49.915456,3.235705,33.57,-0.97,0.93,8.69
49.915456,3.235705,33.57,-1.21,2.74,10.64
49.915205,3.235973,33.73,0.13,1.14,8.31
49.915205,3.235973,33.73,-1.69,2.38,10.86
49.914963,3.236247,33.93,-1.69,1.36,10.69
49.914963,3.236247,33.93,0.63,1.75,10.07
49.914723,3.236515,33.9,-0.29,2.76,10.89
49.914723,3.236515,33.9,-0.84,1.42,12.31
49.914475,3.236778,33.9,0.33,0.62,8.52
49.914475,3.236778,33.9,-0.8,0.62,11.0
49.914228,3.237044,33.81,-0.35,1.39,7.81
49.914228,3.237044,33.81,-0.63,0.68,10.32
49.91398,3.237308,33.82,-0.16,1.63,10.22
