Location-lat,Location-long,Speed,Accelerometer-X,Accelerometer-Y,Accelerometer-Z
50.716122,2.515676,10.47,-0.29,1.34,10.45
50.71608,2.515525,11.52,-0.52,-0.29,9.84
50.71608,2.515525,11.52,-0.42,0.14,10.82
50.716051,2.515353,12.55,-0.34,-0.02,8.9
50.716051,2.515353,12.55,-0.79,-0.36,11.38
50.716016,2.515169,13.86,-0.96,-0.05,7.43
50.716016,2.515169,13.86,1.32,0.51,9.73
50.715973,2.514975,14.77,-0.45,-0.04,10.32
50.715973,2.514975,14.77,0.35,-0.73,10.17
50.715936,2.514769,15.02,-0.36,0.08,9.42
50.715936,2.514769,15.02,0.03,-0.59,10.28
50.715903,2.514556,15.74,-0.11,0.32,10.74
50.715903,2.514556,15.74,-0.89,0.28,8.99
50.715876,2.514325,16.49,0.76,-0.97,7.65
50.715876,2.514325,16.49,0.32,-0.35,9.56
50.71585,2.514092,16.65,1.4,-0.29,10.51
50.71585,2.514092,16.65,0.75,-0.97,9.5
50.715822,2.513858,16.56,1.61,-0.82,10.49
50.715822,2.513858,16.56,0.44,0.2,9.69
50.715795,2.513631,15.96,0.2,0.73,9.32
50.715795,2.513631,15.96,1.09,0.34,10.27
50.715773,2.513408,15.49,1.48,0.18,11.3
50.715773,2.513408,15.49,0.11,0.1,9.63
50.715751,2.513196,14.91,1.9,-0.98,9.84
50.715751,2.513196,14.91,1.71,0.42,9.88
50.715729,2.512989,14.4,1,-0.24,9.48
50.715729,2.512989,14.4,1.36,-0.79,9.97
50.715708,2.512797,13.42,1.36,-1.22,9.71
50.715708,2.512797,13.42,1.95,-0.83,10.18
50.715689,2.512616,13,0.58,-0.94,10.03
50.715689,2.512616,13,0.88,-1.73,9.27
50.715661,2.512451,12.39,1.26,-2.1,9.88
50.715619,2.5123,12.09,0.57,-1.99,9.86
50.715619,2.5123,12.09,0.41,-0.55,9.89
50.715568,2.51215,11.54,1.87,-2.42,9.82
50.715568,2.51215,11.54,0.91,-0.99,9.28
50.715504,2.51202,11.18,2.21,-0.29,9.67
50.715504,2.51202,11.18,1.85,-0.73,9.24
50.715443,2.511904,10.32,2.63,-0.9,9.84
50.715443,2.511904,10.32,2.53,1.16,10.77
50.715386,2.511806,9.07,2.15,1.66,9.76
50.715386,2.511806,9.07,1.63,2.54,9.7
50.715344,2.511709,7.45,1.29,2.19,10.15
50.715344,2.511709,7.45,1.63,2.55,9.61
50.715325,2.511612,7.05,1.52,1.55,10.28
50.715325,2.511612,7.05,0.95,1.72,10.08
50.715341,2.511516,6.62,-0.25,0.89,10.75
50.715341,2.511516,6.62,-1.34,0.24,9.62
50.715375,2.511423,7.58,-0.68,0.92,10.06
50.715375,2.511423,7.58,-0.88,0,9.35
50.715417,2.511326,8.79,-0.97,0.08,8.25
50.715417,2.511326,8.79,-1.18,1.19,11.3
50.715471,2.511205,9.92,-0.68,0.85,9.39
50.715471,2.511205,9.92,-0.89,0.12,9.23
50.715538,2.511088,11.33,-0.03,0.54,9.73
50.715538,2.511088,11.33,-0.31,-0.77,9.46
50.71562,2.510967,12.58,-0.61,0.43,10.4
50.71562,2.510967,12.58,-0.11,-1.44,10.2
50.715714,2.510845,13.7,-1.02,-0.79,10.83
50.715714,2.510845,13.7,-0.4,0.68,11.21
50.715814,2.51072,14.59,0.71,-0.07,9.35
50.715814,2.51072,14.59,1.54,0.06,9.33
50.715916,2.510592,14.38,0.67,-0.39,9.39
50.715916,2.510592,14.38,1.05,-0.67,9.27
50.716018,2.510469,13.92,-0.41,-0.97,10.86
50.716018,2.510469,13.92,0.07,-0.89,10.03
50.716118,2.510345,14.24,0.19,-0.98,10.46
50.716118,2.510345,14.24,1.52,-0.8,10.14
50.716218,2.510225,13.92,1.39,-1.35,10.35
50.716218,2.510225,13.92,1.47,-2.71,10.06
50.716314,2.510105,13.38,1.08,-3.52,10.74
50.716314,2.510105,13.38,0.79,-3.34,10.1
50.716399,2.509978,12.82,0.7,-3.75,9.61
50.716464,2.509829,12.68,0.39,-4.42,9.89
50.716464,2.509829,12.68,1.12,-3.34,7.69
50.716499,2.509665,12.51,-0.44,-3.35,9.16
50.716499,2.509665,12.51,-0.37,-3.34,8.37
50.716499,2.509487,12.98,0.63,-3.53,7.59
50.716499,2.509487,12.98,-0.61,-1.57,9.7
50.716474,2.509293,13.48,-0.01,-0.46,8.97
50.716474,2.509293,13.48,1.49,-1.61,6.72
50.716435,2.509107,14.12,-2.22,-0.57,10.4
50.716435,2.509107,14.12,-1.81,0.74,10.7
50.716383,2.508913,14.73,-0.6,-1.19,10.7
50.716383,2.508913,14.73,-0.51,0.06,9.95
50.716329,2.508705,15.45,0.57,-1.53,9.43
50.716329,2.508705,15.45,0.48,-0.62,8.6
50.716278,2.508499,15.8,-1.4,0.29,10.92
50.716278,2.508499,15.8,-0.65,0.57,10.29
50.716225,2.508281,16.51,0.34,-0.03,8.5
50.716225,2.508281,16.51,-0.86,0.11,10.49
50.716169,2.508055,17.33,0.37,-0.17,7.45
50.716169,2.508055,17.33,-0.93,-0.93,8.65
50.716109,2.507816,18.06,-0.34,-0.24,9.07
50.716109,2.507816,18.06,1.02,-0.26,10.43
50.716048,2.507573,18.37,0.76,-0.63,9.34
50.716048,2.507573,18.37,0.33,0.17,9.84
50.71599,2.507332,18.38,-0.58,0.46,8.65
50.71599,2.507332,18.38,-0.23,-0.75,9.67
50.715931,2.507089,18.95,0.16,0,11.38
50.715931,2.507089,18.95,0.55,0.28,10.69
50.715872,2.506837,19.46,0.36,-0.27,9.3
50.715872,2.506837,19.46,0.57,-0.48,8.82
50.715809,2.50658,19.46,0.19,-0.34,11.99
50.715809,2.50658,19.46,0.96,-0.46,10.86
50.715743,2.506321,19.59,0.35,-0.57,8.28
50.715743,2.506321,19.59,0.05,-0.32,11.02
50.715677,2.506062,19.56,1.66,-1.27,9.6
50.715677,2.506062,19.56,0.3,-0.18,10.51
50.715616,2.505809,19.47,1.15,-0.18,12.74
50.715616,2.505809,19.47,0.15,-0.58,10.03
50.715554,2.505554,18.96,0.34,0.13,9.96
50.715554,2.505554,18.96,0.64,-0.8,8.92
50.715494,2.505303,19.26,1.34,-0.38,8.65
50.715494,2.505303,19.26,0.39,-0.82,10.71
50.715433,2.505048,19.06,-0.12,-0.2,11.14
50.71537,2.504789,19.12,0.54,-0.04,9.96
50.71537,2.504789,19.12,1.87,-0.26,10.69
50.71531,2.504539,18.69,-0.03,-1.15,8.77
50.71531,2.504539,18.69,2.39,-1.78,11.02
50.715252,2.504293,18.29,1.3,-0.28,9.4
50.715252,2.504293,18.29,-0.49,0.24,9.61
50.715193,2.50405,18.19,-0.7,0.54,10.19
50.715193,2.50405,18.19,1.11,-0.25,9.97
50.715136,2.503812,18.18,1.41,-0.42,9.62
50.715136,2.503812,18.18,0.75,0.22,9.49
50.715072,2.503589,17.98,1.11,0.07,9.53
50.715072,2.503589,17.98,0.44,0.4,10.46
50.715013,2.503348,18.2,0.58,-0.68,11.42
50.715013,2.503348,18.2,-0.15,0.98,9.5
50.714965,2.503089,18.53,0.43,0.86,9.78
50.714965,2.503089,18.53,0.73,-0.52,11.09
50.714924,2.502823,19.23,1.36,-0.06,9.37
50.714924,2.502823,19.23,0.71,0.57,9.16
50.71489,2.502549,19.57,0.08,1.29,10.04
50.71489,2.502549,19.57,0.69,0.63,9.69
50.714867,2.502273,19.57,1.29,0.55,8.73
50.714867,2.502273,19.57,0.39,1.45,9.83
50.714858,2.501993,19.16,-0.11,1.47,9.06
50.714858,2.501993,19.16,0.65,-0.36,9.54
50.71486,2.501723,19.64,-0.14,0.42,10.22
50.71486,2.501723,19.64,0.41,1.06,10.55
50.714878,2.501445,19.97,0.21,0.77,10.18
50.714878,2.501445,19.97,0.35,0.98,10.6
50.714907,2.501168,20.43,-0.4,0.23,10.39
50.714907,2.501168,20.43,0.1,0.81,9.23
50.714945,2.500885,20.61,0.22,-0.89,9.49
50.714945,2.500885,20.61,0.16,-0.27,10.53
50.714985,2.500603,20.54,0.57,-0.35,8.45
50.714985,2.500603,20.54,1.18,-0.73,11.27
50.715022,2.500327,19.85,0.4,0.6,9.07
50.715022,2.500327,19.85,0.85,0.71,9.44
50.715059,2.500057,19.46,-0.02,-0.69,9.63
50.715059,2.500057,19.46,0.12,0.84,9.97
50.715096,2.499789,19.21,1.47,-1.12,8.35
50.715096,2.499789,19.21,1,0.14,9.15
50.715135,2.49953,18.37,0.59,-0.52,10.2
50.715135,2.49953,18.37,0.85,-0.79,11.77
50.715168,2.499283,17.66,1.6,-1.73,10.29
50.715198,2.499047,17.03,0.1,-0.63,9.48
50.715198,2.499047,17.03,0.07,-1.54,8.33
50.715224,2.498802,17.16,-0.03,-1.71,8.62
50.715224,2.498802,17.16,0.07,-2.5,11.68
50.715242,2.498553,17.33,-0.53,-1.92,10.27
50.715242,2.498553,17.33,-0.56,-0.54,8.43
50.715246,2.498297,17.82,0.13,-0.45,11.05
50.715246,2.498297,17.82,0.16,-1.99,9.03
50.715243,2.498037,18.1,-0.26,-0.34,10.72
50.715243,2.498037,18.1,0.26,-1.27,9.89
50.715236,2.497778,18.17,0.77,-1.28,10.01
50.715236,2.497778,18.17,-0.02,-0.24,13.63
50.71523,2.497519,18.38,0.16,-0.81,8.3
50.71523,2.497519,18.38,-0.55,-0.07,10.04
50.715224,2.497269,18.54,-0.42,-0.53,10.3
50.715224,2.497269,18.54,0.63,-0.81,8.98
50.715214,2.49702,18.73,0.36,-0.53,9.22
50.715214,2.49702,18.73,0.11,-0.36,9.93
50.715202,2.496762,18.83,-0.62,-0.79,9.29
50.715202,2.496762,18.83,-0.42,-1.01,9.05
50.715187,2.496499,19.15,0.38,-1.23,9.46
50.715187,2.496499,19.15,0.74,-0.61,10.16
50.715159,2.496226,19.06,0.41,-0.63,9.21
50.715159,2.496226,19.06,-0.05,-0.02,10.77
50.715121,2.495959,19.17,0.47,-0.67,8.81
50.715121,2.495959,19.17,0.91,0.26,9.54
50.715079,2.495693,18.94,2.05,-1.05,11.56
50.715079,2.495693,18.94,0.4,-1.27,10.69
50.71504,2.49543,18.2,0.22,0.33,9.05
50.71504,2.49543,18.2,1.37,0.26,9.03
50.715003,2.495178,17.37,1.25,0.39,10.08
50.715003,2.495178,17.37,1.83,0.24,10.43
50.714975,2.494937,16.64,0.42,1.73,11.27
50.714975,2.494937,16.64,0.95,0.05,9.52
50.714954,2.494716,15.86,2.04,1.96,8.12
50.714954,2.494716,15.86,3.16,2.34,11.25
50.714941,2.494504,15.35,2.02,1.88,9.39
50.714941,2.494504,15.35,-0.65,2.28,11.11
50.714963,2.4943,14.67,0.18,0.76,10
50.714963,2.4943,14.67,0.47,2.32,10.41
50.715013,2.494101,15.02,-0.29,1.82,8.34
50.715081,2.493909,15.45,0.63,0.16,10.02
50.715081,2.493909,15.45,0.94,-0.86,11.19
50.715172,2.493722,16.03,-0.37,-0.99,8.74
50.715172,2.493722,16.03,0.01,-0.49,10.84
50.715262,2.493531,16.86,-0.57,-0.2,9.45
50.715262,2.493531,16.86,0.15,-0.03,9.32
50.715352,2.493326,17.46,-0.83,0.74,10.41
50.715352,2.493326,17.46,0.7,-1.1,9.78
50.715446,2.493113,18.43,0.7,-0.31,11.97
50.715446,2.493113,18.43,1.19,-0.8,9.69
50.715543,2.492898,18.65,0.35,-0.51,9.72
50.715543,2.492898,18.65,0.1,1.15,7.72
50.715641,2.492681,19.09,-0.15,0.77,11.06
50.715641,2.492681,19.09,1.13,-1.45,10.43
50.715738,2.492457,19.32,0.55,-0.26,10.26
50.715738,2.492457,19.32,0.24,0.23,8.98
50.715834,2.492236,19.31,-0.2,-1.04,10.87
50.715834,2.492236,19.31,0.86,-1.31,9.06
50.715935,2.492007,19.64,-0.74,-0.53,8.47
50.715935,2.492007,19.64,-0.13,-0.57,11.1
50.716038,2.491774,20.02,1.16,-0.08,10.5
50.716038,2.491774,20.02,1.57,-0.31,9.85
50.71614,2.491542,19.99,0.32,0.53,9.06
50.71614,2.491542,19.99,1.25,-0.56,11.21
50.716242,2.491307,19.88,1.28,-0.09,9.38
50.716242,2.491307,19.88,1.98,-0.57,10.55
50.716344,2.491075,19.79,0.58,0.36,10.26
50.716344,2.491075,19.79,0.95,-1.04,9.46
50.716446,2.490851,19.86,1.31,0.26,7.69
50.716446,2.490851,19.86,1.15,-1.43,11.36
50.716551,2.490626,19.67,1.23,-0.34,9.86
50.716551,2.490626,19.67,1.58,-1.6,9.62
50.716654,2.490404,19.12,1.91,-1.54,10.27
50.716654,2.490404,19.12,1.72,-1.64,8.73
50.716751,2.490186,18.84,-0.02,-1.13,9.94
50.716751,2.490186,18.84,1.05,-2.25,9.59
50.716839,2.489957,18.62,1.85,-1.18,9.95
50.716839,2.489957,18.62,1.13,-2.69,9.94
50.716917,2.489726,18.36,1.09,-2.57,10.11
50.716917,2.489726,18.36,1.66,-2.54,9.62
50.71697,2.489485,18.3,1.62,-2.62,10.65
50.71697,2.489485,18.3,1.26,-2.49,10.54
50.71699,2.489227,18.17,1.11,-2.3,9.72
50.716994,2.488966,18.18,1.63,-2.72,10.75
50.716994,2.488966,18.18,0.98,-2.84,9.5
50.716976,2.488705,17.95,1.52,-2.54,9.51
50.716976,2.488705,17.95,0.48,-1.58,11.57
50.716931,2.488457,18,1.11,-1.41,9.79
50.716931,2.488457,18,1.92,-2.55,10.75
50.716868,2.488221,18.02,1.23,-2.47,7.58
50.716868,2.488221,18.02,1.68,-3.13,10.18
50.71679,2.48799,17.96,0.96,-2.35,10.29
50.71679,2.48799,17.96,0.71,-0.76,10.37
50.716701,2.487778,17.96,1.19,-1,11.28
50.716701,2.487778,17.96,0.51,-0.25,7.88
50.716601,2.487581,18.12,2.26,-1.34,10.83
50.716601,2.487581,18.12,0.24,-1.19,8.86
50.716502,2.48738,18.59,2.32,-0.92,13.19
50.716502,2.48738,18.59,1.43,-0.9,8.38
50.716402,2.487163,19.05,0.12,-0.65,9.62
50.716402,2.487163,19.05,-0.45,-1.59,8.37
50.716303,2.486941,19.48,-0.88,-0.25,10.64
50.716303,2.486941,19.48,-0.27,0.23,10.02
50.716198,2.486713,20.18,-0.08,0.5,12.02
50.716198,2.486713,20.18,1.29,0.87,10.27
50.716091,2.486478,20.4,1.69,-1.91,9.25
50.716091,2.486478,20.4,0.45,0.36,9.84
50.715984,2.486243,20.24,0.81,-1.02,9.39
50.715984,2.486243,20.24,1.4,-1.84,11.82
50.715881,2.486011,19.86,1.48,-0.31,9.86
50.715881,2.486011,19.86,0.55,-1.19,11
50.715777,2.485785,19.77,1.13,-0.52,10.51
50.715777,2.485785,19.77,0.68,-0.51,10.07
50.715673,2.48556,19.56,0.43,0.88,9.26
50.715673,2.48556,19.56,0.48,-0.87,10.65
50.715572,2.485338,19.37,1.76,-1.29,9.07
50.715572,2.485338,19.37,1.57,-1.06,12.81
50.715472,2.485117,18.98,1.24,-0.04,8.71
50.715472,2.485117,18.98,2.41,-1.19,9.14
50.715375,2.484902,18.6,0.57,-0.72,9.68
50.715375,2.484902,18.6,0.78,0.57,10.2
50.715279,2.484691,18.22,2,-0.06,9.94
50.715184,2.484488,17.83,2.39,-1.9,11.13
50.715184,2.484488,17.83,2.02,0.27,10.66
50.715092,2.484286,17.46,1.38,-0.11,11.13
50.715092,2.484286,17.46,1.62,-1,9.66
50.715001,2.484089,17.09,1.16,-0.01,9.13
50.715001,2.484089,17.09,0.64,-0.24,10.29
50.714915,2.483897,16.38,0.79,0.85,10.62
50.714915,2.483897,16.38,0.1,-0.89,9.95
50.714832,2.483711,15.82,0.46,-1.33,9.39
50.714832,2.483711,15.82,1.92,-0.72,9.63
50.714754,2.483529,15.41,1.21,0.75,8.8
50.714754,2.483529,15.41,1.34,0.02,9.95
50.714672,2.483362,15.05,0.57,1.09,10.91
50.714672,2.483362,15.05,1.49,1.47,9.83
50.714597,2.483189,14.67,0.82,2.23,9.97
50.714597,2.483189,14.67,0.61,1.54,8.08
50.714535,2.483007,14.45,0.96,1.91,10.27
50.714535,2.483007,14.45,0.79,1.34,9.24
50.714493,2.48281,13.73,2.11,-0.64,17.25
50.714493,2.48281,13.73,2.41,1.25,7.45
50.714482,2.48262,12.62,1.77,0.3,10.52
50.714482,2.48262,12.62,2.33,-0.25,10.49
50.714485,2.482448,11.02,3.51,-0.7,9.02
50.714485,2.482448,11.02,2.6,-1.27,10.75
50.71448,2.482314,8.67,2.58,-1.06,9.36
50.71448,2.482314,8.67,3.24,-1.33,9.04
50.714461,2.482208,6.73,3.73,-1.32,9.31
50.714461,2.482208,6.73,2.26,-1.11,9.36
50.714444,2.482135,4.27,0.95,-1.58,9.67
50.714444,2.482135,4.27,1.32,-1.45,9.76
50.714421,2.482095,3.44,-0.47,-2,10.83
50.714421,2.482095,3.44,-0.9,-2.43,9.75
50.714392,2.482068,4.19,0.27,-2.55,10.04
50.714392,2.482068,4.19,0.69,-2.76,9.95
50.714354,2.482059,4.75,0.34,-2.46,9.91
50.714354,2.482059,4.75,-0.36,-2.23,9.94
50.714307,2.482081,6.03,-1.24,0.09,10.66
50.714307,2.482081,6.03,-1.46,0.27,10.52
50.714257,2.482148,7.67,0.59,-0.24,10.14
50.714257,2.482148,7.67,2.09,-0.28,10.47
50.714201,2.482221,8.14,2.14,0.39,9.38
50.714201,2.482221,8.14,2.31,0.1,9.98
50.714145,2.482287,6.53,2.48,-0.66,10.2
50.714145,2.482287,6.53,1.52,-0.47,10.9
50.714098,2.48233,5.15,1.63,-1.26,9.62
50.71406,2.482366,4.58,0.5,-0.6,9.52
50.71406,2.482366,4.58,1.17,-0.73,10.08
50.714028,2.482397,4.1,0.95,-0.88,9.2
50.714028,2.482397,4.1,0.56,-0.24,9.63
50.713997,2.482431,4.06,0.33,-0.11,10.07
50.713997,2.482431,4.06,0.33,-0.49,10.32
50.713971,2.482464,4.25,-0.78,-0.32,10.11
50.713971,2.482464,4.25,0.29,-0.06,9.58
50.713938,2.4825,5.23,-0.21,0.18,9.77
50.713938,2.4825,5.23,0.01,-0.4,9.39
50.713896,2.482545,5.92,0.55,-0.17,9.62
50.713896,2.482545,5.92,0.43,0.11,10.26
50.713851,2.482594,6.34,0.11,-0.08,10.19
50.713851,2.482594,6.34,-0.51,-0.39,10.53
50.7138,2.482649,7.29,1.21,-0.86,10.38
50.7138,2.482649,7.29,-0.57,-0.34,8.88
50.713743,2.482712,8.16,0.18,0.45,10.13
50.713743,2.482712,8.16,-0.51,0.31,8.82
50.71368,2.482784,9.1,0.99,-0.22,9.17
50.71368,2.482784,9.1,1.23,-0.89,9.56
50.71361,2.482862,9.74,1.05,-1.16,10.98
50.71361,2.482862,9.74,1.06,-0.37,9.52
50.713539,2.482942,9.78,0.28,-0.9,10.99
50.713539,2.482942,9.78,-1.78,0.4,9.96
50.713467,2.483023,9.96,0.07,-0.55,10.54
50.713467,2.483023,9.96,-0.75,1,8.17
50.713391,2.48311,10.6,0.65,-0.51,9.28
50.713391,2.48311,10.6,1.24,-0.25,9.72
50.713312,2.483201,10.81,1.57,-1.24,10.84
50.713312,2.483201,10.81,0.16,-0.18,8.48
50.713237,2.483291,10.32,1.82,-0.61,10.3
50.713237,2.483291,10.32,1.05,-0.07,9.29
50.713166,2.483377,9.48,1.89,1.51,10.98
50.713166,2.483377,9.48,0.99,0.53,10.3
50.7131,2.483458,8.88,1.41,-0.73,10.62
50.7131,2.483458,8.88,-1.71,0.12,10.06
50.713037,2.483532,8.75,-1.02,-0.71,10.77
50.713037,2.483532,8.75,-0.84,-1.32,9.23
50.712972,2.48362,9.86,-0.08,-0.66,9.22
50.712972,2.48362,9.86,-0.44,-0.49,8.97
50.712903,2.483717,10.34,0.49,-0.21,9.45
50.712903,2.483717,10.34,0.22,0.42,9.63
50.71283,2.483816,9.81,0.65,-0.26,10.25
50.712767,2.483905,9.18,0.27,0.04,9.83
50.712767,2.483905,9.18,2.38,-0.11,9.24
50.712711,2.483985,7.91,3.69,-0.03,8.65
50.712711,2.483985,7.91,3.97,-1.33,9.73
50.712665,2.484047,5.34,2.27,-0.42,9.61
50.712665,2.484047,5.34,2.02,-0.79,9.74
50.712634,2.484088,3.81,2.31,-0.7,10.02
50.712634,2.484088,3.81,1.03,-0.59,10.06
50.712616,2.484117,2.97,1.47,-1.56,9.68
50.712616,2.484117,2.97,0.63,-1.39,9.66
50.7126,2.484145,2.6,0.31,-1.23,9.59
50.7126,2.484145,2.6,1.24,-2.13,10.51
50.7126,2.484145,0,1.26,-1.1,9.46
50.7126,2.484145,0,1.84,-0.19,10.17
50.7126,2.484145,0,0.63,0.38,10.16
50.7126,2.484145,0,0.95,-0.23,9.93
50.7126,2.484145,0,1.19,0.39,10.11
50.7126,2.484145,0,1.13,0.1,10
50.7126,2.484145,0,-0.15,-0.11,9.97
50.7126,2.484145,0,1.13,0.06,10.13
50.7126,2.484145,0,1.43,0.3,9.75
50.7126,2.484145,0,1.62,0.09,9.73
50.7126,2.484145,0,0.94,-0.59,9.77
50.7126,2.484145,0,0.79,-0.27,9.53
50.7126,2.484145,0,1.45,-0.73,9.79
50.7126,2.484145,0,1.09,-0.8,9.86
50.7126,2.484145,0,1,1.11,10.91
50.7126,2.484145,0,0.86,0.21,9.8
50.7126,2.484145,0,1.21,-0.93,10.21
50.7126,2.484145,0,0.72,0.85,9.56
50.7126,2.484145,0,1.74,0,9.99
50.7126,2.484145,0,0.51,0.19,9.81
50.7126,2.484145,0,0.39,0.67,9.87
50.7126,2.484145,0,-0.99,0.16,9.91
50.7126,2.484145,0,-1.07,-1.1,9.82
50.7126,2.484145,0,-0.46,-2.02,9.66
50.7126,2.484145,0,-0.71,-1.98,9.3
50.7126,2.484145,0,-1.28,-2.5,9.94
50.712659,2.4842,3.2,0.08,-1.77,10.22
50.712659,2.4842,3.2,0.23,0.12,10.15
50.712687,2.48416,4.7,-0.09,-0.21,10.07
50.712717,2.484097,5.24,-0.21,-0.79,10.17
50.712717,2.484097,5.24,-1.36,-0.97,9.87
50.712748,2.484035,6.8,-0.15,0.11,10.21
50.712748,2.484035,6.8,0.02,-0.85,9.98
50.712796,2.483958,7.78,-1.2,0.25,9.92
50.712796,2.483958,7.78,-0.16,-0.42,10.22
50.712852,2.483871,9.38,-1.1,-1.11,10.28
50.712852,2.483871,9.38,0.44,-0.48,11.48
50.712918,2.483779,10.16,-0.58,-1.07,9.95
50.712918,2.483779,10.16,-1.47,-0.35,9.39
50.712993,2.483672,11.61,0.18,-1.39,10.92
50.712993,2.483672,11.61,0.56,-1.57,9.87
50.713074,2.483559,12.5,-1.47,0.68,8.05
50.713074,2.483559,12.5,0.75,-0.14,10.55
50.713162,2.483436,13.22,0.75,0.13,9.68
50.713162,2.483436,13.22,1.07,-0.41,12.72
50.713248,2.483327,13.28,1.02,-0.82,11.18
50.713248,2.483327,13.28,1.58,0.33,11.5
50.713336,2.483216,13.01,0.69,0.48,10.12
50.713336,2.483216,13.01,0.47,-0.22,10.28
50.713427,2.483099,12.95,1.17,-0.32,10.07
50.713427,2.483099,12.95,-0.26,0.75,9.81
50.713527,2.482984,13,0.86,0.09,10.98
50.713527,2.482984,13,1.4,-0.28,9.86
50.713626,2.482865,12.75,3.77,-1.09,10.77
50.713626,2.482865,12.75,0.03,-0.37,9.91
50.713722,2.482761,12.49,1.81,-0.85,10.02
50.713722,2.482761,12.49,0.14,-0.43,10.48
50.71381,2.482666,12.1,0.73,-0.84,9.96
50.71381,2.482666,12.1,1.31,-0.43,10.1
50.713897,2.482572,11.68,0.3,0.19,10.16
50.713897,2.482572,11.68,1.12,-0.48,9.5
50.713982,2.482485,11.32,0.65,0.25,9.39
50.713982,2.482485,11.32,1.06,-0.49,10.64
50.714063,2.482399,10.76,1.11,-0.56,9.58
50.714063,2.482399,10.76,1.25,-0.39,10.66
50.714145,2.482317,10.32,1.87,-0.76,9.64
50.714145,2.482317,10.32,2,-1.13,9.09
50.714221,2.482242,9.38,1.32,0.17,9.83
50.714221,2.482242,9.38,2.7,-0.84,9.58
50.714285,2.482177,7.71,2.75,-1.39,9.63
50.714285,2.482177,7.71,0.87,-2.22,9.6
50.714338,2.482121,6.53,0.83,-2.49,10
50.714379,2.482062,5.99,0.21,-3.71,9.83
50.714379,2.482062,5.99,-0.08,-3.41,8.75
50.714414,2.481999,6.3,0.63,-3.85,10.18
50.714414,2.481999,6.3,0.4,-3.21,9.47
50.714423,2.481902,7.36,0.15,-4.03,11.41
50.714423,2.481902,7.36,0.57,-1.31,10.52
50.714402,2.48179,8.34,-0.32,1.1,10.1
50.714402,2.48179,8.34,0.01,1.4,7.35
50.714368,2.481679,9,-0.91,-0.26,10.18
50.714368,2.481679,9,-0.53,-0.47,10.88
50.71434,2.481548,9.8,-1,0.38,11.02
50.71434,2.481548,9.8,-1.81,1.29,8.99
50.714318,2.481399,11.01,-0.63,0.26,9.59
50.714318,2.481399,11.01,-0.54,-0.17,10.52
50.71431,2.481228,12.14,-0.85,0.36,10.2
50.71431,2.481228,12.14,-0.57,-0.29,10.17
50.714305,2.481042,13.18,-0.33,-1.56,10.48
50.714305,2.481042,13.18,-0.24,0.1,10.57
50.714308,2.480849,14.67,0.48,0.09,8.95
50.714308,2.480849,14.67,-0.69,1.81,9.12
50.714312,2.480643,14.97,1.22,0.45,8.39
50.714312,2.480643,14.97,0.11,-1.49,12.64
50.714322,2.480414,15.72,-0.22,1.05,9.21
50.714322,2.480414,15.72,-0.92,0.61,10.16
50.714336,2.480176,16.06,-0.52,0.1,10.35
50.714336,2.480176,16.06,0.81,-0.53,9.19
50.714352,2.479933,16.52,1.33,-0.08,10.06
50.714352,2.479933,16.52,0.15,-0.04,10.19
50.714372,2.479702,16.41,0.66,-0.43,10.47
50.714372,2.479702,16.41,1.11,-0.28,8.98
50.714396,2.47947,16.53,1.05,-0.33,11.43
50.714396,2.47947,16.53,1.02,0.47,10.47
50.714421,2.479239,16.12,0.72,0.44,11.25
50.714421,2.479239,16.12,1.3,-0.7,11.21
50.714442,2.47902,15.59,1.59,0.1,9.67
50.714442,2.47902,15.59,1.28,-2.12,10.74
50.714458,2.47881,15.02,2.02,-1.86,9.39
50.714458,2.47881,15.02,1.93,-1.06,9.6
50.714463,2.478605,14.46,0,-1.49,9.73
50.714463,2.478605,14.46,1.24,-2.32,9.21
50.714452,2.478406,13.92,1.32,-3.62,8.98
50.714452,2.478406,13.92,1.2,-2.94,10.21
50.714425,2.478208,13.74,0.32,-0.92,9.3
50.714373,2.478037,13.76,-1.02,-1.03,11.14
50.714373,2.478037,13.76,0.07,-0.96,9.21
50.714304,2.477869,14.45,0.23,-1.57,9.71
50.714304,2.477869,14.45,-0.73,0.1,10.27
50.714235,2.477693,14.79,0.26,-1.67,9.45
50.714235,2.477693,14.79,-1.11,-2.31,8.63
50.714167,2.477506,15.63,-0.21,-1.67,9.89
50.714167,2.477506,15.63,-0.58,0.48,9.74
50.714091,2.477316,16.38,-0.02,0.76,10.87
50.714091,2.477316,16.38,-0.45,-1.02,11.85
50.71401,2.477113,17.17,0.08,0.68,10.74
50.71401,2.477113,17.17,-0.6,0.86,10.16
50.713929,2.476904,17.84,-0.36,-1.19,9.68
50.713929,2.476904,17.84,-0.79,0.09,10.85
50.713844,2.476681,18.8,1.32,-0.01,12.34
50.713844,2.476681,18.8,1.56,1.03,10.19
50.71376,2.476455,18.61,-0.89,1.95,10.02
50.71376,2.476455,18.61,-0.37,0.99,9.17
50.713682,2.476219,19.21,-0.38,1.21,9.71
50.713682,2.476219,19.21,0.2,0.84,10.66
50.713608,2.475967,19.75,0.98,-0.44,11.26
50.713608,2.475967,19.75,1.48,0.3,9.61
50.713537,2.475704,20.29,0.12,-0.36,10.36
50.713537,2.475704,20.29,0.81,-0.1,11.62
50.713466,2.475439,20.33,0.28,1.48,9.93
50.713466,2.475439,20.33,1.21,-0.26,10.7
50.713396,2.475174,20.11,1.44,-1.56,12.04
50.713396,2.475174,20.11,1.32,0.2,10.32
50.713329,2.474909,20.11,0.72,0.04,10.11
50.713329,2.474909,20.11,0.94,-0.86,11.53
50.713262,2.474646,20.1,0.56,0.49,10.02
50.713262,2.474646,20.1,0.41,-1.19,10.38
50.713193,2.474382,20.34,0.82,-0.37,10.87
50.713193,2.474382,20.34,-0.58,-0.78,10.4
50.713122,2.474114,20.33,0.28,-0.94,8.75
50.713122,2.474114,20.33,-0.74,-0.64,10.68
50.713049,2.473848,20.75,1.96,-2.02,7.72
50.713049,2.473848,20.75,0.87,0.65,13.49
50.712965,2.473583,20.68,0.66,0.54,5.4
50.712965,2.473583,20.68,0.54,-1.28,8.52
50.712877,2.473316,20.81,-0.02,0.09,9.04
50.712783,2.473049,21.06,0.28,0.27,10.39
50.712783,2.473049,21.06,-1.18,0.33,10.53
50.712688,2.47278,21.3,1.94,-0.92,10.6
50.712688,2.47278,21.3,0.13,-0.1,9.47
50.712596,2.472515,21.24,1.16,-0.3,10.95
50.712596,2.472515,21.24,1.49,-0.33,9.17
50.712506,2.472257,21.14,1.25,-0.74,9.62
50.712506,2.472257,21.14,0.72,-0.46,9.2
50.712409,2.472014,20.6,-0.66,-0.15,12.49
50.712409,2.472014,20.6,2.44,-1.78,10.25
50.712308,2.471774,20.4,2.12,-1.02,9.83
50.712308,2.471774,20.4,0.15,-0.1,9.9
50.712212,2.471533,20.03,1.17,-0.29,11.19
50.712212,2.471533,20.03,1.61,0.7,9.45
50.712116,2.4713,19.78,1.47,-0.06,10.6
50.712116,2.4713,19.78,1.22,0.26,9.13
50.712018,2.47107,19.15,2.17,-0.94,10.89
50.712018,2.47107,19.15,2.33,-0.72,9.43
50.711923,2.470848,18.34,0.37,-0.34,10.41
50.711923,2.470848,18.34,1.17,1.34,9.88
50.711833,2.47064,17.96,1.03,2.18,8.28
50.711833,2.47064,17.96,1.12,1.02,10.3
50.711754,2.470424,18.11,0.49,0.47,9.65
50.711754,2.470424,18.11,1.45,1.29,9.7
50.711686,2.470194,17.67,1.25,0.86,9.94
50.711686,2.470194,17.67,0.02,0.58,9.33
50.711633,2.469962,17.57,0.79,0.57,9.03
50.711633,2.469962,17.57,0.77,0.87,10.6
50.711594,2.469722,17.56,0.95,0.81,8.66
50.711594,2.469722,17.56,0.45,-1.08,10.71
50.711566,2.469477,17.76,1.33,-0.78,11.54
50.711566,2.469477,17.76,1.1,-1.15,10.2
50.711536,2.469233,17.28,0.55,-0.36,11.2
50.711536,2.469233,17.28,1.02,-0.34,8.29
50.711509,2.469003,16.92,-0.15,-1.13,9.35
50.711509,2.469003,16.92,0.81,-1.61,9.89
50.711469,2.468777,16.83,1.62,-0.56,8.76
50.711469,2.468777,16.83,1.24,0.18,9.35
50.711415,2.468555,16.7,0.46,-0.79,9.95
50.711415,2.468555,16.7,1.81,0.56,10.75
50.711353,2.468338,16.74,1.57,-1.14,10.09
50.711353,2.468338,16.74,0.74,-0.28,10.33
50.711292,2.46812,16.45,1.57,-0.51,8.44
50.711292,2.46812,16.45,0.43,-0.66,8.49
50.711231,2.467903,16.42,1.53,-0.44,9.95
50.711174,2.467692,16.31,0.22,-0.06,8.69
50.711174,2.467692,16.31,0.69,-0.35,9.16
50.711116,2.46748,16.17,2.23,-0.24,7.12
50.711116,2.46748,16.17,2.77,-0.06,8.36
50.711058,2.467278,14.56,0.09,0.08,10.38
50.711058,2.467278,14.56,2.51,-0.01,8.88
50.711006,2.467096,13.01,1.39,-0.18,9.28
50.711006,2.467096,13.01,4.98,2.42,9.91
50.710963,2.466936,11.65,2.14,0.75,10.88
50.710963,2.466936,11.65,3.99,2.18,9.1
50.710935,2.466794,9.51,1.55,0.67,10.1
50.710935,2.466794,9.51,1.84,0.99,9.45
50.710934,2.466671,8.54,1.47,1.62,9.13
50.710934,2.466671,8.54,1.56,0.91,9.28
50.710948,2.466557,7.87,2.96,-0.19,9.86
50.710948,2.466557,7.87,2.86,-0.38,9.5
50.710969,2.466451,6.16,2.14,-0.87,10
50.710969,2.466451,6.16,2.91,-2.27,9.54
50.710981,2.466377,4.62,3.63,-0.51,9.91
50.710981,2.466377,4.62,3.49,-0.38,9.91
50.710981,2.466377,0,1.55,-0.29,10.24
50.710981,2.466377,0,1.92,-0.31,9.72
50.710981,2.466377,0,0.95,-0.36,9.96
50.710981,2.466377,0,0.85,-0.41,9.79
50.710981,2.466377,0,0.58,-0.26,9.79
50.710981,2.466377,0,-0.7,-1.03,10.24
50.710981,2.466377,0,-1.02,-1.12,10.41
50.710981,2.466377,0,-1.75,-1.51,9.84
50.710965,2.46629,2.73,-1.35,-1.97,10.21
50.710965,2.46629,2.73,-0.34,-2.51,10.14
50.710942,2.46625,4.11,0.94,-1.19,9.88
50.710942,2.46625,4.11,-0.11,-1.92,10.07
50.710909,2.466203,4.79,-0.42,-1.48,9.99
50.710909,2.466203,4.79,-1.02,-1.74,10.07
50.710866,2.466164,6.31,-1.37,-2.4,10.26
50.710866,2.466164,6.31,-0.76,-1.73,10.03
50.710801,2.466135,8.49,0.75,-0.35,9.41
50.710801,2.466135,8.49,0.79,-0.7,9.8
50.71072,2.466117,9.35,0.11,-0.57,11.66
50.71072,2.466117,9.35,0.72,-0.71,9.56
50.710636,2.466099,9.83,0.89,0.36,10.55
50.710552,2.466085,9.5,0.88,-0.54,9.28
50.710552,2.466085,9.5,0.43,-0.89,9.75
50.71047,2.466071,9.44,0.4,1.19,9.66
50.71047,2.466071,9.44,1.72,1.95,9.54
50.710386,2.466055,9.02,0.6,2.45,10.09
50.710386,2.466055,9.02,1.29,2.24,9.85
50.710311,2.466013,8.95,0.31,2.29,8.26
50.710311,2.466013,8.95,0.56,3.67,9.57
50.710247,2.465936,9.14,1.5,4.75,10.28
50.710247,2.465936,9.14,0.11,3.16,9.36
50.710197,2.465823,9.41,-0.67,2.2,9.59
50.710197,2.465823,9.41,-0.61,0.13,10.03
50.710173,2.465682,10.64,-1.25,-0.86,8.98
50.710173,2.465682,10.64,-0.58,-0.7,9.65
50.710165,2.465522,11.83,-0.34,-1.31,10.44
50.710165,2.465522,11.83,-0.41,0.09,10.18
50.710153,2.46536,12.92,-2.37,-0.77,16.11
50.710153,2.46536,12.92,-0.32,-0.67,5.48
50.710131,2.465179,14.09,-2.47,-0.47,13.48
50.710131,2.465179,14.09,-0.58,1.25,9.58
50.710102,2.464969,15.19,0.28,0.11,7.17
50.710102,2.464969,15.19,-0.59,-1.08,13.05
50.71007,2.464748,15.44,-1.36,0.01,10.33
50.71007,2.464748,15.44,-0.74,0.6,10.16
50.710036,2.464519,16.15,-0.28,0.03,6.72
50.710036,2.464519,16.15,-0.14,-0.01,8.51
50.709998,2.464291,16.66,0.48,0.24,9.99
50.709998,2.464291,16.66,0.15,-0.84,9.41
50.70996,2.464059,16.91,0.17,-0.35,9.56
50.70996,2.464059,16.91,0.34,-0.44,10.64
50.709922,2.463825,17.39,-0.27,-0.48,10.54
50.709922,2.463825,17.39,-0.13,-0.91,10.67
50.709882,2.46359,17.56,0.38,-0.3,9.91
50.709882,2.46359,17.56,0.53,-0.79,9.12
50.709842,2.463347,17.8,-0.98,-1.18,10.81
50.709842,2.463347,17.8,0.8,0.32,9.99
50.709802,2.4631,17.98,0.23,-0.35,12.69
50.709802,2.4631,17.98,0.49,-0.41,10.07
50.70976,2.46285,18.2,1.12,-1.19,8.15
50.70976,2.46285,18.2,0.96,-1.47,9.96
50.709718,2.462611,17.78,2.2,-0.65,9.33
50.709718,2.462611,17.78,0.36,1.29,9.03
50.709675,2.462379,17.2,0.35,-0.92,10.68
50.709637,2.462151,16.5,1.52,-0.37,7.37
50.709637,2.462151,16.5,0.58,-0.2,10.05
50.709599,2.461928,15.96,1.21,-0.02,9.43
50.709599,2.461928,15.96,1.27,-0.57,8.07
50.709559,2.46171,15.29,0.34,0.3,10.1
50.709559,2.46171,15.29,-0.03,-0.21,10.88
50.709519,2.461499,15.06,0.17,-0.4,9.68
50.709519,2.461499,15.06,-1.02,0.23,10.51
50.709479,2.461294,15.19,2.42,0.09,11.19
50.709479,2.461294,15.19,1.47,-0.83,9.84
50.709438,2.461095,14.67,0.06,0.42,8.6
50.709438,2.461095,14.67,0.88,-0.11,8.66
50.709401,2.460902,14.26,2.54,-0.25,8.78
50.709401,2.460902,14.26,0.44,0.26,10.74
50.709369,2.460711,14.09,2.34,-1.77,9.91
50.709369,2.460711,14.09,1.29,0.32,8.13
50.709336,2.460525,13.6,1.13,-0.44,10.15
50.709336,2.460525,13.6,-0.06,-0.68,10.1
50.709301,2.46034,13.07,0.93,-0.29,10.2
50.709301,2.46034,13.07,1.37,-1.21,10.13
50.709269,2.460165,12.45,1.19,-1.14,10.01
50.709269,2.460165,12.45,0.27,-0.29,10.61
50.709234,2.460001,12.21,0.66,-0.94,10.11
50.709234,2.460001,12.21,-0.23,-0.94,10.19
50.709199,2.459842,12.2,0.66,-0.14,10.94
50.709199,2.459842,12.2,1.26,-0.57,10.14
50.709169,2.459674,12.43,-0.69,0.15,10.41
50.709169,2.459674,12.43,1.37,-1.17,10.3
50.709136,2.459501,12.71,0.2,-0.68,9.75
50.709136,2.459501,12.71,0,-0.36,10.25
50.709098,2.459328,12.88,0.03,-1.64,8.86
50.709098,2.459328,12.88,0.71,-1.47,10.17
50.709054,2.459158,12.84,1.41,-0.73,10.46
50.709054,2.459158,12.84,-0.99,-0.77,10.52
50.708999,2.458995,12.72,0.35,0.11,10.24
50.708999,2.458995,12.72,2.3,-1.3,8.82
50.708941,2.458855,12.53,1.81,0.32,9.62
50.708941,2.458855,12.53,0.75,-0.24,8.15
50.708875,2.458727,12.18,1.67,-1.31,6.93
50.708875,2.458727,12.18,1.15,-0.63,10.24
50.708807,2.458603,12.12,-0.03,-0.17,9.93
50.708736,2.458475,12.29,1.6,-0.5,10.11
50.708736,2.458475,12.29,0.69,-0.17,9.61
50.708659,2.458357,12.06,1.16,0.24,9.35
50.708659,2.458357,12.06,0.24,-0.22,9.89
50.708586,2.458231,12.01,0.58,-0.05,6.53
50.708586,2.458231,12.01,0.45,-0.01,9.93
50.708516,2.458104,12.12,1.67,-0.86,10.64
50.708516,2.458104,12.12,1.18,-1.12,9.77
50.708446,2.457976,12.2,2.18,-0.11,9.91
50.708446,2.457976,12.2,0.29,-0.76,9.49
50.708374,2.457849,11.94,1.57,0.09,10.23
50.708374,2.457849,11.94,0.79,0.97,9.82
50.708303,2.457726,11.48,0.97,1.32,9.19
50.708303,2.457726,11.48,0.16,-0.01,9.99
50.70823,2.457604,11.82,1.12,-0.3,9.59
50.70823,2.457604,11.82,-0.04,-1.08,8.78
50.708157,2.457478,11.89,0.56,0.18,10.75
50.708157,2.457478,11.89,2.73,-0.23,9.34
50.708087,2.457349,11.91,1.46,0.37,10.41
50.708087,2.457349,11.91,0.97,-0.45,8.04
50.708017,2.457214,12,0.87,-1.31,9.5
50.708017,2.457214,12,1.07,-0.62,9.62
50.707945,2.457087,11.93,0.77,-0.04,9.39
50.707945,2.457087,11.93,2,-0.75,9
50.707873,2.456964,11.79,1.7,-0.55,9.37
50.707873,2.456964,11.79,0.92,-0.15,10.35
50.707806,2.456837,11.57,2.81,-0.19,11.32
50.707806,2.456837,11.57,2.25,-0.33,9.88
50.707732,2.456722,11.42,2.49,-0.58,7.48
50.707732,2.456722,11.42,1.69,-2.61,8.95
50.707661,2.456603,11.25,1.75,-1.89,10.52
50.707661,2.456603,11.25,1.7,-2.11,11.29
50.707588,2.456494,10.99,2.38,-2.15,11.53
50.707588,2.456494,10.99,2.04,-2.39,10.1
50.707509,2.456407,10.52,1.64,0.12,10.19
50.707509,2.456407,10.52,1.47,-1.7,9.17
50.707421,2.456346,10.37,1.17,-1.03,9.56
50.707421,2.456346,10.37,1.2,-0.88,9.83
50.707332,2.456302,10.18,1.06,-0.94,10.05
50.707332,2.456302,10.18,1.43,-1.11,8.96
50.707239,2.456267,10.52,-0.05,-0.52,9.3
50.707239,2.456267,10.52,0.21,0.11,8.2
50.707153,2.456224,10.04,1.42,-0.44,9.78
50.707069,2.456183,9.69,0.97,0.09,9.17
50.707069,2.456183,9.69,1.22,-0.53,9.65
50.706983,2.456153,9.03,0.28,-0.04,9.84
50.706983,2.456153,9.03,1.06,-0.16,9.42
50.706903,2.456122,8.68,1.5,-0.02,9.19
50.706903,2.456122,8.68,1.49,0.76,9.36
50.706827,2.456101,7.69,0.59,1.25,8.26
50.706827,2.456101,7.69,0.39,0.74,8.79
50.706766,2.45607,7.45,0.84,1.53,10
50.706766,2.45607,7.45,0.87,1.61,10.4
50.706713,2.456007,7.3,0.5,1.42,10.8
50.706713,2.456007,7.3,-0.38,1.34,10.6
50.706669,2.455925,7.39,0.23,-0.18,10.06
50.706669,2.455925,7.39,0.47,-0.01,9.37
50.706634,2.455827,7.81,-0.22,-0.39,9.77
50.706634,2.455827,7.81,0.44,-0.11,10.39
50.706596,2.455723,8.23,-0.47,0.32,10.05
50.706596,2.455723,8.23,-0.59,0.57,10.09
50.706555,2.455612,8.97,-1.16,-0.46,9.69
50.706555,2.455612,8.97,0.11,0.43,10.88
50.706511,2.455494,9.79,-0.52,-0.22,9.55
50.706511,2.455494,9.79,-0.68,1.19,8.86
50.706469,2.45537,10,-0.56,0.6,10.43
50.706469,2.45537,10,-0.87,0.96,9.66
50.706428,2.455233,11.17,0.52,-0.81,10.96
50.706428,2.455233,11.17,1.98,-0.36,10.52
50.706392,2.455084,11.15,2.04,0.24,10.58
50.706392,2.455084,11.15,2.24,0.24,10.86
50.706359,2.454941,10.51,1.36,2.1,10
50.706359,2.454941,10.51,2.29,-0.4,8.14
50.706337,2.454791,10.1,0.52,-0.91,11.38
50.706337,2.454791,10.1,-0.7,-0.15,8.89
50.706326,2.454639,11.02,-0.23,0.52,9.5
50.706326,2.454639,11.02,-0.24,-0.38,10.24
50.706326,2.454476,11.52,1.07,-2.16,9.93
50.706326,2.454476,11.52,1.24,-1.21,14.59
50.706323,2.454313,11.85,0.34,-1.3,9.5
50.706323,2.454313,11.85,1.2,-1.84,9.6
50.706316,2.454152,11.57,-0.43,-1.74,7.93
50.706316,2.454152,11.57,1.07,-0.23,10.62
50.706297,2.453988,11.06,1.08,0.99,8.94
50.706297,2.453988,11.06,1.16,1.34,11.1
50.706266,2.453846,10.25,1.58,1.85,10.91
50.706245,2.45371,9.92,0.45,4.87,10.32
50.706245,2.45371,9.92,-1.04,1.69,9.82
50.706246,2.453574,10.79,-0.52,1,9.56
50.706246,2.453574,10.79,-0.57,0.83,9.78
50.706274,2.453416,11.99,-0.59,-1.03,9.46
50.706274,2.453416,11.99,-0.7,-0.75,9.42
50.706319,2.453245,13.05,-0.33,-0.97,7.79
50.706319,2.453245,13.05,-0.54,-0.85,9.38
50.706367,2.453061,14.04,-0.31,-1.94,9.41
50.706367,2.453061,14.04,-0.69,-0.65,9.19
50.706413,2.452862,14.97,0.78,-0.2,9.08
50.706413,2.452862,14.97,-0.25,-1.45,10.37
50.706452,2.452659,15.08,0,-1.36,11.32
50.706452,2.452659,15.08,0.72,-0.62,11.48
50.706484,2.452452,15.39,0.1,-1.29,11.49
50.706484,2.452452,15.39,0.09,-1.8,10.36
50.706507,2.452245,15.13,0.08,-1,9.56
50.706507,2.452245,15.13,1.68,-0.23,10.91
50.706525,2.452033,14.96,1.06,-0.69,11.43
50.706525,2.452033,14.96,1.75,-0.15,11.13
50.706539,2.451824,14.68,0.61,-0.18,8.94
50.706539,2.451824,14.68,0.57,-0.71,9.11
50.706548,2.451619,14.25,1.11,-1.57,10.6
50.706548,2.451619,14.25,0.32,-1.58,7.77
50.706549,2.451424,13.39,-1.14,-2.09,9.63
50.706549,2.451424,13.39,1.58,-1.58,10.87
50.706539,2.451239,12.74,0.68,-2.43,9.45
50.706539,2.451239,12.74,0.94,-1.84,10.9
50.706512,2.451061,12.83,-0.19,-1.13,9.53
50.706512,2.451061,12.83,1.59,0.11,8.36
50.706471,2.450882,13.16,-0.23,-1.73,9.96
50.706471,2.450882,13.16,-0.02,-0.51,10.46
50.706415,2.450713,13.27,1.98,-1.26,10.75
50.706415,2.450713,13.27,0.31,-0.34,10.75
50.706345,2.450559,13.69,-0.91,-0.55,11.69
50.706345,2.450559,13.69,-0.26,-0.45,11.32
50.706268,2.450409,14.46,1.28,-0.21,9.03
50.706268,2.450409,14.46,1,-1.44,12.06
50.706184,2.450255,14.83,0.9,0.16,11.04
50.706184,2.450255,14.83,-0.45,-1.21,13.09
50.706101,2.450094,14.55,0.35,-1.42,10.64
50.70602,2.449936,14.01,0.53,-0.82,11.03
50.70602,2.449936,14.01,0.94,0.66,8.78
50.705944,2.44978,13.84,0.91,0.51,8.04
50.705944,2.44978,13.84,0.36,0.23,7.24
50.70587,2.449625,13.8,0.01,-0.9,14.98
50.70587,2.449625,13.8,-0.77,-0.48,12.87
50.705793,2.449466,14.6,-0.15,-0.38,10.48
50.705793,2.449466,14.6,1.19,1.58,12.59
50.705712,2.449299,15.13,0.45,-0.3,12.46
50.705712,2.449299,15.13,-0.25,-0.48,13.57
50.705632,2.449119,15.93,-0.8,0.07,9.81
50.705632,2.449119,15.93,-0.28,0.41,11.46
50.705549,2.448917,16.82,0.13,0.26,9.56
50.705549,2.448917,16.82,-1.2,1.44,10.53
50.705464,2.448706,17.53,0.52,-0.35,12.51
50.705464,2.448706,17.53,-0.21,-0.23,9.51
50.705389,2.448479,18.18,-0.35,-1.31,11.54
50.705389,2.448479,18.18,-0.62,0.64,11.13
50.705313,2.448236,19.11,-0.29,-0.61,9.1
50.705313,2.448236,19.11,-0.07,-0.88,15.78
50.705238,2.447996,19.9,0.43,-0.38,6.93
50.705238,2.447996,19.9,-1.89,0.49,7.79
50.705157,2.447738,20.62,-0.25,-2.19,9.23
50.705157,2.447738,20.62,1.39,-0.45,10.73
50.705073,2.447468,21.01,-1.26,-0.92,12.71
50.705073,2.447468,21.01,0.3,1.59,6.64
50.704988,2.447194,21.54,1.22,-0.16,10.59
50.704988,2.447194,21.54,-0.31,0.72,12.41
50.704904,2.446922,21.67,0.29,-0.08,9.98
50.704904,2.446922,21.67,1.15,0.03,6.18
50.704819,2.446646,21.94,1.53,-0.21,8
50.704819,2.446646,21.94,0.77,-0.81,7.13
50.704728,2.446362,21.93,0.53,1.63,15.01
50.704728,2.446362,21.93,0.94,-0.82,10.6
50.704642,2.446088,21.44,3.94,1.02,6.41
50.704642,2.446088,21.44,0.15,1.46,10.64
50.704563,2.445821,21.01,1.52,2,12.59
50.704563,2.445821,21.01,0.36,1.39,13.14
50.704501,2.44555,20.47,1.04,0.3,7.81
50.704501,2.44555,20.47,0.11,0.08,11.85
50.70446,2.445268,20.19,0.77,-1.02,8.91
50.70446,2.445268,20.19,-0.01,-0.75,9.63
50.704429,2.444985,20.08,1.87,-1.49,11.26
50.704429,2.444985,20.08,0.7,-1.32,9.98
50.704405,2.444701,20.44,1.02,0.47,10.47
50.704382,2.444417,20.78,1.05,-1.45,12.25
50.704382,2.444417,20.78,1.17,0.3,5.95
50.704363,2.444121,20.9,0.38,-0.21,9.04
50.704363,2.444121,20.9,0.42,-1.7,7.89
50.704342,2.443827,21.04,0.57,0.91,11.75
50.704342,2.443827,21.04,0.79,-0.24,10.49
50.70432,2.44353,21.02,-0.8,0.26,11.12
50.70432,2.44353,21.02,-1.13,1.7,10.57
50.7043,2.443234,21.29,0.85,-0.53,6.51
50.7043,2.443234,21.29,1.11,0.33,7.56
50.70428,2.442932,21.35,0.17,-0.79,14.29
50.70428,2.442932,21.35,1.17,0.39,13.71
50.704261,2.442631,21.3,1.38,-1.24,13.8
50.704261,2.442631,21.3,2.07,-1.13,8.71
50.704238,2.442334,20.92,1.15,-0.09,7.79
50.704238,2.442334,20.92,0.93,0.67,9.02
50.70422,2.442045,20.58,2.15,0.41,13.35
50.70422,2.442045,20.58,1.13,-0.34,8.68
50.704198,2.441753,20.11,-1.04,0.34,11.12
50.704198,2.441753,20.11,0.59,0.57,6.87
50.704178,2.441469,20.27,0,-0.06,7.45
50.704178,2.441469,20.27,0.87,0.13,8.63
50.704158,2.441185,19.95,1.72,-0.97,11.64
50.704158,2.441185,19.95,0.92,-0.23,12.57
50.704139,2.440905,19.76,0.65,0.27,10.39
50.704139,2.440905,19.76,1.09,0,9.52
50.704122,2.44063,19.81,-1.22,0.27,12.28
50.704122,2.44063,19.81,0.94,-0.91,12.64
50.704103,2.440346,20.14,0.57,-0.66,12.78
50.704103,2.440346,20.14,1.09,-1.2,7.18
50.704084,2.440059,20.16,0.58,0.14,7.78
50.704084,2.440059,20.16,-1.01,0.5,10.83
50.704064,2.439774,19.92,2.43,0.19,6.37
50.704064,2.439774,19.92,-0.02,0.7,11.08
50.704043,2.439501,19.77,0.75,0.1,9.47
50.704043,2.439501,19.77,0.71,-1.02,11.49
50.704026,2.439222,19.81,1.39,-0.29,7.42
50.704026,2.439222,19.81,2.42,-0.45,11.93
50.704012,2.438949,19.63,0.74,0.37,6.91
50.704012,2.438949,19.63,1.27,-1.28,13.69
50.70399,2.438672,19.35,0.88,-1.5,6.56
50.703971,2.438401,19.19,1.67,-1.14,6.58
50.703971,2.438401,19.19,0.84,-0.11,13.61
50.703954,2.438136,18.8,0.48,-0.57,10.46
50.703954,2.438136,18.8,1.03,-1.73,9.11
50.703932,2.43788,18.85,-0.47,-2.71,10.41
50.703932,2.43788,18.85,0.25,-0.59,11.55
50.703897,2.437622,19.45,1.73,-2.16,11.61
50.703897,2.437622,19.45,-1.02,-2.36,12.32
50.70384,2.437357,20.53,1.13,-2.43,10.18
50.70384,2.437357,20.53,1.33,-0.96,12.96
50.703771,2.437088,20.66,2.28,-1.34,9.77
50.703771,2.437088,20.66,2.21,-0.93,7.64
50.703686,2.436825,20.5,1.32,-0.33,16.97
50.703686,2.436825,20.5,1.5,-0.68,9.65
50.703591,2.436579,20.02,0.29,-2.62,8.47
50.703591,2.436579,20.02,1.42,-0.35,10.04
50.703495,2.436336,20.47,-0.11,-0.92,7.77
50.703495,2.436336,20.47,0.96,-1.86,12.97
50.703394,2.436087,20.54,0.34,-0.7,10.62
50.703394,2.436087,20.54,-0.09,0.45,13.09
50.70329,2.435841,20.74,0.23,-1.07,11.97
50.70329,2.435841,20.74,1.11,-0.7,8.81
50.703188,2.435587,21.06,2.38,-1.04,9.83
50.703188,2.435587,21.06,1.05,0.16,8.05
50.703087,2.435334,20.75,2.31,0.23,8.03
50.703087,2.435334,20.75,0.42,0.36,8.47
50.702987,2.43509,20.27,1.95,-0.61,7.83
50.702987,2.43509,20.27,0.58,0.58,10.58
50.70289,2.434851,19.96,1.45,-0.65,11.38
50.70289,2.434851,19.96,2.21,-0.12,12.12
50.702799,2.434618,19.66,1.19,-0.17,10.74
50.702799,2.434618,19.66,0.12,0.52,11.4
50.702705,2.434389,19.06,0.35,-0.64,9.82
50.702705,2.434389,19.06,0.14,-0.84,10.19
50.702609,2.434162,18.82,0.52,-0.18,10.15
50.702609,2.434162,18.82,-0.22,-0.33,10.68
50.702517,2.433942,18.39,1.71,-1.1,8.79
50.702517,2.433942,18.39,1.32,0.3,10.11
50.702425,2.43373,18.03,0.79,0.39,9.3
50.702425,2.43373,18.03,1,-0.48,11.42
50.702334,2.433519,18.03,0.84,-1.34,10.76
50.702334,2.433519,18.03,1.68,-1.01,8.06
50.702246,2.433303,18.2,0.52,-1.44,9.36
50.702246,2.433303,18.2,0.13,0.35,9.77
50.702155,2.433086,18.11,0.97,-0.57,12.4
50.702155,2.433086,18.11,0.28,-0.2,8.54
50.702066,2.432869,18,-0.23,-0.5,9.24
50.701983,2.432651,18.05,0.19,-0.99,9.91
50.701983,2.432651,18.05,0.15,-0.59,9.11
50.701897,2.432439,17.68,0.94,-0.09,7.24
50.701897,2.432439,17.68,0.87,-0.47,10.98
50.701813,2.432231,17.43,0.54,-1.08,10.11
50.701813,2.432231,17.43,0.6,-0.26,9.85
50.701733,2.432025,17.15,1.05,-0.7,9.32
50.701733,2.432025,17.15,1.09,-1.19,10.98
50.701653,2.431826,16.81,0.83,-0.49,7.63
50.701653,2.431826,16.81,-0.92,0.22,9.62
50.701578,2.431627,16.94,0.28,0.45,10.42
50.701578,2.431627,16.94,0.68,1.2,11.58
50.7015,2.431424,16.65,0.82,-0.4,10.07
50.7015,2.431424,16.65,0.28,0.04,12.57
50.701433,2.431217,16.49,2.82,-0.41,8.71
50.701433,2.431217,16.49,0.36,-0.72,9.1
50.701373,2.431009,16.33,1.71,-0.41,11.64
50.701373,2.431009,16.33,1.74,-0.55,11.01
50.701312,2.430808,15.9,1.11,-0.53,10.01
50.701312,2.430808,15.9,0.89,-0.66,10.36
50.701253,2.430611,15.53,0.94,-0.96,9.16
50.701253,2.430611,15.53,0.86,-1.22,8.98
50.701194,2.430413,15.19,1.62,-2.02,12.04
50.701194,2.430413,15.19,1.18,-1.66,9.89
50.701133,2.430224,14.76,0.69,-0.68,9.92
50.701133,2.430224,14.76,1.05,-1.3,8.75
50.701065,2.430049,14.13,1.22,-1.42,10.31
50.701065,2.430049,14.13,2.43,-0.98,10.38
50.700997,2.429884,13.09,3.01,-1.41,10.3
50.700997,2.429884,13.09,2.21,-1.6,10.73
50.700936,2.429739,11.77,1.77,-2,10.29
50.700936,2.429739,11.77,2.86,-2.59,8.99
50.700879,2.429623,10.24,2.93,-0.66,9.52
50.700879,2.429623,10.24,2.54,-0.16,9.75
50.700815,2.429538,8.3,3.7,1.31,11.12
50.700815,2.429538,8.3,1.84,1.11,9.98
50.700757,2.429476,6.57,2.09,1.11,11.14
50.700757,2.429476,6.57,0.93,0.17,11.49
50.700716,2.429419,5.48,1.11,2.36,15.21
50.700716,2.429419,5.48,1.58,0.71,12.22
50.700699,2.42934,5.12,1.22,3.17,9.61
50.700699,2.42934,5.12,-0.11,2.11,8.16
50.700709,2.429254,6.09,-1.34,1.88,8.78
50.700738,2.429168,7.14,-0.51,-0.15,9.74
50.700738,2.429168,7.14,-0.52,0.09,10.75
50.700785,2.429077,8.62,0.83,0.13,10.34
50.700785,2.429077,8.62,-0.65,-0.65,8.64
50.70083,2.428971,9.85,-1.22,0.22,8.63
50.70083,2.428971,9.85,1.64,-0.73,8.91
50.700878,2.428842,10.24,-0.12,-0.05,8.41
50.700878,2.428842,10.24,-0.34,-0.22,8.15
50.700927,2.428717,10.9,0.62,-0.33,10.07
50.700927,2.428717,10.9,0.17,0.1,10.23
50.70098,2.428588,10.91,-0.3,-0.18,9.54
50.70098,2.428588,10.91,-0.21,0.3,8.27
50.701032,2.428453,11.13,-0.27,0.3,8.77
50.701032,2.428453,11.13,0.39,0.4,11.07
50.70108,2.428313,11.42,0.7,0.19,10.7
50.70108,2.428313,11.42,1.42,-0.2,9.06
50.701128,2.428168,10.98,1.24,-0.51,11.23
50.701128,2.428168,10.98,0.6,-0.57,9.05
50.701181,2.428029,10.76,0.92,-0.6,9.69
50.701181,2.428029,10.76,1.16,0.02,11.05
50.701226,2.427891,10.56,1.09,0.18,12.06
50.701226,2.427891,10.56,1.69,-0.36,11.09
50.70127,2.427763,10.32,0.45,-0.37,9.33
50.70127,2.427763,10.32,0.26,-1.25,9.42
50.701316,2.427641,10.15,-0.18,-1.1,8.52
50.701316,2.427641,10.15,-0.67,-1.32,12.33
50.701356,2.427514,10.77,-0.49,0.01,7.34
50.701356,2.427514,10.77,-0.78,-0.24,9.46
50.701397,2.427365,11.52,0.33,-0.6,11.83
50.701397,2.427365,11.52,-0.5,-0.49,10.05
50.701441,2.427208,12.89,-0.48,0.79,10.81
50.701441,2.427208,12.89,0.72,0.95,10.27
50.701488,2.427028,13.69,0.37,-1.47,9.75
50.701488,2.427028,13.69,-1.35,-0.34,9.9
50.701531,2.426842,14.13,-0.68,-1.73,10.35
50.701531,2.426842,14.13,-0.91,-0.03,9.03
50.701579,2.426645,14.18,-0.83,0.01,10.7
50.701579,2.426645,14.18,-0.55,-0.83,12.13
50.701619,2.426443,14.49,1.54,0.83,9.95
50.701619,2.426443,14.49,-0.39,1.51,9.04
50.701662,2.426245,14.83,-0.24,-1.37,11.91
50.701704,2.426053,15.09,2.81,-0.26,8.83
50.701704,2.426053,15.09,0.24,-1.36,8.67
50.701749,2.42586,14.95,0.7,-0.95,10.49
50.701749,2.42586,14.95,0.94,0.46,11.21
50.701791,2.42566,14.71,1.21,1.75,10.63
50.701791,2.42566,14.71,1.71,1.13,9.95
50.701839,2.425456,14.84,1.65,2,9.63
50.701839,2.425456,14.84,1.94,-0.77,9.95
50.701884,2.425251,14.83,0.81,-0.52,9.07
50.701884,2.425251,14.83,0.92,-0.67,9.66
50.701924,2.425056,14.64,-0.12,-0.04,8.64
50.701924,2.425056,14.64,-0.75,0.03,9.89
50.701963,2.424857,14.94,1.13,1.13,10.77
50.701963,2.424857,14.94,1.69,-0.25,9.96
50.702004,2.424653,15.11,1.21,-2.46,10.32
50.702004,2.424653,15.11,0.67,0.71,11.12
50.702045,2.424441,15.48,0.97,0.77,10.21
50.702045,2.424441,15.48,-0.5,-1.13,8.85
50.702072,2.424234,15.44,1.57,-1.51,10.56
50.702072,2.424234,15.44,-0.18,-0.3,10.16
50.702093,2.424022,15.56,0.58,0.7,9.23
50.702093,2.424022,15.56,-0.39,0.03,9.41
50.702105,2.423807,15.02,1.62,-0.79,10.19
50.702105,2.423807,15.02,-0.16,-1.58,11.02
50.702118,2.423596,14.83,0.49,-1.29,10.35
50.702118,2.423596,14.83,1,0.45,9.17
50.702122,2.423388,15.09,1.11,0.42,10.5
50.702122,2.423388,15.09,2.04,-1.11,10.1
50.702126,2.423179,14.85,1.26,-0.84,9.11
50.702126,2.423179,14.85,1.02,-0.54,9.02
50.702129,2.422973,14.36,0.36,-0.26,11.03
50.702129,2.422973,14.36,0.83,-0.93,8.7
50.702127,2.422774,13.86,1.34,0.51,9
50.702127,2.422774,13.86,2.48,0.53,11.47
50.702124,2.422578,13.36,1.04,1.29,10.8
50.702124,2.422578,13.36,1.51,0.34,11.16
50.702125,2.422384,12.94,-0.12,-0.07,10.31
50.702125,2.422384,12.94,0.75,-1.37,8.44
50.702122,2.422194,13.18,0.23,0.6,10.66
50.702122,2.422194,13.18,-0.91,0.34,9.8
50.702121,2.422013,13.45,1.42,0.85,10.72
50.702122,2.421826,13.64,-0.42,-1.09,10.27
50.702122,2.421826,13.64,2.12,-0.66,10.32
50.70212,2.421628,13.21,2.85,1.79,7.93
50.70212,2.421628,13.21,0.83,-0.86,10.73
50.702119,2.421453,11.46,1.4,-0.13,13.05
50.702119,2.421453,11.46,1.48,2.2,11.31
50.702119,2.421301,10.08,1.66,2.61,11.22
50.702119,2.421301,10.08,1.44,-1.17,10.56
50.702119,2.42116,9.67,0.54,-0.94,9.26
50.702119,2.42116,9.67,-0.71,-1.49,11.28
50.702114,2.42102,9.95,0.65,-1.92,10.57
50.702114,2.42102,9.95,1.2,-2.34,10.95
50.702095,2.420881,10.71,-0.92,-1.63,10.97
50.702095,2.420881,10.71,-0.07,-0.23,11.13
50.702061,2.42074,11.1,0.37,0.16,10.31
50.702061,2.42074,11.1,1.24,-2.16,10.08
50.70202,2.420594,11.79,1.43,1.12,9.57
50.70202,2.420594,11.79,1.3,-0.8,11.2
50.701971,2.42044,12.36,0.28,0.49,10
50.701971,2.42044,12.36,-0.58,-1.73,10.35
50.701924,2.42028,12.46,0.68,0.27,10.93
50.701924,2.42028,12.46,0.17,1.95,10.61
50.701878,2.420114,12.78,-0.33,-0.03,10.11
50.701878,2.420114,12.78,0.6,-0.84,7.95
50.701836,2.419941,13.25,0.11,0.27,10.26
50.701836,2.419941,13.25,1.96,0.17,11.03
50.701799,2.419765,13.11,0.79,0.97,10.41
50.701799,2.419765,13.11,0.04,0.94,9.48
50.701771,2.419583,12.67,2.22,2.5,10.1
50.701771,2.419583,12.67,0.05,2.73,8.87
50.701755,2.419401,12.38,0.49,1.47,10.06
50.701755,2.419401,12.38,1.19,2.25,11.52
50.701749,2.419224,12.13,0.64,1.47,10.03
50.701749,2.419224,12.13,-0.98,3.17,11.01
50.701758,2.419055,11.96,-0.14,0.03,10.11
50.701758,2.419055,11.96,0.17,1.35,9.14
50.701781,2.418875,12.25,-0.39,2.46,8.04
50.701781,2.418875,12.25,1.21,-0.21,10.04
50.701825,2.418703,12.67,-1.08,0.14,10.07
50.701825,2.418703,12.67,0.31,-1.28,10.11
50.701883,2.41855,13.12,0.51,-1.82,12.01
50.701939,2.418403,13.51,-1.29,0.52,10.74
50.701939,2.418403,13.51,-0.32,0,10.23
50.702004,2.41824,14.43,-1.81,-0.43,10.32
50.702004,2.41824,14.43,-1.02,-0.8,14.02
50.702071,2.418055,14.99,0.91,0.79,10.56
50.702071,2.418055,14.99,-0.27,1.47,7.15
50.702133,2.417843,15.11,-0.78,-0.47,11.77
50.702133,2.417843,15.11,-2.17,0.05,14.96
50.702193,2.417632,15.5,0.27,-0.35,11.95
50.702193,2.417632,15.5,0.92,-1.25,11.25
50.702245,2.417415,15.68,2.19,-0.09,9.75
50.702245,2.417415,15.68,0.59,0.75,8.59
50.702291,2.417209,15.59,1.22,0.32,10.24
50.702291,2.417209,15.59,1.13,-0.21,10.47
50.702335,2.41701,15.43,-0.31,-1.39,10
50.702335,2.41701,15.43,-0.51,-0.01,11.04
50.702377,2.416806,15.53,-0.34,-1.36,7.71
50.702377,2.416806,15.53,1.52,-0.26,10.08
50.702426,2.416595,15.54,1.56,-1.63,10.06
50.702426,2.416595,15.54,-0.05,1.72,10.01
50.702474,2.416381,15.09,0.22,0.11,9.93
50.702474,2.416381,15.09,0.9,-0.4,9.43
50.702525,2.416183,14.46,0.8,0.73,10.68
50.702525,2.416183,14.46,0.03,0.22,10.85
50.702574,2.415997,13.96,0.31,-0.96,7.87
50.702574,2.415997,13.96,1.6,0.58,11.12
50.702619,2.415819,13.44,-0.93,-0.73,10.93
50.702619,2.415819,13.44,-0.5,-0.87,10.3
50.702664,2.415641,13.54,0.84,0.09,9.17
50.702664,2.415641,13.54,1.69,0.1,9.22
50.702704,2.415468,13.69,0.9,1.11,11.81
50.702704,2.415468,13.69,0.2,-0.23,8.95
50.702744,2.415293,13.58,2.62,-0.56,9.26
50.702744,2.415293,13.58,2.59,-1.62,9.83
50.702782,2.415118,12.92,1.99,-1.07,9.37
50.702782,2.415118,12.92,1,-1.91,8.24
50.702817,2.414952,12.33,1.47,-0.32,7.99
50.702817,2.414952,12.33,0.7,-1.83,10.59
50.70285,2.414797,11.69,3.37,-0.27,10.48
50.70285,2.414797,11.69,2.21,-1.23,11
50.702882,2.414656,10.3,3.46,-0.11,11.4
50.702882,2.414656,10.3,4.79,-0.76,9.96
50.702911,2.414532,8.69,1.48,-0.21,8.71
50.702932,2.414427,6.74,1.92,-1.64,10.17
50.702932,2.414427,6.74,1.35,-2.59,8.75
50.702942,2.414351,5.83,1.31,-2.74,9.64
50.702942,2.414351,5.83,0.77,-4.25,10.04
50.702941,2.414273,5.5,0.82,-3.86,9.09
50.702941,2.414273,5.5,0.27,-3.45,10.06
50.70291,2.414212,5.96,0.44,-2.79,9.98
50.70291,2.414212,5.96,0.08,-1.1,11.02
50.702858,2.41417,6.72,-0.79,-0.87,10.21
50.702858,2.41417,6.72,-1.31,-0.13,10.44
50.702793,2.414143,8.19,0.64,-0.43,10.25
50.702793,2.414143,8.19,0.28,0.06,9.94
50.702724,2.414106,8.44,-0.62,0.86,10.06
50.702724,2.414106,8.44,-0.52,0.07,9.48
50.702648,2.414062,9.31,-0.27,0.05,9.51
50.702648,2.414062,9.31,-0.46,-0.02,10.14
50.702565,2.414013,10.04,-0.67,-0.27,10.08
50.702565,2.414013,10.04,-0.13,-0.44,9.47
50.702478,2.413961,10.44,0.14,0.05,9.98
50.702478,2.413961,10.44,-0.13,0.14,9.83
50.702388,2.413904,10.73,0.8,-0.26,9.7
50.702388,2.413904,10.73,1.15,-0.81,9.5
50.702299,2.41385,10.4,0.51,-0.41,10.03
50.702299,2.41385,10.4,1.12,-0.43,10.41
50.702215,2.4138,9.89,-0.05,-0.4,10.32
50.702215,2.4138,9.89,-0.13,-0.1,9.5
50.702134,2.413746,9.94,0.1,-0.83,9.71
50.702134,2.413746,9.94,1.14,-0.51,10.21
50.702049,2.413694,10.28,0.32,0,10.05
50.702049,2.413694,10.28,1.22,0.07,10.19
50.701961,2.413641,10.26,0.4,0.09,9.66
50.701961,2.413641,10.26,0.99,-0.36,10.75
50.701872,2.413594,10.26,0.72,0.22,10.04
50.701872,2.413594,10.26,0.23,0.23,9.92
50.701784,2.413545,10.4,-0.3,0.79,9.54
50.701784,2.413545,10.4,-0.11,1,10.26
50.701698,2.41348,10.64,0.23,0.45,10.15
50.701698,2.41348,10.64,0.49,-0.71,10.15
50.701612,2.413407,10.99,0.67,0.41,9.48
50.701612,2.413407,10.99,0.53,-0.23,10.09
50.701528,2.413327,11.07,0.52,-0.23,8.92
50.701528,2.413327,11.07,1.03,-0.28,9.19
50.701442,2.413243,11.08,1.33,0.05,9.33
50.701358,2.413153,11.05,1.14,0.65,10.04
50.701358,2.413153,11.05,1.56,-0.34,10.04
50.701278,2.413063,10.95,0.71,0.29,10.09
50.701278,2.413063,10.95,1.8,-0.79,9.41
50.7012,2.412971,10.96,1.41,0.34,10.49
50.7012,2.412971,10.96,0.87,-0.36,9.26
50.701121,2.412881,10.89,1.7,-0.48,9.16
50.701121,2.412881,10.89,1.66,-0.52,10.15
50.701045,2.41279,10.92,-0.26,-0.35,9.11
50.701045,2.41279,10.92,0.74,-0.96,9.91
50.700966,2.412698,10.94,0.99,-1.16,9.05
50.700966,2.412698,10.94,0.32,-1.34,9.82
50.700892,2.412601,10.87,1.18,-0.34,9.94
50.700892,2.412601,10.87,1.47,-1.27,9.6
50.700817,2.412511,10.92,0.99,-0.86,9.38
50.700817,2.412511,10.92,1.64,-1.44,10.26
50.70074,2.412424,11.18,1.7,-1.04,11.21
50.70074,2.412424,11.18,0.91,-2.14,9.98
50.700658,2.41234,11.39,1.64,-2.49,10.14
50.700658,2.41234,11.39,0.61,-1.97,11.39
50.700571,2.412258,11.51,1.29,-1.87,9.34
50.700571,2.412258,11.51,0.9,-2.3,9.22
50.700476,2.412201,11.48,1.21,-1.65,9.46
50.700476,2.412201,11.48,0.85,-1.07,10.07
50.700374,2.412165,11.72,0.91,-0.15,10.45
50.700374,2.412165,11.72,0.55,-0.33,10.18
50.700268,2.412144,11.89,1.34,-0.87,10.24
50.700268,2.412144,11.89,0.57,-1.03,8.7
50.700161,2.412124,12.12,0.35,-0.58,9.36
50.700161,2.412124,12.12,1.24,-0.95,9.11
50.700051,2.412104,12.3,1.41,-1.11,8.82
50.700051,2.412104,12.3,0.87,-0.3,9.71
50.69994,2.41208,12.46,0.47,-1.08,9.85
50.69994,2.41208,12.46,0.84,-0.17,9.98
50.699828,2.412057,12.73,0.93,0.07,10.23
50.699828,2.412057,12.73,1.36,-0.42,8.47
50.69971,2.412031,13.03,1.23,-0.07,9.16
50.69971,2.412031,13.03,1.26,-0.28,9.28
50.699596,2.412004,13.47,1.06,0.58,7.91
50.699596,2.412004,13.47,0.38,1.17,10.64
50.699481,2.411964,13.59,0.93,2.33,10.42
50.699481,2.411964,13.59,1.01,1.65,9.3
50.699365,2.411909,14.03,1.29,1.71,9.12
50.699249,2.411822,14.31,1.31,1.24,10.48
50.699249,2.411822,14.31,1.73,0.76,10.04
50.69914,2.411704,14.65,0.8,0.39,11.1
50.69914,2.411704,14.65,0.71,-0.57,9.83
50.699038,2.411562,14.99,-0.16,-0.56,11.64
50.699038,2.411562,14.99,1.35,0.38,10.26
50.69894,2.411407,15.21,1.24,-0.22,10.07
50.69894,2.411407,15.21,2,-0.35,9.95
50.698849,2.411241,15.44,1.32,-1.27,9.21
50.698849,2.411241,15.44,0.48,-0.31,10.19
50.698759,2.41107,15.63,1.71,-1.35,11.46
50.698759,2.41107,15.63,1.23,-0.61,10.21
50.698665,2.4109,15.88,1.41,-0.65,10.23
50.698665,2.4109,15.88,1.56,-0.23,10.4
50.698569,2.410725,16.06,0.54,-0.64,9.73
50.698569,2.410725,16.06,1.97,-1.08,9.38
50.698472,2.410549,16.08,1.2,-0.71,9.39
50.698472,2.410549,16.08,2.15,-0.47,11.6
50.698376,2.410373,16.27,1.29,-0.31,9.86
50.698376,2.410373,16.27,2.43,-1.19,9.98
50.698278,2.410195,16.55,0.81,-0.59,9.14
50.698278,2.410195,16.55,0.62,-0.02,8.32
50.698179,2.410015,16.76,1.22,-0.57,10.56
50.698179,2.410015,16.76,0.65,-0.63,10.18
50.698078,2.409834,16.78,1.85,-0.88,8.92
50.698078,2.409834,16.78,1.61,-0.51,8.92
50.697978,2.409653,16.98,0.49,-0.52,9.9
50.697978,2.409653,16.98,2.07,0.43,10
50.697878,2.40947,17.11,0.68,1.2,10.23
50.697878,2.40947,17.11,1.12,0.56,9.57
50.697776,2.409283,17.19,1.06,-0.34,10.2
50.697776,2.409283,17.19,1.1,0.09,10.44
50.697681,2.409087,17.51,3.25,0.15,10.47
50.697681,2.409087,17.51,2.4,0.12,9.26
50.697593,2.40889,16.88,1.46,0.38,10.26
50.697593,2.40889,16.88,1.89,-0.03,7.97
50.69751,2.408698,16.05,1.12,0.38,9.35
50.69751,2.408698,16.05,2.36,-0.41,8.51
50.69743,2.408509,15.88,0.76,-0.33,9.18
50.69743,2.408509,15.88,1.1,-0.68,9.13
50.697351,2.408321,15.59,2.81,-0.62,10.11
50.697351,2.408321,15.59,2.36,-2.82,9.58
50.697268,2.408142,14.83,2.48,-2.29,10.25
50.697183,2.407995,13.68,1.39,-3.24,8.78
50.697183,2.407995,13.68,1.95,-2.88,11.08
50.697092,2.407882,13.38,2.21,-3.86,9.44
50.697092,2.407882,13.38,0.13,-2.35,8.23
50.696986,2.407798,13.55,1.51,-2.1,10.34
50.696986,2.407798,13.55,0.08,-1.34,9.55
50.69687,2.407761,13.93,0.59,-0.97,8.88
50.69687,2.407761,13.93,0.13,-1.43,9.58
50.696747,2.407739,14.49,0.06,-0.3,9.87
50.696747,2.407739,14.49,-0.19,0.3,9.6
50.696616,2.407714,14.95,0.3,0.18,10.96
50.696616,2.407714,14.95,0.94,-0.1,9.48
50.69648,2.407678,15.42,0.04,-0.33,11.75
50.69648,2.407678,15.42,1.04,-0.3,9.4
50.696343,2.407627,15.81,0.79,-0.77,10.43
50.696343,2.407627,15.81,1.68,-0.17,9.95
50.696201,2.407574,15.71,1.23,-0.9,9.65
50.696201,2.407574,15.71,0.93,-0.74,9.55
50.696064,2.407521,15.48,0.37,-0.22,10.24
50.696064,2.407521,15.48,0.57,-0.13,10.11
50.695931,2.407462,15.64,0.45,1.35,10.22
50.695931,2.407462,15.64,0.83,-0.79,10.14
50.695804,2.407394,15.63,0.05,0.53,9.5
50.695804,2.407394,15.63,0.82,-0.02,9.4
50.695665,2.407291,16,1.04,0.3,9.56
50.695665,2.407291,16,-0.02,0.18,11.72
50.695533,2.407181,16.25,1.06,0.07,9.14
50.695533,2.407181,16.25,0.94,-1.16,9.91
50.695407,2.407067,16.35,0.9,1.83,10.18
50.695407,2.407067,16.35,0.57,1.32,10.73
50.695285,2.406949,16.06,1.22,0.89,9.57
50.695285,2.406949,16.06,0.7,1.01,11.15
50.695173,2.406835,15.87,0.98,-0.3,9.2
50.695173,2.406835,15.87,0.89,-1,10.47
50.695066,2.406699,15.76,0.65,-1.26,10.94
50.695066,2.406699,15.76,1.19,-0.21,9.68
50.694961,2.406553,15.5,1.75,-0.69,10.1
50.694961,2.406553,15.5,1.45,-0.07,9.54
50.694857,2.406409,15.02,2.46,-0.44,10.03
50.694857,2.406409,15.02,1.51,-0.52,10.31
50.694758,2.406275,14.19,1.54,-0.42,9.82
50.694758,2.406275,14.19,2.26,-0.38,10.8
50.694665,2.40615,13.47,1.4,0.29,10.87
50.694665,2.40615,13.47,1.27,0.56,10.19
50.694577,2.406028,12.96,2.1,0.61,9.17
50.694495,2.405899,12.52,1.46,0.51,10.66
50.694495,2.405899,12.52,0.64,0.83,10.47
50.694423,2.405763,12.24,1.01,-0.21,11.19
50.694423,2.405763,12.24,1.71,-0.43,10.66
50.694355,2.405622,12.2,0.4,0.61,9.82
50.694355,2.405622,12.2,0,0.57,10.49
50.69428,2.405466,12.44,1.38,-0.54,10.51
50.69428,2.405466,12.44,0.38,1.12,10.31
50.694217,2.405319,12.39,0.78,1.13,10.35
50.694217,2.405319,12.39,1.05,1.37,9.77
50.694165,2.405162,12.57,1.19,1.09,9.32
50.694165,2.405162,12.57,1.58,0.39,8.16
50.69413,2.404995,12.36,1.45,-0.31,10.87
50.69413,2.404995,12.36,1.2,-0.62,9.91
50.694104,2.404826,12.24,0.73,-1.15,9.69
50.694104,2.404826,12.24,1.05,-1.83,10.54
50.694075,2.404662,12.39,1.56,-1.91,13.55
50.694075,2.404662,12.39,1.16,-1.8,10.13
50.694038,2.404495,12.57,0.54,-1.14,11.27
50.694038,2.404495,12.57,1.13,-0.8,9.7
50.693988,2.404332,12.77,1.27,-1.35,10.16
50.693988,2.404332,12.77,0.06,-0.64,10.51
50.693932,2.404188,12.75,1.41,-0.76,10.19
50.693932,2.404188,12.75,1.19,-0.05,9
50.693871,2.404051,12.67,0.91,-1,9.9
50.693871,2.404051,12.67,0.79,-0.59,10.07
50.693809,2.403908,12.37,-0.16,0.55,9.58
50.693809,2.403908,12.37,0.58,-0.09,9.74
50.693744,2.403766,12.54,0.53,0.84,9.43
50.693744,2.403766,12.54,0.87,0.07,11.43
50.693678,2.403623,12.48,0.42,0.12,10.32
50.693678,2.403623,12.48,0.68,0.35,10.66
50.693599,2.403462,12.66,0.99,0.34,9.66
50.693599,2.403462,12.66,0.42,-0.34,9.88
50.693527,2.403316,12.57,1.13,-0.51,10.73
50.693527,2.403316,12.57,2.74,-0.15,10.86
50.693459,2.403167,12.31,2.56,-0.99,10.22
50.693459,2.403167,12.31,2.65,-0.34,10.06
50.693396,2.403029,10.99,2.79,-0.92,9.49
50.693342,2.402913,9.64,2.39,-0.08,10.73
50.693342,2.402913,9.64,1.78,-0.23,10
50.693301,2.402807,8.48,1.56,0.35,10.59
50.693301,2.402807,8.48,1.28,0.11,9.94
50.693269,2.402703,7.83,1.71,-0.07,10.12
50.693269,2.402703,7.83,2.39,0.27,9.8
50.693241,2.402613,6.6,2.55,0.02,10.5
50.693241,2.402613,6.6,2.2,-0.09,10.15
50.693223,2.402536,5.11,0.71,0.28,10.12
50.693223,2.402536,5.11,0.87,-0.34,10.45
50.693212,2.402451,4.34,0.01,-0.18,10.24
50.693212,2.402451,4.34,-0.58,-0.2,10.4
50.693206,2.402381,4.95,-1.32,0.51,10.34
50.693206,2.402381,4.95,-1.55,-0.98,9.56
50.693203,2.402293,6.18,-0.42,-0.52,10.83
50.693203,2.402293,6.18,1.35,-0.46,10.53
50.693203,2.40218,8.05,-1.2,-0.88,9.89
50.693203,2.40218,8.05,-0.43,-1.68,9.75
50.693197,2.402056,9.47,-1.18,-1.02,10.2
50.693197,2.402056,9.47,0.98,-1.92,10.96
50.693171,2.401911,10.28,0.22,-2.04,10.43
50.693171,2.401911,10.28,0.79,-0.59,10.54
50.693129,2.401776,10.55,0.49,-0.95,11.13
50.693129,2.401776,10.55,0.65,-0.24,8.47
50.693083,2.401647,10.77,0.86,-0.46,9.87
50.693083,2.401647,10.77,0.71,-0.72,10.97
50.693025,2.401523,10.97,0.19,-0.01,10.16
50.693025,2.401523,10.97,-0.07,-0.92,10.1
50.692969,2.401394,11.63,0.52,-0.77,10.21
50.692969,2.401394,11.63,0.46,-0.67,9.04
50.692908,2.401259,11.86,0.26,-0.66,9.76
50.692908,2.401259,11.86,1.51,-1.13,10.26
50.692846,2.401121,12.06,1.95,-1.21,10.02
50.692846,2.401121,12.06,0.22,0.04,10.36
50.692784,2.400983,11.85,0.92,-1.13,9.98
50.692784,2.400983,11.85,0.72,-0.6,10.41
50.692732,2.400857,12.04,1.4,-0.82,9.86
50.692732,2.400857,12.04,0.43,-0.9,9.57
50.692668,2.400715,12.01,0.1,-0.07,8.78
50.692668,2.400715,12.01,1.21,-0.85,8.93
50.692601,2.400572,11.95,0.71,-1.13,9.09
50.692601,2.400572,11.95,-0.05,-0.63,9.84
50.692532,2.400436,11.94,1.81,-0.69,12.51
50.692463,2.400294,11.91,0.71,-0.43,10.85
50.692463,2.400294,11.91,1.46,-0.87,11.13
50.692397,2.400159,11.56,1.57,-0.34,10.69
50.692397,2.400159,11.56,1.58,-0.76,10.83
50.692335,2.400032,11.19,1.04,-0.12,10.32
50.692335,2.400032,11.19,1.71,-0.95,9.95
50.692274,2.399912,10.91,1.18,-0.86,9.82
50.692274,2.399912,10.91,0.71,0.5,9.67
50.692213,2.3998,10.57,0.59,-0.88,9.9
50.692213,2.3998,10.57,1.07,-1.13,11.11
50.692153,2.399686,10.53,0.6,-0.58,12.3
50.692153,2.399686,10.53,1.3,-0.66,11.68
50.692093,2.399569,10.56,0.92,-0.74,10.81
50.692093,2.399569,10.56,1.02,-0.71,10.04
50.692033,2.399451,10.44,1.02,0.24,9.32
50.692033,2.399451,10.44,-0.08,-0.54,10.61
50.691974,2.399337,10.35,1.41,-0.59,10.68
50.691974,2.399337,10.35,0.51,-0.53,9.28
50.691914,2.399228,10.3,0.48,-0.37,10.02
50.691914,2.399228,10.3,0.49,0.08,9.39
50.691854,2.399117,10.23,1.14,-0.72,10.28
50.691854,2.399117,10.23,0.4,-0.58,9.55
50.691797,2.399013,10.06,0.4,-0.37,8.71
50.691797,2.399013,10.06,0.91,-0.69,12.14
50.69174,2.398906,10.09,1.05,-0.71,9.75
50.69174,2.398906,10.09,0.78,-0.23,10.3
50.691683,2.398796,10.07,0.67,-0.46,9.87
50.691683,2.398796,10.07,0.8,-0.85,9.6
50.691625,2.398685,10.12,0.76,-0.9,9.63
50.691625,2.398685,10.12,0.66,-1.31,10.35
50.691569,2.398572,9.99,0.4,-1.62,9.73
50.691569,2.398572,9.99,-0.23,-0.73,9.12
50.691516,2.39846,9.9,-0.67,-1.21,11.28
50.691516,2.39846,9.9,-0.05,-0.34,11.2
50.691457,2.398346,10.6,-0.45,-1.7,11.28
50.691457,2.398346,10.6,0.03,0.55,9.76
50.69139,2.39823,11.54,-0.58,-0.87,9.47
50.69139,2.39823,11.54,-0.68,-0.47,10.49
50.691314,2.398108,12.53,-0.91,0.61,10.97
50.691314,2.398108,12.53,0.4,-0.91,9.54
50.69123,2.397979,13.35,-0.54,-0.04,10.95
50.691144,2.397843,13.88,0.1,-0.76,9.84
50.691144,2.397843,13.88,0.97,-0.22,11.57
50.691056,2.397699,14.27,0.72,0.22,10.41
50.691056,2.397699,14.27,0.82,-0.37,8.39
50.690969,2.397555,14.05,1.37,0.29,9.57
50.690969,2.397555,14.05,-1.86,1.07,11.35
50.69088,2.397412,14.27,0.26,0.21,11.5
50.69088,2.397412,14.27,0.1,0.76,10.3
50.690791,2.397265,14.47,2.33,-2.55,10.15
50.690791,2.397265,14.47,0.63,-1.17,12.56
50.690698,2.397124,14.12,1.15,-0.49,9.64
50.690698,2.397124,14.12,-0.04,-0.49,9.81
50.690609,2.396981,14.13,0.51,1.15,7.16
50.690609,2.396981,14.13,1.45,0.17,9.67
50.690523,2.396835,13.63,0.31,-0.82,9.67
50.690523,2.396835,13.63,2.44,-1.59,9.53
50.690441,2.396698,12.73,0.78,-0.6,11.36
50.690441,2.396698,12.73,4.76,-0.33,9.54
50.690367,2.396567,11.77,1.87,-0.56,11.39
50.690367,2.396567,11.77,2.06,-1.33,11.02
50.690302,2.396448,10.52,-0.01,-0.05,10.7
50.690302,2.396448,10.52,0.51,0.37,12.77
50.690241,2.396338,9.74,0.18,-0.56,9.91
50.690241,2.396338,9.74,0.18,-0.11,11.09
50.690184,2.396236,10.25,0.06,-0.99,11.98
50.690184,2.396236,10.25,2.22,-1.14,8.95
50.690125,2.396126,10.35,2.47,-0.63,10.16
50.690125,2.396126,10.35,1.18,-0.34,10.82
50.690067,2.396018,10.14,2.5,-0.73,11.49
50.690067,2.396018,10.14,2.05,-0.69,9.57
50.690011,2.395916,8.96,1.24,-0.38,9.75
50.690011,2.395916,8.96,0.68,-2.33,10.31
50.68996,2.395828,8.23,0.81,-0.88,10.75
50.68996,2.395828,8.23,0.36,-1.27,9.24
50.689909,2.395733,8.75,-0.39,-1.07,9.7
50.689909,2.395733,8.75,-0.06,-1.79,10.3
50.689853,2.395646,10.03,0.43,-1.59,10.13
50.689853,2.395646,10.03,0.94,-0.68,10.77
50.689775,2.395565,10.73,1.17,0.18,8.84
50.689775,2.395565,10.73,0.59,-0.41,9.88
50.689692,2.395487,11.3,1.62,0.37,9.12
50.689603,2.395403,11.14,1.2,0.81,10.79
50.689603,2.395403,11.14,1.84,0.99,8.85
50.689516,2.395323,10.86,0.84,0.45,9.81
50.689516,2.395323,10.86,2.29,-0.07,9.94
50.689441,2.39523,10.01,1.71,0.87,10.83
50.689441,2.39523,10.01,2.53,0.03,9.26
50.689382,2.395126,8.9,2.26,-0.25,8.22
50.689382,2.395126,8.9,2.89,0.29,9.27
50.689334,2.395035,7.38,2.86,-0.26,10.17
50.689334,2.395035,7.38,2.67,-0.9,10.08
50.689299,2.394964,5.54,1.19,-1.66,9.95
50.689299,2.394964,5.54,1.34,-2.87,9.53
50.689268,2.394907,5.12,0.9,-3.77,9.53
50.689268,2.394907,5.12,0.02,-3.05,9.65
50.689228,2.394871,5.51,-0.57,-2.64,9.59
50.689228,2.394871,5.51,-0.16,-3.1,10.42
50.689172,2.394867,6.34,0.21,-2.15,9.49
50.689172,2.394867,6.34,-0.05,-2.16,9.55
50.689109,2.394901,8,-0.48,-0.07,9.83
50.689109,2.394901,8,0.8,-0.26,10.12
50.689041,2.394958,8.49,0.88,-0.2,9.93
50.689041,2.394958,8.49,-0.73,-0.07,9.26
50.688967,2.395013,8.85,0.44,2.45,10.69
50.688967,2.395013,8.85,1.11,1.34,9.5
50.688887,2.39505,8.85,1.47,1.57,9.28
50.688887,2.39505,8.85,0.53,1.33,10.1
50.688805,2.395062,8.97,-1.11,1.71,10.22
50.688805,2.395062,8.97,-0.19,1.83,7.74
50.688719,2.395037,9.69,-0.94,2.31,7.49
50.688719,2.395037,9.69,-1.35,2.81,11.96
50.688631,2.394977,10.83,-0.03,0,10.46
50.688631,2.394977,10.83,-0.15,-1.24,11.13
50.688547,2.394872,12.21,-1.15,-0.54,7.86
50.688547,2.394872,12.21,1.03,0.17,9.54
50.688463,2.394745,12.95,0.99,-0.13,12.65
50.688463,2.394745,12.95,-0.05,-0.25,9.44
50.688379,2.394613,13.15,0.37,-0.81,9.17
50.688379,2.394613,13.15,-0.2,-0.91,10.04
50.688291,2.394478,13.76,1.12,-1.98,11.23
50.688291,2.394478,13.76,1.09,-1.47,11.15
50.688196,2.394347,14.11,2.23,-2.4,11.04
50.688196,2.394347,14.11,0.85,-2.65,9.39
50.688093,2.394226,13.8,0.16,-3.04,10.25
50.687983,2.394132,13.51,0.45,-2.25,9.13
50.687983,2.394132,13.51,0.34,-1.39,10.74
50.687867,2.394071,13.71,0.96,-0.47,9.32
50.687867,2.394071,13.71,-0.46,0.27,8.52
50.687745,2.394048,14.1,0.99,-0.26,8.86
50.687745,2.394048,14.1,1.87,-0.36,10.08
50.687618,2.394029,14.02,1.44,-0.87,10.93
50.687618,2.394029,14.02,1.89,-0.1,9.1
50.687496,2.394014,13.57,1.01,-0.86,9.34
50.687496,2.394014,13.57,0.6,-0.37,10.29
50.687379,2.394002,13.12,1.57,0.45,10.8
50.687379,2.394002,13.12,1.45,-0.05,9.23
50.687265,2.393991,12.44,1.29,1.03,10.2
50.687265,2.393991,12.44,0.67,1.31,9.68
50.68715,2.393974,12.19,0.57,0.82,10.23
50.68715,2.393974,12.19,1.31,1.07,9.95
50.68704,2.393945,11.77,0.88,1.94,10.29
50.68704,2.393945,11.77,-0.29,2.33,9.67
50.686938,2.393888,11.85,0.07,1.52,10.3
50.686938,2.393888,11.85,-0.17,2.38,10.06
50.686842,2.393794,12.5,0.22,2.2,8.6
50.686842,2.393794,12.5,1.29,0.65,12.65
50.68676,2.393665,13.05,0.4,-0.6,10.03
50.68676,2.393665,13.05,0.26,-1.65,8.63
50.686689,2.393513,13.37,0.38,-2.92,11.77
50.686689,2.393513,13.37,0.8,-3.54,10.63
50.686614,2.39336,13.41,-0.11,-1.77,10.31
50.686614,2.39336,13.41,-0.89,-1.56,6.82
50.686521,2.393224,13.95,-1.24,-1.31,8.76
50.686521,2.393224,13.95,0.02,-2.15,10.93
50.68641,2.393115,14.75,0.32,-0.43,9.59
50.68641,2.393115,14.75,-0.5,-0.17,8.49
50.686287,2.393023,15.41,-0.39,-0.4,8.05
50.686287,2.393023,15.41,-0.1,-0.78,10.02
50.686157,2.392929,16.42,-0.07,-0.83,8.42
50.686157,2.392929,16.42,-0.11,-1.19,11.86
50.686021,2.392834,17.01,-0.86,-0.54,10.2
50.686021,2.392834,17.01,-0.29,-1.43,8.63
50.68587,2.392748,17.88,0.06,-1,9.73
50.68571,2.392663,18.74,-0.02,-1.23,11.86
50.68571,2.392663,18.74,-0.58,0.23,8.18
50.685547,2.392583,19.57,0.22,-1.34,8.74
50.685547,2.392583,19.57,0.12,-0.47,10.49
50.685379,2.392497,20.45,-0.11,0.63,11.16
50.685379,2.392497,20.45,1.56,-1.11,9.95
50.685205,2.392407,20.29,0.09,0.46,9.97
50.685205,2.392407,20.29,1.22,-1.39,10.99
50.685027,2.392314,20.85,-0.54,0.24,8.06
50.685027,2.392314,20.85,-0.57,0.1,10.66
50.684846,2.392221,21.39,0.92,-0.68,9.62
50.684846,2.392221,21.39,0.63,-0.02,9.42
50.684664,2.392122,21.73,1.05,-0.04,8.78
50.684664,2.392122,21.73,-0.26,0.2,9.33
50.684482,2.392018,21.62,2.74,-0.23,11.13
50.684482,2.392018,21.62,2.03,-0.75,6.47
50.6843,2.391915,21.33,1.13,0.35,10.45
50.6843,2.391915,21.33,-1.2,-1.38,15.78
50.684118,2.391818,20.79,0.09,-0.97,11.73
50.684118,2.391818,20.79,2.12,-1.09,9.74
50.683948,2.391721,20.17,2.39,-1.4,11.77
50.683948,2.391721,20.17,1.13,-1.25,11.97
50.68378,2.391631,19.65,3.03,0.25,9.09
50.68378,2.391631,19.65,1.92,-0.86,8.65
50.683616,2.391541,19.05,2.29,0.44,9.02
50.683616,2.391541,19.05,0.84,-0.71,8.63
50.683457,2.391456,18.42,1.46,0.11,6.24
50.683457,2.391456,18.42,2,-0.89,8.15
50.683302,2.391374,17.8,1.4,-2.72,10.76
50.683302,2.391374,17.8,0.28,-2.39,10.48
50.683157,2.391297,17.22,0.17,-1.26,8.76
50.683157,2.391297,17.22,0.13,-1.37,11.49
50.683013,2.391243,16.98,1.39,-3.26,9.5
50.683013,2.391243,16.98,1.73,-2.53,11.66
50.682862,2.391225,17.12,0.78,-1.63,8.59
50.682862,2.391225,17.12,0.65,-0.68,9.09
50.682714,2.39124,16.91,0.41,-0.52,7.45
50.682714,2.39124,16.91,0.11,1.61,8.06
50.682568,2.391268,16.75,0.47,1.39,8.49
50.682568,2.391268,16.75,1.12,0.96,10.55
50.682412,2.391285,17.01,0.06,-0.17,10.97
50.682412,2.391285,17.01,0.06,0.68,14.14
50.682261,2.39127,17.22,0.28,1.63,9.92
50.682105,2.391241,17.48,0.31,0.82,9.6
50.682105,2.391241,17.48,0.81,0.85,9.17
50.681946,2.391181,17.81,0.58,0.1,9.48
50.681946,2.391181,17.81,0.26,1.25,12.65
50.681791,2.391099,17.55,0.89,1.61,13.12
50.681791,2.391099,17.55,1.5,2.38,8.62
50.681647,2.39099,16.73,-0.18,2.32,10.36
50.681647,2.39099,16.73,0.43,1.99,9.48
50.681519,2.390848,16.49,1.32,-0.19,10.85
50.681519,2.390848,16.49,-0.39,0.27,9.52
50.681408,2.390683,16.91,0.56,0.36,10.7
50.681408,2.390683,16.91,0.44,0.41,10.89
50.681292,2.390514,17.28,0.73,0.62,12.31
50.681292,2.390514,17.28,1.19,1.22,4.3
50.681179,2.39034,17.5,-0.04,0.11,8.64
50.681179,2.39034,17.5,-0.3,-0.87,12.61
50.681065,2.39016,17.62,1.55,-0.53,6.9
50.681065,2.39016,17.62,0.6,-1.16,10.7
50.680946,2.389992,17.51,0.37,-0.34,11.47
50.680946,2.389992,17.51,1.82,-0.61,8.99
50.680822,2.389818,17.68,-0.63,0.95,9.07
50.680822,2.389818,17.68,-0.24,0.25,11.41
50.680698,2.389649,17.82,-0.47,-1.15,12.8
50.680698,2.389649,17.82,0.49,-0.58,10.45
50.68058,2.38948,18.02,-1.27,-1.42,11.05
50.68058,2.38948,18.02,-0.32,-1.68,7
50.680457,2.389313,18.35,1.5,-0.9,10.43
50.680457,2.389313,18.35,0.51,-0.36,10.28
50.680331,2.38915,18.46,-0.04,0.51,11.1
50.680331,2.38915,18.46,-0.78,-0.48,11.01
50.680202,2.388989,18.46,0.22,-0.64,9.58
50.680202,2.388989,18.46,-0.27,-0.11,10.34
50.680074,2.388828,18.9,-0.18,-0.67,8.23
50.680074,2.388828,18.9,-1.81,-1.2,13.91
50.679944,2.388666,19,-0.19,0.33,11.5
50.679944,2.388666,19,-0.4,0.15,12.38
50.67981,2.388502,19.11,2.22,-1.1,10.68
50.67981,2.388502,19.11,1.17,0.93,7.42
50.679677,2.388333,19.1,-0.09,1.34,9.66
50.679677,2.388333,19.1,-0.07,-0.04,10.12
50.679546,2.388156,19.47,-1.41,-0.15,12.84
50.679415,2.387968,19.89,0.99,-0.46,15.8
50.679415,2.387968,19.89,-0.21,-0.2,8.21
50.67929,2.38776,20.24,-0.34,-0.59,6.97
50.67929,2.38776,20.24,1.98,-0.54,8.04
50.679157,2.387556,20.15,0.1,0.69,13.77
50.679157,2.387556,20.15,-1.03,-1.02,10.85
50.679025,2.387349,20.59,0.89,-1.88,12.87
50.679025,2.387349,20.59,2.49,-0.95,9.05
50.678897,2.387139,20.32,1.44,1.22,9.84
50.678897,2.387139,20.32,0.27,-0.47,12.45
50.678771,2.386932,20.1,-0.22,-0.52,9.8
50.678771,2.386932,20.1,1.97,-0.49,12.52
50.67865,2.386727,19.65,0.76,0.62,10.78
50.67865,2.386727,19.65,0.77,-0.2,6.32
50.678532,2.386528,19.28,0.29,0.33,12.07
50.678532,2.386528,19.28,1.36,0.11,8.83
50.678415,2.386334,18.81,0.96,-0.13,12.05
50.678415,2.386334,18.81,1.43,-0.83,10.9
50.678296,2.386146,18.45,2.48,-0.32,8.77
50.678296,2.386146,18.45,1.44,0.4,7.37
50.678179,2.385965,17.94,0.53,-1.19,8.71
50.678179,2.385965,17.94,0.62,-1.26,9.56
50.678064,2.385789,17.62,0.77,-0.97,10.83
50.678064,2.385789,17.62,0.58,-2.14,11.12
50.677945,2.385616,17.21,0.99,-1.1,9.16
50.677945,2.385616,17.21,0.69,0.16,8.8
50.677829,2.385461,16.74,4.39,-1.06,10.98
50.677829,2.385461,16.74,0.18,0.09,12.06
50.677718,2.385312,16.4,0.63,-0.29,10.2
50.677718,2.385312,16.4,0.97,0.74,9.5
50.677611,2.385169,16.16,0.99,1.12,7.89
50.677611,2.385169,16.16,0.59,-0.06,9.54
50.677504,2.385023,15.81,1.52,-0.12,10.2
50.677504,2.385023,15.81,1.7,0.45,7.49
50.677401,2.384874,15.41,1.83,-0.56,10.43
50.677401,2.384874,15.41,0.88,0.76,9.07
50.677298,2.384725,15.18,1.35,-0.11,10.16
50.677298,2.384725,15.18,-0.39,-0.98,9.88
50.677202,2.384575,14.7,1.21,-0.49,9.98
50.677202,2.384575,14.7,2.02,-0.23,11.41
50.67711,2.384431,14.5,2.31,0.72,10.17
50.67711,2.384431,14.5,1.08,-0.23,9.52
50.677021,2.384289,14.16,1.74,0.79,10.13
50.676934,2.384149,13.88,1.09,-1.13,8.47
50.676934,2.384149,13.88,1.45,-1.37,9.95
50.676851,2.384009,13.65,1.56,-0.92,10.88
50.676851,2.384009,13.65,-0.24,-0.69,9.24
50.676767,2.383873,13.4,1.52,-0.37,10.47
50.676767,2.383873,13.4,0.41,-1.04,11.1
50.676685,2.383739,13.09,1.32,-1.92,10.21
50.676685,2.383739,13.09,1.35,-0.11,11.27
50.676607,2.38361,12.53,1.47,-1.26,9.99
50.676607,2.38361,12.53,0.99,-0.52,8.38
50.676531,2.383485,11.84,2.46,-1.2,15.73
50.676531,2.383485,11.84,1.23,-0.43,9.79
50.676461,2.383364,11.03,1.39,-0.01,9.66
50.676461,2.383364,11.03,1.14,-0.17,10.61
50.676396,2.383256,10.29,1.16,-0.64,10.57
50.676396,2.383256,10.29,1.25,-0.66,10.35
50.676335,2.383154,9.9,0.96,-0.45,10.17
50.676335,2.383154,9.9,1.48,-0.12,9.76
50.676278,2.383051,9.47,1.74,1.5,9.11
50.676278,2.383051,9.47,2.03,2.52,9.73
50.676231,2.382947,8.56,3.02,2.6,9.39
50.676231,2.382947,8.56,2.25,4.27,6.41
50.676209,2.382841,7.43,1.69,3.87,9.21
50.676209,2.382841,7.43,1.6,2.69,11.43
50.67622,2.382736,7.54,1.4,2.79,11.15
50.67622,2.382736,7.54,-0.04,1.61,10.5
50.676256,2.382636,7.99,-0.91,0.34,9.81
50.676256,2.382636,7.99,-1.4,-0.07,9.55
50.676322,2.38256,9.31,-0.82,-0.52,9.72
50.676322,2.38256,9.31,1.06,-0.91,9.68
50.67641,2.382493,10.3,-0.59,-1.01,10.12
50.67641,2.382493,10.3,-0.77,-0.03,9.86
50.6765,2.382407,11.51,0.6,-0.24,9.41
50.6765,2.382407,11.51,-0.03,-0.65,9.43
50.676593,2.382308,12.39,0.06,-1.85,10.38
50.676593,2.382308,12.39,-0.12,-1.29,11.17
50.676688,2.382203,13.62,-0.69,-0.71,9.34
50.676688,2.382203,13.62,-0.3,-0.42,10.67
50.676785,2.382083,15,0.69,-0.36,8.75
50.676785,2.382083,15,0.05,-0.31,10.21
50.676889,2.381945,15.79,-0.21,-0.46,10.56
50.676998,2.38179,16.72,0.01,-0.35,9.87
50.676998,2.38179,16.72,0.54,0.11,10.78
50.677117,2.381624,17.25,0.78,-0.35,10.59
50.677117,2.381624,17.25,0.17,0.41,9.92
50.677235,2.38146,17.42,0.47,-0.04,9.68
50.677235,2.38146,17.42,1.63,-0.48,9.73
50.677352,2.381304,17.03,1.45,0.43,10.12
50.677352,2.381304,17.03,0.87,0.24,9.28
50.677467,2.381155,16.67,0.54,0.18,10.03
50.677467,2.381155,16.67,0.47,-0.3,9.59
50.677587,2.381017,16.69,0.82,-0.22,10.53
50.677587,2.381017,16.69,0.67,0.57,10.85
50.677706,2.380874,16.77,0.06,-0.19,9.69
50.677706,2.380874,16.77,0.75,-0.74,9.77
50.677831,2.380736,16.99,1.02,-1.25,9.75
50.677831,2.380736,16.99,0.93,-0.7,10
50.677957,2.380597,17.08,0.33,-0.82,8.91
50.677957,2.380597,17.08,0.49,-0.25,10.53
50.678083,2.380458,17.11,0.64,-0.36,10.27
50.678083,2.380458,17.11,0.49,-0.26,9.71
50.678214,2.380329,17.03,1.98,-1.48,9.36
50.678214,2.380329,17.03,0.68,-0.95,10.19
50.678345,2.3802,16.5,1.22,-0.9,9.66
50.678345,2.3802,16.5,1.34,-0.56,8.65
50.678468,2.380076,15.88,1.02,-1.71,9.81
50.678468,2.380076,15.88,0.32,-0.22,9.29
50.678588,2.379953,15.29,0.98,-0.37,9.61
50.678588,2.379953,15.29,1,-0.1,9.09
50.678701,2.379845,14.67,0.99,-0.5,8.11
50.678701,2.379845,14.67,0.89,-0.7,9.76
50.678809,2.379739,13.89,0.21,0.61,9.52
50.678809,2.379739,13.89,1.36,-0.34,10.33
50.678914,2.379636,13.1,1.71,-0.79,9.47
50.678914,2.379636,13.1,1.55,-0.72,9.51
50.679011,2.379534,12.27,1.28,-0.07,10.07
50.679011,2.379534,12.27,2.75,-0.84,10.37
50.679098,2.379448,11.11,1.57,0.03,9.98
50.679098,2.379448,11.11,1.9,-0.57,10.08
50.679174,2.379374,9.6,1.31,-0.92,9.86
50.679174,2.379374,9.6,1.59,-0.85,9.69
50.679244,2.379308,7.91,1.28,-0.97,9.44
50.679244,2.379308,7.91,1.96,-2.73,9.91
50.679308,2.379245,6.71,1.09,-2.68,9.42
50.679308,2.379245,6.71,1.44,-2.53,9.73
50.679346,2.379186,5.66,0.75,-2.54,10.66
50.679346,2.379186,5.66,-0.21,-3.01,12.71
50.679358,2.379116,5.66,0.5,-1.62,9.64
50.679342,2.379038,6.48,-0.1,-3.05,9.64
50.679342,2.379038,6.48,-0.28,-1.89,9.89
50.679296,2.378961,7.72,-0.7,-0.76,9.85
50.679296,2.378961,7.72,-1.04,-0.49,9.97
50.679231,2.378884,9.05,1.05,-0.17,11.23
50.679231,2.378884,9.05,-0.39,-0.31,9.71
50.679167,2.378798,9.48,-0.26,-0.33,10.41
50.679167,2.378798,9.48,-0.34,0.91,10.38
50.6791,2.378699,10.5,1.3,-0.69,10.13
50.6791,2.378699,10.5,0.61,-0.19,10.4
50.679029,2.378588,11.17,-0.8,-0.23,10.96
50.679029,2.378588,11.17,-0.72,1,9.71
50.678958,2.378474,11.47,0.11,-0.25,9.25
50.678958,2.378474,11.47,-0.51,1.05,10.08
50.678886,2.378356,11.95,-0.22,-0.29,8.95
50.678886,2.378356,11.95,1.22,-0.67,9.41
50.678812,2.378232,12.43,1.48,-1.37,10.67
50.678812,2.378232,12.43,2.18,-0.58,10.1
50.678733,2.37811,12.45,1.07,0.32,8.52
50.678733,2.37811,12.45,1.1,0.25,10.27
50.678665,2.377972,12.35,-0.16,1.23,10.5
50.678665,2.377972,12.35,1.19,0.54,10.14
50.678599,2.37784,12.37,0.46,1.25,11.4
50.678599,2.37784,12.37,0.59,1.48,10.22
50.678533,2.377708,12.17,0.58,0.7,8.12
50.678533,2.377708,12.17,1.96,0.68,10.05
50.678478,2.377565,11.92,1.26,0.23,9.89
50.678478,2.377565,11.92,1.02,0.74,9.5
50.678421,2.377425,11.77,-0.22,0.63,10.56
50.678421,2.377425,11.77,2.51,-0.06,10.77
50.678373,2.377279,11.75,1.27,1,9.69
50.678373,2.377279,11.75,1.08,0.47,10.73
50.678328,2.377123,11.9,2.56,-1.46,9.7
50.678328,2.377123,11.9,0.82,-0.67,10.29
50.678285,2.376959,11.89,2,-0.86,10.71
50.678285,2.376959,11.89,1.03,-0.01,11.48
50.678241,2.376799,11.94,-0.22,0.44,8.23
50.678241,2.376799,11.94,0.93,-0.74,9.5
50.678195,2.376641,12.11,2.2,-2.28,10.31
50.678195,2.376641,12.11,0.97,-1.82,10.22
50.678141,2.376475,12.83,0.27,-0.93,10.11
50.678141,2.376475,12.83,1.34,-1.22,8.58
50.678072,2.376328,13.12,0.61,-0.57,10.76
50.677996,2.376184,13.41,1.69,-1.02,9.88
50.677996,2.376184,13.41,1.95,-1.54,11
50.677912,2.376048,13.45,1.01,-0.89,10.41
50.677912,2.376048,13.45,1.11,0.3,9.5
50.677827,2.375911,13.57,1.69,-0.97,10.42
50.677827,2.375911,13.57,1.67,-0.08,11.08
50.677743,2.375773,13.57,2.05,1,11.52
50.677743,2.375773,13.57,2.2,0.97,9.76
50.677663,2.375634,13.58,1.58,-0.17,9.17
50.677663,2.375634,13.58,1,1.42,10.73
50.677592,2.375483,13.44,0.8,2.21,10.06
50.677592,2.375483,13.44,1.26,2.76,10.78
50.677539,2.375316,13.2,1.6,2.04,10.91
50.677539,2.375316,13.2,1.32,2.31,10.1
50.677512,2.375132,13,0.44,2.23,10.92
50.677512,2.375132,13,0.89,0.74,8.08
50.677503,2.374943,13.36,-0.2,0.92,10.97
50.677503,2.374943,13.36,0.5,2.85,9.64
50.677509,2.37475,13.67,1.47,0.28,10.71
50.677509,2.37475,13.67,0.67,0.15,10.35
50.677522,2.374561,13.58,1.71,-0.25,10.57
50.677522,2.374561,13.58,0.88,0.33,10.11
50.677534,2.374371,13.45,0.76,0.18,9.96
50.677534,2.374371,13.45,0.63,0.06,10.77
50.677545,2.374183,13.56,0.11,-0.11,9.21
50.677545,2.374183,13.56,0.08,-0.17,10.18
50.677556,2.373995,13.79,0.86,-0.59,9.39
50.677556,2.373995,13.79,1.04,-0.32,10.48
50.67757,2.373806,13.89,0.86,-0.05,9.73
50.67757,2.373806,13.89,0.81,-0.31,10.21
50.677585,2.373609,13.64,0.88,-0.2,9.32
50.677585,2.373609,13.64,0.76,-0.67,10.36
50.677599,2.373413,13.33,1.38,0.19,9.29
50.677599,2.373413,13.33,0.27,-1.36,10.11
50.677612,2.37322,13.47,1.53,-0.75,10.85
50.677612,2.37322,13.47,1.66,-2.04,10.12
50.677622,2.373031,13.54,0.44,-1.02,9.56
50.677622,2.373031,13.54,0.69,-1.58,9.32
50.677617,2.37284,13.6,2.15,-2.38,9.04
50.677617,2.37284,13.6,1.73,-2.71,10.73
50.677596,2.372648,13.83,0.7,-2.63,11.37
50.677596,2.372648,13.83,1.36,-1.87,10.53
50.677555,2.37246,14.1,0.57,-0.68,11.4
50.677495,2.372279,14.4,-0.31,-0.36,10.35
50.677495,2.372279,14.4,0.43,-0.35,11.28
50.677425,2.372105,14.6,1.14,-0.79,10.16
50.677425,2.372105,14.6,1.15,-0.34,10.18
50.677352,2.371936,14.37,0.64,0.52,9.79
50.677352,2.371936,14.37,0.84,-1.42,9.62
50.677281,2.371774,13.86,1.18,-0.32,10.12
50.677281,2.371774,13.86,0.69,0.66,9.97
50.677216,2.371618,13.4,1.33,-1.33,10.68
50.677216,2.371618,13.4,2,-1.04,9.89
50.677148,2.371461,12.44,2.04,-0.24,10.43
50.677148,2.371461,12.44,2.97,0.55,9.07
50.677082,2.371322,11.41,2.4,0.06,6.51
50.677082,2.371322,11.41,1.24,-0.86,10.85
50.677023,2.371195,10.31,1.26,-0.48,10.99
50.677023,2.371195,10.31,1.76,-1.15,9.24
50.676973,2.371077,9.43,1.21,-1.29,9.81
50.676973,2.371077,9.43,1.13,-0.7,9.39
50.676919,2.370957,9.9,0.71,-1.88,9.83
50.676919,2.370957,9.9,1.34,-0.29,10.48
50.676858,2.370842,9.96,1.03,-0.31,8.75
50.676858,2.370842,9.96,1.87,-0.22,10.12
50.67679,2.370742,9.94,1.16,-0.58,10.29
50.67679,2.370742,9.94,0.41,0.53,11.41
50.676718,2.370654,9.55,2.33,-0.3,11.12
50.676718,2.370654,9.55,0.01,0.18,10.03
50.676651,2.370573,9.35,1,-0.59,10.28
50.676651,2.370573,9.35,1.24,-0.48,9.33
50.676581,2.370485,9.23,1.67,-1.9,9.61
50.676581,2.370485,9.23,0.55,-1.99,9.28
50.676515,2.370406,8.99,0.35,-2.14,9.38
50.676515,2.370406,8.99,0.51,-1.28,9.96
50.676445,2.370342,8.94,1.19,-1.8,10.76
50.676445,2.370342,8.94,0.47,-1.22,9.82
50.676373,2.370312,8.43,0.96,-0.17,10.07
50.676373,2.370312,8.43,1.1,0.37,9.31
50.6763,2.370308,8.6,1.02,-0.75,10.41
50.6763,2.370308,8.6,1.05,-1.33,10.37
50.67622,2.370305,8.31,1.05,0.51,9.62
50.67622,2.370305,8.31,2.03,-0.41,9.91
50.676149,2.370306,7.91,2.79,-0.44,8.8
50.676088,2.370312,6.44,3.13,-0.25,10.27
50.676088,2.370312,6.44,2.23,-0.22,9.62
50.676042,2.370316,4.76,1.17,0.63,8.43
50.676042,2.370316,4.76,0.99,-0.44,13.41
50.67601,2.370316,4.04,1.23,-0.91,11.61
50.67601,2.370316,4.04,0.3,-0.32,8.97
50.675979,2.370315,3.75,-1.24,-0.35,9.65
50.675979,2.370315,3.75,-0.68,-0.48,10.37
50.675938,2.370315,5.23,-0.68,-0.16,10.19
50.675938,2.370315,5.23,-0.63,-0.75,10.16
50.675889,2.370319,6.52,-0.55,-0.06,9.32
50.675889,2.370319,6.52,-1.06,0.32,9.96
50.675823,2.370316,7.61,-0.9,-0.19,11.09
50.675823,2.370316,7.61,1.08,-0.42,10.69
50.675743,2.370304,8.66,-0.08,-0.69,11.33
50.675743,2.370304,8.66,-0.94,0.22,9.63
50.675653,2.370291,9.52,-0.58,0.98,8.74
50.675653,2.370291,9.52,0.15,0.41,11
50.67556,2.370271,10.13,1.02,0.76,10.41
50.67556,2.370271,10.13,0.39,1.7,10.23
50.675467,2.370248,9.99,0.62,1.36,10.64
50.675467,2.370248,9.99,0.4,1.57,9.85
50.675379,2.370209,10.01,-0.12,0.11,8.84
50.675379,2.370209,10.01,2.11,0.17,11.61
50.675295,2.370129,10.01,0.68,1.43,10.76
50.675295,2.370129,10.01,0.44,0.28,9.76
50.675219,2.370036,10.1,-0.08,0.17,8.91
50.675219,2.370036,10.1,1.03,0.76,10.88
50.675149,2.369925,10.31,0,0.29,8.21
50.675149,2.369925,10.31,1.01,0.57,10.36
50.675085,2.369811,10.23,0.49,0.76,10.2
50.675085,2.369811,10.23,0.66,0.15,10.34
50.675028,2.369695,10.5,0.68,0.67,10.73
50.675028,2.369695,10.5,0.25,0.43,10.04
50.674974,2.369572,10.2,0.83,0.08,9.54
50.674974,2.369572,10.2,0.77,-0.14,9.26
50.674926,2.369446,10.37,0.61,-0.52,9.56
50.674926,2.369446,10.37,1.02,-0.06,10.76
50.674884,2.369318,10.2,0.88,-0.03,9.38
50.674884,2.369318,10.2,1.63,-0.3,9.19
50.674843,2.369189,9.76,0.41,-0.23,10.29
50.674843,2.369189,9.76,1.14,-0.61,10.41
50.674807,2.369068,9.44,0.64,-0.82,10.26
50.674807,2.369068,9.44,1.48,-1.33,9.42
50.674768,2.368953,9.05,0.49,-0.41,10.27
50.674728,2.368852,8.87,1.04,-1.83,10.52
50.674728,2.368852,8.87,1.86,-1.86,9.41
50.674684,2.368763,8.33,4.96,-1.88,8.36
50.674684,2.368763,8.33,6.27,1.56,10.34
50.674625,2.368683,7.97,6.82,0.68,7.84
50.674625,2.368683,7.97,3.05,4.12,8.15
50.674573,2.368622,7.51,7.32,3.71,9.18
50.674573,2.368622,7.51,3.39,5.12,6.54
50.674521,2.368573,6.75,2.31,2.42,9.84
50.674521,2.368573,6.75,1.86,3.07,8.98
50.674473,2.368541,5.24,3.36,4.78,6.31
50.674473,2.368541,5.24,2.81,5.62,5.63
50.674427,2.368512,4.23,2.33,2.92,10.37
50.674427,2.368512,4.23,3.06,1.52,8.08
50.674395,2.368492,3.66,2.91,0.66,10.23
50.674395,2.368492,3.66,2.95,2.04,7.58
50.674367,2.368458,3.04,-0.92,1.5,7.11
50.674367,2.368458,3.04,-0.15,2.1,12.23
50.674356,2.368416,2.74,3.7,1.81,7.11
50.674356,2.368416,2.74,7.56,2.26,2.8
50.674356,2.368376,2.55,6.03,5.15,5.29
50.674356,2.368376,2.55,11.23,2.74,7.86
50.674356,2.368376,0,7.79,2.05,5.31
50.674356,2.368376,0,5.16,3.95,4.4
50.674356,2.368376,0,2.72,1.16,9.1
50.674356,2.368376,0,-1.48,3.63,8.87
50.674356,2.368376,0,1.29,1.53,9.65
50.674356,2.368376,0,5.01,1.2,8.24
50.674356,2.368376,0,4.35,1.91,9.66
50.674356,2.368376,0,2.34,2.87,8.56
50.674356,2.368376,0,-0.12,1.96,9.86
