Location-lat,Location-long,Speed,Accelerometer-X,Accelerometer-Y,Accelerometer-Z
50.872894,1.978843,12.3,9.8,-1.28,-0.61
50.872804,1.978941,12.32,9.51,-1.51,-0.34
50.872804,1.978941,12.32,9.5,-1.66,-0.67
50.872714,1.979042,12.32,9.36,-1.68,-0.94
50.872714,1.979042,12.32,8.62,-1.75,-0.66
50.872632,1.979143,12.14,9.75,-1.76,-0.57
50.872632,1.979143,12.14,8.9,-1.78,-0.33
50.872543,1.97924,11.88,9.69,-1.5,-0.96
50.872543,1.97924,11.88,10.41,-1.14,-0.68
50.87246,1.979331,11.4,10.39,-0.55,0.03
50.87246,1.979331,11.4,10.38,-1.24,-0.5
50.872379,1.979425,11.73,9.45,-1.17,-1.08
50.872286,1.979527,12.01,10.02,-1.5,-0.06
50.872286,1.979527,12.01,9.68,-0.83,0.05
50.872286,1.979527,12.01,9.79,-0.73,-0.61
50.872196,1.979626,12.38,9.62,-0.99,-0.27
50.872102,1.979729,12.49,9.07,-0.89,0.11
50.872102,1.979729,12.49,9.91,-1.1,-0.54
50.872008,1.979834,13.16,10.78,-0.58,0.51
50.872008,1.979834,13.16,9.42,-0.93,-0.1
50.87191,1.979946,13.68,9.85,-1.3,-0.43
50.87191,1.979946,13.68,10.29,-1.08,0.43
50.871807,1.980058,13.69,10.49,-1.11,-0.08
50.871807,1.980058,13.69,8.85,-1.46,-1.49
50.871709,1.980172,13.78,9.64,-1.55,-0.02
50.871709,1.980172,13.78,8.69,-1.29,-0.19
50.871616,1.980287,13.79,9.14,-1.51,0.28
50.871616,1.980287,13.79,9.53,-1.4,-0.39
50.871519,1.980402,13.62,8.79,-1.47,-0.47
50.871519,1.980402,13.62,9.72,-1.13,-0.39
50.871424,1.980516,13.6,9.42,-1.4,-0.52
50.871424,1.980516,13.6,9.37,-1.46,0.06
50.871326,1.980628,13.55,10,-1.58,-0.53
50.871326,1.980628,13.55,10.19,-1.54,-0.09
50.87123,1.980735,13.26,10.03,-1.29,0.63
50.87123,1.980735,13.26,9.79,-1.18,0.03
50.87113,1.980848,13.24,9.52,-1.36,-0.81
50.87113,1.980848,13.24,10.2,-1.29,-0.69
50.871033,1.980954,13.29,10.11,-1.12,-0.22
50.871033,1.980954,13.29,8.98,-1.03,-0.93
50.870928,1.981072,13.59,9.84,-1.13,-0.91
50.870928,1.981072,13.59,9.73,-1.94,-0.14
50.870816,1.981198,13.68,9.67,-1.83,-0.16
50.870816,1.981198,13.68,10.07,-1.69,-1.13
50.870722,1.981307,13.37,9.62,-1.81,-1.16
50.870722,1.981307,13.37,9.84,-1.73,0.57
50.870626,1.981416,13.32,9.13,-1.62,-1.3
50.870531,1.981519,12.48,10.21,-1.7,-0.98
50.870531,1.981519,12.48,10.12,-2.14,-0.38
50.870439,1.981619,12.2,9.27,-1.67,-0.06
50.870439,1.981619,12.2,9.43,-1.89,-0.15
50.870352,1.981713,11.92,10.3,-1.47,0.67
50.870352,1.981713,11.92,10.09,-0.96,-0.57
50.870261,1.98181,12.09,10.04,-1.13,-0.97
50.870261,1.98181,12.09,9.65,-1.87,-0.05
50.87017,1.981905,12.17,10.57,-1.58,1.41
50.87017,1.981905,12.17,10.31,-1.52,0.24
50.870079,1.981999,11.88,9.34,-1.66,-0.95
50.870079,1.981999,11.88,9.95,-1.77,0.02
50.869991,1.982088,11.81,9.13,-1.8,-0.62
50.869991,1.982088,11.81,9.15,-1.66,-0.97
50.869901,1.982172,11.63,9.78,-1.68,-0.83
50.869901,1.982172,11.63,10.07,-2,-0.86
50.869816,1.982251,11.33,8.79,-2.39,-1.17
50.869816,1.982251,11.33,9.61,-2.22,-0.83
50.869731,1.982327,10.92,9.79,-2.37,-1.53
50.869731,1.982327,10.92,10.57,-3.23,-0.88
50.86965,1.982393,9.99,9.7,-1.71,-0.93
50.86965,1.982393,9.99,9.25,-1.79,-1.25
50.869568,1.982454,9.81,9.18,-1.28,-1.26
50.869568,1.982454,9.81,10.26,-1.49,-1.5
50.869486,1.982508,9.42,10.36,-1.43,-0.22
50.869486,1.982508,9.42,9.67,-1.49,0.27
50.869403,1.982539,9.3,9.99,-1.54,1.56
50.869403,1.982539,9.3,9.64,-2.07,0.89
50.869323,1.98256,9.24,10.15,-1.61,0.48
50.869323,1.98256,9.24,10.63,-1.52,1.31
50.869245,1.982588,9.11,9.54,-1.87,0.6
50.869245,1.982588,9.11,9.51,-1.83,-0.91
50.869174,1.982638,8.97,9.33,-1.92,-0.91
50.869174,1.982638,8.97,10.32,-1.25,-1.16
50.869105,1.982694,8.94,9.57,-1.04,-1.4
50.869105,1.982694,8.94,9.96,-1.23,-0.83
50.869033,1.982744,9.32,10.29,-0.28,-0.2
50.869033,1.982744,9.32,9.92,-1,-0.32
50.868952,1.982776,9.78,8.7,-1.31,-0.96
50.868865,1.982797,10.04,10.7,-1.29,0.66
50.868865,1.982797,10.04,8.94,-1.55,-1.41
50.86877,1.982822,11.28,9.61,-0.89,-0.03
50.86877,1.982822,11.28,8.63,-0.94,-0.24
50.868671,1.982847,11.77,10.01,-1.68,-1.17
50.868671,1.982847,11.77,8.73,-1.72,-1.62
50.86857,1.982871,11.96,10.44,-1.23,-1.02
50.86857,1.982871,11.96,10.4,-1.08,0.56
50.868458,1.982887,12.74,9.27,-1.58,-0.94
50.868458,1.982887,12.74,9.35,-1.54,-0.62
50.868344,1.982904,12.48,9.72,-1.56,-0.44
50.868344,1.982904,12.48,9.91,-2.06,-0.18
50.868228,1.982915,12.83,10.28,-1.44,-1.2
50.868228,1.982915,12.83,8.84,-1.15,-0.77
50.86811,1.982917,12.87,9.32,-1.98,0.58
50.86811,1.982917,12.87,9.11,-1.73,-0.46
50.867991,1.982908,12.82,9.86,-1.77,-1.23
50.867991,1.982908,12.82,10.16,-1.8,-0.65
50.867875,1.982895,12.51,9.84,-1.26,-0.93
50.867875,1.982895,12.51,9.49,-1.18,1.19
50.867759,1.982875,12.65,9.97,-0.6,-1.44
50.867759,1.982875,12.65,8.91,-1.07,-1.22
50.867647,1.982848,12.86,9.59,-1.38,-0.03
50.867647,1.982848,12.86,9.24,-1.48,-1.38
50.86753,1.98282,12.98,10.46,-1.85,0.51
50.86753,1.98282,12.98,9.68,-1.82,0.37
50.867411,1.982787,13.14,10.41,-1.55,0.65
50.867411,1.982787,13.14,9.02,-1.58,-0.63
50.867294,1.982755,13.19,11.01,-1.87,-0.37
50.867294,1.982755,13.19,9.1,-1.47,-0.87
50.867176,1.982722,12.96,9.32,-1.67,-1.28
50.867176,1.982722,12.96,10.1,-2.1,-0.45
50.867064,1.98269,12.66,10.06,-1.64,-0.99
50.867064,1.98269,12.66,9.31,-1.58,-1.05
50.866953,1.982658,12.56,10.3,-1.31,-0.62
50.866953,1.982658,12.56,10.2,-0.94,-0.58
50.866844,1.982624,12.51,9.55,-1.26,-0.72
50.866844,1.982624,12.51,9.28,-1.14,-0.23
50.866735,1.982585,12.59,10.1,-1.51,-0.84
50.866735,1.982585,12.59,9.13,-1.14,0.23
50.866625,1.98254,12.95,9.59,-0.94,0.02
50.866625,1.98254,12.95,9.74,-0.85,0.46
50.866515,1.982497,12.9,9.81,-0.48,0.32
50.866404,1.982459,13.09,10.83,-1.04,0.5
50.866404,1.982459,13.09,9.8,0.04,-0.29
50.86629,1.98242,13.37,10.81,-0.1,-0.59
50.86629,1.98242,13.37,10.26,-1.73,0.31
50.866163,1.982379,14.67,9.36,-0.52,-0.83
50.866163,1.982379,14.67,9.82,-1.16,-0.15
50.866031,1.982339,15,11,-0.34,-0.06
50.866031,1.982339,15,10.61,-1.6,-0.13
50.865895,1.9823,15.18,9.21,-1.38,-1.7
50.865895,1.9823,15.18,9.96,-1.81,0.51
50.865759,1.98226,15,9.84,-1.78,-1.13
50.865759,1.98226,15,9.34,-1.05,-1.35
50.865622,1.98222,15.15,10.18,-1.31,0.17
50.865622,1.98222,15.15,9.09,-1.52,-1.14
50.865488,1.982181,15.05,8.72,-0.82,-0.6
50.865488,1.982181,15.05,10.52,-1.82,-0.53
50.865355,1.982141,14.79,11.68,-2.7,-1.57
50.865355,1.982141,14.79,8.71,-1.68,-0.68
50.865226,1.982101,14.68,10.09,-2.04,-0.4
50.865226,1.982101,14.68,9.39,-1.54,0.24
50.865098,1.982062,14.33,9.88,-1.72,-0.85
50.865098,1.982062,14.33,9.68,-2.08,-0.62
50.864973,1.982024,14.04,10.08,-1.74,0.13
50.864973,1.982024,14.04,8.96,-2.25,-0.72
50.864846,1.981982,13.85,8.87,-1.97,-0.13
50.864846,1.981982,13.85,10.58,-1.77,-0.14
50.864723,1.981945,13.66,9.45,-1.18,0.31
50.864723,1.981945,13.66,10.75,-1.89,-0.7
50.864602,1.981905,13.44,9.41,-1.86,-0.89
50.864602,1.981905,13.44,9.7,-2.2,-1.02
50.864485,1.981865,13.25,10.45,-1.64,-0.9
50.864485,1.981865,13.25,9.89,-1.98,-0.31
50.86437,1.98183,13.24,10.31,-1.69,-0.07
50.86437,1.98183,13.24,9.22,-1.66,-0.79
50.864257,1.981796,12.93,9.65,-1.81,0.45
50.864257,1.981796,12.93,10.49,-1.93,-1.07
50.864144,1.981761,12.9,9.5,-1.22,0.02
50.864144,1.981761,12.9,9.8,-2.24,0.15
50.864027,1.981723,12.58,9.36,-2.09,-1.28
50.864027,1.981723,12.58,9.45,-1.81,-0.83
50.863917,1.981688,12.17,9.4,-2.08,0.39
50.863812,1.981658,11.81,9.84,-1.58,-1.29
50.863812,1.981658,11.81,9.64,-1.71,-1.71
50.863707,1.981626,11.72,9.95,-2.23,0.07
50.863707,1.981626,11.72,9.84,-1.84,-0.08
50.863607,1.981598,11.29,10.17,-1.73,0.38
50.863607,1.981598,11.29,9.73,-1.9,-0.17
50.863509,1.981568,11.12,8.51,-1.72,-0.61
50.863509,1.981568,11.12,10.11,-1.89,-0.37
50.863412,1.98154,10.78,10.09,-1.77,-0.67
50.863412,1.98154,10.78,9.29,-1.52,-1.33
50.863318,1.98151,10.54,9.12,-1.59,-0.91
50.863318,1.98151,10.54,9.87,-1.92,-0.97
50.863224,1.981482,10.24,9.68,-1.27,-0.88
50.863224,1.981482,10.24,10.4,-1.25,-0.56
50.863134,1.981455,9.95,9.79,-1.12,-0.67
50.863134,1.981455,9.95,9.69,-0.84,0.14
50.863047,1.981428,9.9,8.87,-1.54,-0.63
50.863047,1.981428,9.9,9.4,-1.03,-0.74
50.862955,1.981398,10.72,9.43,-0.67,-1.75
50.862955,1.981398,10.72,9.43,-1.5,-1.71
50.862861,1.981367,10.8,9.61,-1.04,-1.87
50.862861,1.981367,10.8,9.42,-0.56,-0.36
50.862764,1.981337,11.58,10.82,-0.05,-0.75
50.862764,1.981337,11.58,11.18,-0.74,0.45
50.862658,1.981309,12.41,9.28,-0.67,-2.01
50.862658,1.981309,12.41,9.17,-0.75,-0.73
50.862547,1.981278,12.78,11.09,-0.58,-0.65
50.862547,1.981278,12.78,11.22,-1.41,0.34
50.862434,1.981245,13,7.81,-1.33,-0.1
50.862434,1.981245,13,9.08,-1.05,1.4
50.862316,1.981209,13.12,9.85,-1.33,0.24
50.862316,1.981209,13.12,8.96,-1.11,-0.8
50.862202,1.981176,13.03,9.88,-1.39,-0.99
50.862202,1.981176,13.03,9.33,-0.93,0
50.862087,1.981145,13.05,10.25,-1.58,0.09
50.862087,1.981145,13.05,9.61,-2.29,0.02
50.861969,1.98111,13.25,9.06,-1.7,-1.78
50.861969,1.98111,13.25,9.82,-1.3,-0.3
50.861848,1.981069,13.39,10.89,-1.31,-0.03
50.861848,1.981069,13.39,9.52,-0.38,-1.72
50.861729,1.981031,13.79,9.16,-1.59,0.39
50.861609,1.980988,13.85,9.72,-0.61,-0.29
50.861609,1.980988,13.85,9.73,-0.13,-1.35
50.861486,1.980948,14.17,9.48,-1,-0.9
50.861486,1.980948,14.17,9.8,-1.37,1.23
50.861362,1.98091,14.3,10.27,-1.02,-0.41
50.861362,1.98091,14.3,10.25,-1.66,0.14
50.861234,1.980874,14.26,9.01,-1.58,-0.89
50.861234,1.980874,14.26,10.28,-1.75,2.15
50.861105,1.980834,14.68,9.94,-2.12,0.17
50.861105,1.980834,14.68,10.3,-0.79,-1.28
50.860973,1.980794,14.9,9.47,-0.62,-2.01
50.860973,1.980794,14.9,10.04,-1.46,-0.05
50.860841,1.980756,15.05,10.34,-2.22,-1.18
50.860841,1.980756,15.05,10.45,-1.82,0.01
50.860707,1.980716,14.8,9.8,-1.6,0.23
50.860707,1.980716,14.8,9.38,-2.1,-0.46
50.860577,1.980676,14.32,10.19,-1.83,0.68
50.860577,1.980676,14.32,9.87,-2.01,-0.1
50.86045,1.980642,14.03,9.2,-1.79,-1.56
50.86045,1.980642,14.03,9.23,-1.49,0.47
50.860327,1.980604,13.86,10.03,-1.9,-1.39
50.860327,1.980604,13.86,9.84,-0.43,0.14
50.860202,1.980568,14.22,9.33,-1.53,-0.48
50.860202,1.980568,14.22,10.23,-0.88,-0.32
50.860075,1.980529,14.35,10.07,-0.58,-0.3
50.860075,1.980529,14.35,11.03,-1.45,-0.43
50.85995,1.980491,14.59,9.99,-0.41,-0.76
50.85995,1.980491,14.59,11.16,-2.03,-1.11
50.859817,1.980454,15.25,9.27,-1.46,-2.21
50.859817,1.980454,15.25,10.27,-0.92,-2.49
50.85968,1.980411,15.87,8.58,-0.03,0.85
50.85968,1.980411,15.87,9.16,-0.91,-1.12
50.859538,1.98037,16.17,10.71,-0.17,1.46
50.859538,1.98037,16.17,9.74,-1.01,0.02
50.859389,1.980326,16.85,10.59,-0.91,-0.91
50.859389,1.980326,16.85,9.66,-1.12,-0.04
50.859237,1.980277,17.44,8.6,-0.53,-1.53
50.859237,1.980277,17.44,8.62,-1.36,-0.31
50.859081,1.98023,17.8,10.89,-0.14,-0.9
50.859081,1.98023,17.8,10.44,-0.5,-1.37
50.85892,1.980182,18.53,10.37,-1.67,-1.36
50.85892,1.980182,18.53,10.27,-1.32,0.36
50.858753,1.980131,18.58,9.24,-1.41,-0.23
50.858586,1.98009,18.85,9.83,-1.34,-1.61
50.858586,1.98009,18.85,9.38,-0.58,-0.5
50.858417,1.980047,19.11,11.55,-1.24,-1.3
50.858417,1.980047,19.11,9.94,-1.24,-1.12
50.858244,1.980003,19.47,9.89,-1.42,0.28
50.858244,1.980003,19.47,9.02,-1.17,-0.71
50.85807,1.979946,19.46,9.02,-0.54,-0.94
50.85807,1.979946,19.46,9.61,-0.87,-0.24
50.857897,1.9799,19.89,9.92,-1.86,-0.53
50.857897,1.9799,19.89,11.94,-1.22,1.18
50.857721,1.979854,19.81,6.74,-2.6,-1.41
50.857721,1.979854,19.81,10.34,-1.12,0.64
50.857549,1.979804,19.24,9.05,-1.32,-1.01
50.857549,1.979804,19.24,12.33,-1.28,0.47
50.857377,1.979753,19.44,8.41,-0.8,-0.36
50.857377,1.979753,19.44,10.41,-1.71,1.06
50.857207,1.979706,19.41,8.86,-0.43,-0.03
50.857207,1.979706,19.41,10.01,-4.03,-1.02
50.857039,1.979661,18.75,9.93,-5.09,-1.92
50.857039,1.979661,18.75,9.28,-4.25,0.11
50.856884,1.97962,16.94,7.92,-4.92,-1.07
50.856884,1.97962,16.94,9.67,-4.47,-0.32
50.85675,1.979586,14.18,9.65,-4.49,1.3
50.85675,1.979586,14.18,9.26,-3.44,-1.2
50.856639,1.979555,12.58,9.25,-3.67,-1.21
50.856639,1.979555,12.58,9.95,-3.52,1.51
50.856563,1.979527,7.96,8.86,-2.82,-0.48
50.856563,1.979527,7.96,9.54,-2.32,0.6
50.856504,1.979502,6.13,9.17,-3.07,-0.66
50.856504,1.979502,6.13,9.45,-3.27,0.29
50.856461,1.979488,5.11,9.73,-3.22,-0.02
50.856461,1.979488,5.11,9.19,-3.46,-0.5
50.856428,1.979475,3.06,9.59,-3.27,-0.37
50.856428,1.979475,3.06,9.2,-3.28,-0.31
50.856428,1.979475,0,9.47,-1.12,-0.16
50.856428,1.979475,0,9.78,-1.13,-1.12
50.856428,1.979475,0,9.62,-1.37,-0.21
50.856428,1.979475,0,10.27,-1.16,-0.03
50.856428,1.979475,0,9.44,-1.2,0.19
50.856428,1.979475,0,9.97,-1.17,0.18
50.856428,1.979475,0,9.81,-1.18,-0.28
50.856428,1.979475,0,9.86,-1.15,-0.72
50.856428,1.979475,0,9.85,-1.2,0.34
50.856428,1.979475,0,10.02,-1.29,0.01
50.856428,1.979475,0,9.54,-1.25,-0.25
50.856428,1.979475,0,9.66,-1.21,-0.16
50.856428,1.979475,0,9.95,-1.23,-0.06
50.856428,1.979475,0,9.77,-1.35,0.44
50.856428,1.979475,0,9.51,-1.22,0.53
50.856428,1.979475,0,9.81,-1.14,0.16
50.856428,1.979475,0,9.7,-1.12,0.17
50.856428,1.979475,0,9.91,-1.05,0.34
50.856428,1.979475,0,9.65,-1.24,-0.6
50.856428,1.979475,0,9.88,-1.21,-0.25
50.856428,1.979475,0,9.65,-1.3,-0.36
50.856428,1.979475,0,9.73,-1.22,0.38
50.856428,1.979475,0,9.72,-1.13,-0.45
50.856428,1.979475,0,9.91,-1.15,0.06
50.856428,1.979475,0,9.63,-1.17,-0.13
50.856428,1.979475,0,10.04,-1.14,-0.25
50.856428,1.979475,0,9.96,-1.16,0.02
50.856428,1.979475,0,9.39,-1.23,-0.94
50.856428,1.979475,0,9.8,-1.13,-0.12
50.856428,1.979475,0,9.26,-1.31,-0.96
50.856428,1.979475,0,9.91,-1.17,-0.73
50.856428,1.979475,0,9.53,-1.3,-0.79
50.856428,1.979475,0,9.81,-1.1,-0.07
50.856428,1.979475,0,9.36,-1.25,0.02
50.856428,1.979475,0,9.8,-1.18,-0.39
50.856428,1.979475,0,9.76,-1.24,-0.83
50.856428,1.979475,0,9.86,-1.14,-0.7
50.856428,1.979475,0,9.92,-1.19,-0.26
50.856428,1.979475,0,9.88,-1.39,-0.3
50.856428,1.979475,0,9.9,-1.26,-0.22
50.856428,1.979475,0,9.7,-1.23,-0.3
50.856428,1.979475,0,9.77,-1.44,-0.57
50.856428,1.979475,0,9.62,-1.11,-0.12
50.856428,1.979475,0,9.81,-1.18,-0.22
50.856428,1.979475,0,9.72,-1.28,-0.23
50.856428,1.979475,0,9.56,-1.35,-0.66
50.856428,1.979475,0,9.79,-1.19,-0.2
50.856428,1.979475,0,9.87,-1.22,-0.02
50.856428,1.979475,0,10.02,-1.25,-0.7
50.856428,1.979475,0,9.5,-1.32,-0.59
50.856428,1.979475,0,10.18,-1.13,0.35
50.856428,1.979475,0,9.75,-1.25,0.11
50.856428,1.979475,0,10.1,-1.16,-0.83
50.856428,1.979475,0,10.04,-1.34,-0.79
50.856428,1.979475,0,9.92,-1.1,-0.62
50.856428,1.979475,0,9.79,-1.05,0.21
50.856428,1.979475,0,9.88,-1.13,-0.03
50.856428,1.979475,0,9.54,-1.29,-0.58
50.856428,1.979475,0,9.61,-1.2,0.44
50.856428,1.979475,0,10.07,-1.27,-0.58
50.856428,1.979475,0,9.55,-1.14,0.23
50.856428,1.979475,0,9.27,-1.27,-0.81
50.856428,1.979475,0,9.46,-1.32,-0.76
50.856428,1.979475,0,9.97,-1.12,0.08
50.856428,1.979475,0,9.82,-1.31,-0.34
50.856428,1.979475,0,9.63,-1.22,-0.63
50.856428,1.979475,0,9.69,-1.22,-0.37
50.856428,1.979475,0,9.34,-1.18,0.21
50.856428,1.979475,0,10.11,-1.26,-0.5
50.856428,1.979475,0,9.69,-1.27,-0.48
50.856428,1.979475,0,9.49,-1.35,-0.6
50.856428,1.979475,0,9.86,-1.17,-0.02
50.856428,1.979475,0,10.1,-1.34,-0.36
50.856428,1.979475,0,9.38,-1.24,-1.01
50.856428,1.979475,0,9.51,-1.2,-0.46
50.856428,1.979475,0,10.19,-1.22,-0.28
50.856428,1.979475,0,9.56,-1.16,-0.32
50.856428,1.979475,0,9.65,-1.34,-0.31
50.856428,1.979475,0,9.76,-1.4,0.14
50.856428,1.979475,0,10.03,-1.4,0.39
50.856428,1.979475,0,9.65,-1.19,-0.33
50.856428,1.979475,0,9.8,-1.25,-0.23
50.856428,1.979475,0,9.76,-1.23,-0.46
50.856428,1.979475,0,9.81,-1.37,-0.16
50.856428,1.979475,0,9.45,-1.34,-1.05
50.856428,1.979475,0,9.27,-1.18,-0.73
50.856428,1.979475,0,10.06,-1.26,0.23
50.856428,1.979475,0,9.73,-1.25,-0.31
50.856428,1.979475,0,9.62,-1.13,-0.31
50.856428,1.979475,0,9.73,-1.19,0.01
50.856428,1.979475,0,9.75,-1.35,-0.42
50.856428,1.979475,0,9.8,-1.29,-0.23
50.856428,1.979475,0,9.62,-1.13,0.14
50.856428,1.979475,0,9.61,-1.27,-0.59
50.856428,1.979475,0,10.24,-1.26,-0.91
50.856428,1.979475,0,9.49,-1.25,0.44
50.856428,1.979475,0,9.8,-1.43,-0.46
50.856428,1.979475,0,9.75,-1.37,-0.73
50.856428,1.979475,0,9.85,-1.25,-0.3
50.856428,1.979475,0,9.71,-1.2,-0.24
50.856428,1.979475,0,9.62,-1.17,-0.16
50.856428,1.979475,0,9.93,-1.21,-0.4
50.856428,1.979475,0,9.67,-1.28,-0.23
50.856428,1.979475,0,9.84,-1.19,-0.29
50.856428,1.979475,0,9.35,-1.24,-0.98
50.856428,1.979475,0,9.74,-1.24,-0.25
50.856428,1.979475,0,9.74,-1.23,-0.3
50.856428,1.979475,0,9.96,-1.23,-0.4
50.856428,1.979475,0,9.81,-1.09,-0.4
50.856428,1.979475,0,9.42,-1.35,-0.79
50.856428,1.979475,0,9.3,-1.26,-0.73
50.856428,1.979475,0,9.8,-1.14,-0.01
50.856428,1.979475,0,9.52,-1.23,-0.36
50.856428,1.979475,0,9.71,-1.36,-0.33
50.856428,1.979475,0,9.75,-1.09,-1.08
50.856428,1.979475,0,9.3,-1.19,-0.82
50.856428,1.979475,0,9.92,-1.11,-0.19
50.856428,1.979475,0,9.74,-1.27,-0.51
50.856428,1.979475,0,9.71,-1.36,-0.72
50.856428,1.979475,0,9.58,-1.17,-1.29
50.856428,1.979475,0,9.94,-1.41,-0.83
50.856428,1.979475,0,10.11,-1.42,-0.5
50.856428,1.979475,0,9.2,-1.33,-1.14
50.856428,1.979475,0,9.52,-1.29,-0.52
50.856428,1.979475,0,9.7,-1.32,-0.41
50.856428,1.979475,0,9.5,-1.33,-0.21
50.856428,1.979475,0,9.73,-1.22,-0.43
50.856428,1.979475,0,9.56,-1.25,-0.36
50.856428,1.979475,0,10.08,-1.25,-0.73
50.856428,1.979475,0,9.31,-1.26,-1.06
50.856428,1.979475,0,9.47,-1.14,-0.24
50.856428,1.979475,0,9.8,-1.24,-0.26
50.856428,1.979475,0,9.31,-1.35,-0.9
50.856428,1.979475,0,9.91,-1.22,-0.62
50.856428,1.979475,0,9.83,-1.34,-0.85
50.856428,1.979475,0,9.5,-1.22,-0.54
50.856428,1.979475,0,9.13,-1.41,-0.13
50.856428,1.979475,0,9.52,-1.3,-0.93
50.856428,1.979475,0,9.28,-1.15,-0.69
50.856428,1.979475,0,9.8,-1.25,-0.15
50.856428,1.979475,0,9.81,-1.25,-0.3
50.856428,1.979475,0,9.8,-1.16,-0.08
50.856428,1.979475,0,9.66,-1.39,-0.28
50.856428,1.979475,0,9.86,-1.22,-1.34
50.856428,1.979475,0,10.3,-1.12,-0.49
50.856428,1.979475,0,9.55,-1.03,-0.22
50.856428,1.979475,0,9.55,-1.42,-0.34
50.856428,1.979475,0,9.72,-1.17,-0.23
50.856428,1.979475,0,9.66,-1.24,-0.35
50.856428,1.979475,0,9.73,-1.29,-0.11
50.856428,1.979475,0,10.1,-1.2,0.01
50.856428,1.979475,0,9.48,-1.3,-0.5
50.856428,1.979475,0,9.83,-1.22,-0.18
50.856428,1.979475,0,9.51,-1.08,0.24
50.856428,1.979475,0,9.28,-1.3,0.08
50.856428,1.979475,0,9.76,-1.37,-0.34
50.856428,1.979475,0,9.8,-1.28,-0.27
50.856428,1.979475,0,9.83,-1.31,-0.48
50.856428,1.979475,0,9.85,-1.27,-0.41
50.856428,1.979475,0,9.61,-1.22,-0.25
50.856428,1.979475,0,9.73,-1.21,-0.37
50.856428,1.979475,0,9.89,-1.18,0.23
50.856428,1.979475,0,9.93,-1.21,-0.02
50.856428,1.979475,0,9.26,-1.3,-0.94
50.856428,1.979475,0,9.94,-1.12,0.03
50.856428,1.979475,0,10.07,-1.18,-0.51
50.856428,1.979475,0,9.72,-1.13,-0.19
50.856428,1.979475,0,9.6,-1.1,-0.06
50.856428,1.979475,0,9.98,-1.28,-0.3
50.856428,1.979475,0,9.67,-1.31,-0.66
50.856428,1.979475,0,9.79,-1.15,0.03
50.856428,1.979475,0,9.41,-1.21,0.14
50.856428,1.979475,0,9.75,-1.04,-0.18
50.856428,1.979475,0,10.06,-1.24,-0.75
50.856428,1.979475,0,9.73,-1.41,-0.81
50.856428,1.979475,0,9.82,-1.16,0.35
50.856428,1.979475,0,9.54,-1.1,-0.72
50.856428,1.979475,0,9.42,-1.22,0.42
50.856428,1.979475,0,9.35,-1.28,-0.15
50.856428,1.979475,0,9.77,-1.26,-0.34
50.856428,1.979475,0,9.8,-1.21,0.07
50.856428,1.979475,0,10.07,-1.24,-0.2
50.856428,1.979475,0,9.66,-1.34,-0.79
50.856428,1.979475,0,10.01,-1.31,-0.9
50.856428,1.979475,0,9.71,-1.15,-0.39
50.856428,1.979475,0,9.57,-1.39,-0.36
50.856428,1.979475,0,10.16,-1.14,0.26
50.856428,1.979475,0,10.05,-1.39,-0.05
50.856428,1.979475,0,10.32,-1.3,0.17
50.856428,1.979475,0,9.44,-1.24,0.51
50.856428,1.979475,0,9.73,-1.1,-0.24
50.856428,1.979475,0,9.45,-1.12,0.07
50.856428,1.979475,0,9.6,-1.31,-0.77
50.856428,1.979475,0,9.45,-1.36,-0.63
50.856428,1.979475,0,10.08,-1.12,-0.66
50.856428,1.979475,0,9.87,-1.15,-0.15
50.856428,1.979475,0,9.73,-1.17,-0.41
50.856428,1.979475,0,10.02,-1.12,0.21
50.856428,1.979475,0,10.5,-1.36,0.27
50.856428,1.979475,0,9.63,-0.95,0.54
50.856428,1.979475,0,9.83,0.87,-1.04
50.856428,1.979475,0,10.92,1.65,0.55
50.856428,1.979475,0,9.97,0.03,0.02
50.856428,1.979475,0,10.07,0.78,0.21
50.856428,1.979475,0,10.47,0.77,-1.02
50.856424,1.979499,3.18,10.34,1.89,-0.62
50.856424,1.979499,3.18,9.58,-1.17,-0.15
50.856387,1.979489,5.47,9.72,-0.73,0.1
50.856387,1.979489,5.47,9.7,-0.68,0.99
50.856339,1.97948,6.13,10.35,-0.57,1.55
50.856339,1.97948,6.13,9.61,0.75,2.3
50.856284,1.979475,6.78,9.47,0.09,2.43
50.856284,1.979475,6.78,9.43,-0.03,1.51
50.856223,1.979487,7.63,10.63,-1.16,3.08
50.856223,1.979487,7.63,10.4,-0.04,2.31
50.856149,1.979538,9.23,10.74,-0.13,0.07
50.85608,1.97962,9.27,10.34,0.08,0.54
50.85608,1.97962,9.27,10.32,-0.05,-0.05
50.856011,1.979733,10.2,9.83,0.68,-0.46
50.856011,1.979733,10.2,11.34,-2.04,-0.27
50.855947,1.979864,11.26,9.46,0.08,0.83
50.855947,1.979864,11.26,10.77,-1.02,-0.45
50.855878,1.980007,11.97,8.47,0.19,-0.39
50.855878,1.980007,11.97,9.73,0.38,0.03
50.855812,1.980149,12.89,9.43,0.77,-0.36
50.855812,1.980149,12.89,10.22,-0.76,-0.45
50.855741,1.980308,14.07,9.67,-0.77,0.52
50.855741,1.980308,14.07,9.78,-0.3,-0.02
50.855666,1.980483,14.41,10.44,-1.57,-0.7
50.855666,1.980483,14.41,8.88,-1.01,-1.15
50.855597,1.980656,13.98,10.29,-1.02,-0.7
50.855597,1.980656,13.98,9.49,-1.58,-1.03
50.855527,1.980823,14.33,9.07,-1.14,0.02
50.855527,1.980823,14.33,10.51,-1.78,-0.29
50.855451,1.980991,13.94,9.81,-1.46,-0.91
50.855451,1.980991,13.94,9.92,-0.72,-0.24
50.855376,1.981155,13.64,10.29,-1.08,0.54
50.855376,1.981155,13.64,8.87,-0.29,1.24
50.855304,1.981316,13.79,9.77,-2.05,-1.47
50.855304,1.981316,13.79,10.71,-1.57,-0.4
50.855229,1.981482,14.11,10.15,-1.46,-0.44
50.855229,1.981482,14.11,9.35,-0.57,-1.09
50.85515,1.981653,14.38,9.31,-0.86,-0.88
50.85515,1.981653,14.38,10.78,-1.37,-0.04
50.855069,1.981819,14.59,10.16,-1.05,-1.43
50.855069,1.981819,14.59,10.83,-1.23,-0.99
50.854987,1.98199,14.69,9.41,-1.29,-0.52
50.854987,1.98199,14.69,9.62,-1.65,-0.57
50.854903,1.98216,14.79,9.33,-1.68,0.07
50.854903,1.98216,14.79,9.61,-2.08,-0.26
50.854822,1.982333,14.89,9.51,-2.37,-1.59
50.854822,1.982333,14.89,10.6,-1.92,-0.65
50.85474,1.982499,14.57,10.71,-1.67,0.25
50.85474,1.982499,14.57,8.93,-3.08,-1.38
50.854658,1.98265,13.89,9.82,-3.1,0.09
50.854658,1.98265,13.89,9.39,-2.91,0.73
50.854583,1.982784,13.05,9,-3.65,0.26
50.854508,1.982921,12.84,9.78,-3.17,-0.4
50.854508,1.982921,12.84,10.01,-1.62,-0.91
50.85444,1.983032,11.4,9.42,-2.25,-0.67
50.85444,1.983032,11.4,9.48,-1.81,0.34
50.854382,1.983124,9.99,9.56,-2.02,-0.05
50.854382,1.983124,9.99,9.9,-1.89,0.55
50.854326,1.983206,8.86,9.2,-1.76,-1.07
50.854326,1.983206,8.86,9.58,-2.09,-0.88
50.854278,1.98329,8.64,10.18,-1.88,-1.49
50.854278,1.98329,8.64,8.98,-1.8,-1.14
50.854235,1.983368,7.94,8.69,-2,-1.36
50.854235,1.983368,7.94,7.98,-2.5,-0.27
50.854194,1.98344,7.5,8.94,-1.77,-0.71
50.854194,1.98344,7.5,9.55,-1.76,-1.06
50.854153,1.983522,7.46,10.19,-2.12,0.17
50.854153,1.983522,7.46,10.19,-1.76,-1.98
50.854112,1.983602,7.02,8.66,-1.81,-0.82
50.854112,1.983602,7.02,9.24,-1.58,-0.5
50.854072,1.983675,6.82,9.57,-2.05,-0.73
50.854072,1.983675,6.82,8.53,-2.18,-2
50.854031,1.983747,6.38,10.97,-1.68,-1.75
50.854031,1.983747,6.38,9.05,-1.66,-0.81
50.853995,1.983811,6.1,10.02,-1.76,-0.49
50.853995,1.983811,6.1,10.26,-1.66,-0.89
50.853962,1.983869,5.81,8.98,-1.06,0.01
50.853962,1.983869,5.81,9.42,-2.09,-0.28
50.853931,1.983932,5.57,8.24,-1.95,0.57
50.853931,1.983932,5.57,9.32,-2,-1.08
50.8539,1.983991,5.32,9.99,-1.64,-1.22
50.8539,1.983991,5.32,9.92,-1.38,-0.23
50.853871,1.984046,5.22,8.29,-1.98,-0.48
50.853871,1.984046,5.22,9.34,-1.86,-0.76
50.853844,1.984101,4.78,10.06,-1.69,0.46
50.853844,1.984101,4.78,9.48,-1.99,-0.79
50.853819,1.984156,4.64,10.42,-1.81,-0.79
50.853819,1.984156,4.64,9.21,-2.04,-0.45
50.853797,1.984204,4.36,9.86,-2.4,-0.83
50.853797,1.984204,4.36,9.35,-1.86,-1.31
50.853775,1.984251,4.16,10.64,-2.14,-0.57
50.853775,1.984251,4.16,9.43,-1.62,-0.82
50.853755,1.984295,3.87,9.82,-1.78,0.39
50.853739,1.984337,3.55,10.06,-1.9,0.06
50.853739,1.984337,3.55,9.99,-1.6,-0.32
50.853723,1.984379,3.47,9.72,-1.39,-0.07
50.853723,1.984379,3.47,9.58,-1.71,-0.09
50.853709,1.984422,3.62,9.31,-1.61,0.02
50.853709,1.984422,3.62,10.1,-1.91,0.25
50.853692,1.984463,3.38,9.45,-2.28,-0.24
50.853692,1.984463,3.38,9.73,-1.72,0.07
50.853675,1.984495,3.08,9.9,-2.55,0.1
50.853675,1.984495,3.08,9.51,-2.59,-0.21
50.853666,1.984523,2.31,9.92,-2.45,-0.38
50.853666,1.984523,2.31,9.63,-2.6,-0.19
50.853658,1.984538,1.68,9.97,-1.63,-0.04
50.853658,1.984538,1.68,9.32,-2,-0.07
50.853649,1.984548,0.96,9.74,-1.77,-0.27
50.853649,1.984548,0.96,9.71,-1.84,-0.38
50.853649,1.984548,0,9.65,-2.05,-0.02
50.853649,1.984548,0,9.4,-2.02,-0.33
50.853649,1.984548,0,9.71,-1.46,-0.24
50.853649,1.984548,0,9.58,-1.53,-0.38
50.853649,1.984548,0,9.7,-1.78,-0.39
50.853649,1.984548,0,9.78,-1.67,-0.31
50.853649,1.984548,0,9.84,-1.62,-0.36
50.853649,1.984548,0,9.73,-1.43,-0.29
50.853649,1.984548,0,9.68,-1.59,-0.45
50.853649,1.984548,0,9.66,-1.54,-0.36
50.853649,1.984548,0,9.71,-1.47,-0.31
50.853649,1.984548,0,9.8,-1.75,-0.79
50.853649,1.984548,0,9.3,-2.08,-0.57
50.853649,1.984548,0,9.56,-2.22,-0.2
50.853649,1.984548,0,9.7,-1.65,-0.26
50.853649,1.984548,0,9.38,-1.53,-0.14
50.853649,1.984548,0,9.55,-1.65,-0.55
50.853649,1.984548,0,9.71,-1.43,-0.24
50.853649,1.984548,0,9.85,-1.42,0.14
50.853649,1.984548,0,9.6,-1.47,0.03
50.853649,1.984548,0,9.53,-1.64,-0.32
50.853649,1.984548,0,10.24,-1.51,0.35
50.853649,1.984548,0,9.59,-1.72,-0.73
50.853649,1.984548,0,9.86,-1.59,-0.39
50.853649,1.984548,0,10.08,-1.49,0.48
50.853649,1.984548,0,10.02,-1.53,0.29
50.853649,1.984548,0,9.39,-1.57,-0.5
50.853649,1.984548,0,9.44,-1.7,-1.34
50.853649,1.984548,0,9.68,-1.49,0.03
50.853649,1.984548,0,9.85,-1.09,-0.13
50.853649,1.984548,0,9.76,-0.5,-0.78
50.853649,1.984548,0,10.48,0.89,0.2
50.853649,1.984548,0,9.77,-0.12,-1.23
50.853638,1.984581,0.84,10.26,-0.58,-0.11
50.853638,1.984581,0.84,9.08,-0.47,-0.37
50.853628,1.984604,2.05,9.97,-0.26,1
50.853628,1.984604,2.05,8.95,-1.65,-1.69
50.853611,1.984645,3.15,9.35,-1.18,-0.6
50.853611,1.984645,3.15,9.82,-1.42,-0.11
50.853589,1.9847,3.83,9.64,-0.54,-0.4
50.853589,1.9847,3.83,10.17,0.51,-1.24
50.853559,1.984772,6.47,9.18,0.6,-0.76
50.853559,1.984772,6.47,10.66,-0.22,-0.44
50.853521,1.98486,7.05,10.06,-0.33,-1.14
50.853521,1.98486,7.05,9.5,0.11,-0.09
50.853475,1.984961,8.55,10.47,-1.36,-0.41
50.853475,1.984961,8.55,9.48,-0.99,-0.87
50.853413,1.985081,10.51,9.12,-1.04,-0.05
50.853413,1.985081,10.51,9.65,-0.57,-0.38
50.853344,1.985208,11.44,10.44,-0.85,-2.02
50.853344,1.985208,11.44,12.95,-1.01,0.19
50.853271,1.985342,12.35,9.88,-1.74,-0.09
50.853271,1.985342,12.35,9.15,-1.66,-0.91
50.853197,1.985488,12.62,9.56,-1.39,-1.33
50.853197,1.985488,12.62,10.72,-1.07,-0.63
50.853122,1.985636,12.91,10.5,-1.87,1.23
50.853122,1.985636,12.91,9.49,-1.08,0.12
50.853048,1.985787,13.26,9.48,-1.09,-0.51
50.853048,1.985787,13.26,9.14,-2.38,-0.53
50.852971,1.98594,13.76,9.44,-1.61,0.03
50.852971,1.98594,13.76,9.5,-1.99,-0.41
50.852891,1.986092,13.52,9.41,-2.53,0.66
50.852891,1.986092,13.52,9.62,-2.24,-1.78
50.852814,1.986241,13.2,9.62,-1.36,-0.1
50.852814,1.986241,13.2,9.65,-1.49,-0.93
50.852738,1.986389,13.23,9.65,-1.27,0.59
50.85266,1.986538,13.26,10.01,-1.68,-1.13
50.85266,1.986538,13.26,9.55,-1.58,0.53
50.852582,1.986683,13.05,9.84,-1.18,-0.32
50.852582,1.986683,13.05,9.01,-1.5,-0.32
50.852507,1.986826,12.86,9.18,-1.67,-0.55
50.852507,1.986826,12.86,9.38,-1.84,0.87
50.852429,1.986971,13.05,9.64,-1.86,0.04
50.852429,1.986971,13.05,9.15,-1.1,-0.39
50.852351,1.987116,12.98,8.98,-1.19,-0.82
50.852351,1.987116,12.98,9.65,-1.6,-0.12
50.852272,1.987259,12.69,10.63,-1.05,-1.01
50.852272,1.987259,12.69,9.74,-1.47,-0.58
50.852198,1.987392,12.57,9.28,-1.59,1.21
50.852198,1.987392,12.57,8.85,-1.78,0.34
50.852123,1.987525,12.29,10.26,-1.82,0.05
50.852123,1.987525,12.29,9.7,-1.94,-0.16
50.852054,1.987661,11.78,8.25,-1.07,-0.47
50.852054,1.987661,11.78,8.85,-0.7,1.95
50.851989,1.987794,11.92,10.78,-1.38,-0.11
50.851989,1.987794,11.92,8.67,-0.92,-1.49
50.851924,1.987934,12.06,9.55,-1.35,-0.54
50.851924,1.987934,12.06,9.96,-1.06,-0.31
50.851857,1.988076,12.27,10.26,-1.07,-1.06
50.851857,1.988076,12.27,8.14,-1.09,-0.92
50.85179,1.988216,12.56,9.28,-0.67,0.1
50.85179,1.988216,12.56,10.39,-0.97,-1.44
50.851716,1.988366,13.13,9.85,-1.17,0.23
50.851716,1.988366,13.13,9.61,-1.35,-0.91
50.851642,1.988516,13.38,9.68,-0.35,1.13
50.851642,1.988516,13.38,11.2,-1.44,0.79
50.851565,1.988668,13.64,10.04,-2.2,-0.57
50.851565,1.988668,13.64,9.03,-0.93,0.63
50.851489,1.988817,13.42,9.62,-1.36,-0.44
50.851489,1.988817,13.42,9.56,-1.16,-1.53
50.851415,1.988966,13.83,8.23,-0.75,-0.07
50.851415,1.988966,13.83,10.34,0.31,-1.36
50.851339,1.989124,14.23,10.94,-1.49,-0.26
50.851339,1.989124,14.23,9.89,-1.37,-0.27
50.851257,1.989285,14.65,9.6,-1.93,-0.96
50.851257,1.989285,14.65,10.01,-1.5,0.45
50.851172,1.98945,14.81,12,-0.39,-0.23
50.851084,1.989614,15.21,8.88,-0.96,-0.67
50.851084,1.989614,15.21,10.16,-1.26,0.99
50.850996,1.989782,15.46,9.91,-1.36,-0.34
50.850996,1.989782,15.46,8.38,-2.02,0.1
50.850909,1.989951,15.35,10.55,-1.66,0.14
50.850909,1.989951,15.35,8.15,-1.36,-0.66
50.850823,1.990125,15.49,13.49,-0.65,1.29
50.850823,1.990125,15.49,9.37,-0.45,0.5
50.850736,1.990306,16.06,9.87,-1.14,-1.15
50.850736,1.990306,16.06,9.32,-0.66,-1.78
50.850649,1.990489,16.53,9.66,-1.25,0.05
50.850649,1.990489,16.53,9.72,-1.47,-0.78
50.850557,1.99068,16.81,9.32,-1.02,2.12
50.850557,1.99068,16.81,9.02,-0.74,-1.32
50.850464,1.990871,16.94,9.01,-0.61,-0.69
50.850464,1.990871,16.94,8.95,-0.88,-0.06
50.850368,1.991054,17.28,9.79,-1.16,-0.43
50.850368,1.991054,17.28,9.66,-1.38,0.67
50.850269,1.99124,17.91,10.77,-1,-0.08
50.850269,1.99124,17.91,10.17,-1.81,-0.81
50.850167,1.991424,17.72,9.71,-1.96,-0.39
50.850167,1.991424,17.72,9.49,-1.72,-0.29
50.850064,1.991609,17.42,9.57,-0.91,-0.72
50.850064,1.991609,17.42,9,-1.68,-0.59
50.849964,1.991788,17.05,8.45,-1.58,-0.2
50.849964,1.991788,17.05,9.65,-1.48,-1.47
50.849866,1.991972,16.82,8.81,-1.36,-1.51
50.849866,1.991972,16.82,9.68,-1.64,0.82
50.849767,1.992159,16.75,9.44,-2.04,-0.32
50.849767,1.992159,16.75,9.84,-1.73,-0.28
50.84967,1.992339,16.43,9.79,-2.01,-0.3
50.84967,1.992339,16.43,9.41,-1.99,1.17
50.849574,1.99252,16.21,8.38,-1.6,-1.68
50.849574,1.99252,16.21,9.1,-2.1,-0.68
50.84948,1.992697,15.79,10.2,-1.59,-0.02
50.84948,1.992697,15.79,11,-1.85,0.01
50.849389,1.992865,15.52,9.45,-1.72,-1.28
50.849389,1.992865,15.52,8.99,-1.67,-1.27
50.849304,1.993035,15.19,9.29,-2.09,-0.58
50.849304,1.993035,15.19,10.43,-1.51,-0.96
50.849219,1.993213,14.8,9.36,-1.36,-0.68
50.849219,1.993213,14.8,9.61,-1.86,-0.82
50.84914,1.99337,14.3,8.75,-1.7,-0.75
50.849061,1.993532,13.77,8.9,-1.41,-0.74
50.849061,1.993532,13.77,8.6,-1.93,1.13
50.848986,1.993699,13.65,9.04,-1.6,1.15
50.848986,1.993699,13.65,8.71,-2.45,0.46
50.848914,1.993851,13.48,10.88,-1.68,-0.27
50.848914,1.993851,13.48,9.12,-1.03,-0.6
50.84884,1.994006,13.63,8.9,-1.46,-0.48
50.84884,1.994006,13.63,10,-1.06,-1.53
50.848761,1.994168,13.72,9.34,-1.16,-1.08
50.848761,1.994168,13.72,9.72,-1.52,-0.47
50.848687,1.994324,13.92,10.69,-1.09,-1.36
50.848687,1.994324,13.92,9.55,-1.51,0.39
50.848608,1.994477,14.55,9.88,-1.57,0.32
50.848608,1.994477,14.55,9.02,-1.25,-0.21
50.848519,1.994649,14.85,9.84,-1.54,-0.25
50.848519,1.994649,14.85,10.59,-1.22,0.44
50.848436,1.994807,14.74,9.36,-2.05,0.02
50.848436,1.994807,14.74,10.14,-1.87,-0.17
50.848349,1.994974,14.5,9.69,-1.85,-0.32
50.848349,1.994974,14.5,9.06,-1.39,-0.68
50.848265,1.995136,14.42,9.74,-1.53,-0.89
50.848265,1.995136,14.42,9.6,-1.47,0.16
50.848184,1.995288,14.27,9.81,-1.54,-0.43
50.848184,1.995288,14.27,10.98,-1.85,0.06
50.848105,1.995444,14.25,10.29,-1.84,-1.18
50.848105,1.995444,14.25,9.8,-1.76,-0.68
50.848026,1.995601,14.12,9.13,-1.46,-0.96
50.848026,1.995601,14.12,9.29,-1.81,-1.07
50.847949,1.995759,13.73,9.88,-1.72,0.5
50.847949,1.995759,13.73,9.1,-1.81,-1.54
50.847868,1.995908,13.51,9.33,-1.56,0
50.847868,1.995908,13.51,9.59,-1.43,-0.83
50.847796,1.996052,13.31,8.81,-1.18,-1.67
50.847796,1.996052,13.31,9.81,-1.91,-0.7
50.84772,1.996202,13.46,9.05,-1.5,-0.22
50.84772,1.996202,13.46,9.63,-1.51,-0.67
50.847641,1.996354,13.25,10.58,-1.58,0.21
50.847641,1.996354,13.25,9.84,-1.67,0.19
50.847564,1.99651,13.29,9.66,-1.88,-0.66
50.847564,1.99651,13.29,8.9,-1.88,-1.2
50.847485,1.996657,13.43,9.77,-0.93,-0.24
50.847485,1.996657,13.43,9.12,-1.48,-0.13
50.847403,1.996801,13.63,9.52,-1.16,-1.48
50.847325,1.996948,13.91,10.22,-1.47,-1.67
50.847325,1.996948,13.91,9.51,-1.12,-0.73
50.847249,1.997101,14.09,10.52,-1.86,-1.61
50.847249,1.997101,14.09,9.18,-1.34,-0.34
50.847172,1.997259,14.22,8.82,-1.36,-0.96
50.847172,1.997259,14.22,9.41,-1.9,0.04
50.847092,1.997418,14.25,10.57,-1.59,-0.2
50.847092,1.997418,14.25,9.66,-1.21,-0.23
50.847011,1.997578,14.03,9.37,-1.8,-1.32
50.847011,1.997578,14.03,9.29,-1.06,-0.38
50.846931,1.997733,14.09,9.24,-1.72,-1.48
50.846931,1.997733,14.09,10.38,-1.44,0.46
50.846854,1.997892,14,10.02,-1.6,-0.68
50.846854,1.997892,14,10.07,-1.58,-0.21
50.846775,1.998057,14.26,9.99,-1.64,-1.22
50.846775,1.998057,14.26,9.18,-0.88,-1.55
50.846698,1.998212,14.17,10.44,-1.26,-0.91
50.846698,1.998212,14.17,8.26,-1.32,-0.02
50.846621,1.998362,14.21,9.31,-0.85,-0.2
50.846621,1.998362,14.21,9.81,-0.32,0.52
50.846541,1.998517,14.1,9.37,-1.2,1.47
50.846541,1.998517,14.1,9.22,-0.29,0.68
50.84646,1.998678,14.26,8.6,-2.66,0.34
50.84646,1.998678,14.26,7.4,-1.24,0.51
50.846374,1.998837,14.02,11.97,-1.01,0.42
50.846374,1.998837,14.02,9.83,-1.84,-2.29
50.846295,1.998998,13.98,10.21,-0.51,0.29
50.846295,1.998998,13.98,11.41,0.03,-1.38
50.846213,1.999148,14.08,9.23,0.36,0.95
50.846213,1.999148,14.08,9.73,-0.97,-1.8
50.846131,1.999304,14.47,10.23,-0.28,-2.71
50.846131,1.999304,14.47,11.45,-1.09,-1.47
50.846043,1.999466,14.6,11.11,-0.64,-1.16
50.846043,1.999466,14.6,9.57,-0.52,-0.05
50.845955,1.999631,14.73,10.2,-1.52,1.66
50.845955,1.999631,14.73,10.19,-0.48,0.79
50.845868,1.999801,15.1,11.16,-0.53,1.04
50.845868,1.999801,15.1,9.89,-0.31,1.2
50.845786,1.999971,15.53,9.44,-0.64,0.54
50.845696,2.000147,15.59,10.89,-0.7,0.82
50.845696,2.000147,15.59,8.62,-1.67,-0.18
50.845608,2.000319,15.64,9.16,-0.38,-2.1
50.845608,2.000319,15.64,10.29,-1.96,-0.69
50.845522,2.000483,15.39,11.33,-2.48,0.03
50.845522,2.000483,15.39,9.38,-1.33,-0.72
50.845434,2.000644,15.57,11.32,-1.86,-1.72
50.845434,2.000644,15.57,8.98,-1.91,-1.53
50.845343,2.000816,15.91,10.09,-0.59,1.29
50.845343,2.000816,15.91,9.64,0.45,-1.26
50.84525,2.000996,16.31,8.83,-0.33,-0.38
50.84525,2.000996,16.31,9.16,-1.33,-0.79
50.845154,2.001185,16.76,8.99,-0.98,0.33
50.845154,2.001185,16.76,9.51,-1.8,-0.14
50.845055,2.001376,16.92,10.07,-2.88,1.14
50.845055,2.001376,16.92,8.78,-0.81,-0.14
50.844956,2.001567,16.88,6.09,-1.93,-0.81
50.844956,2.001567,16.88,12.78,-2.41,1.59
50.844861,2.001747,16.26,10.01,-2.99,-0.47
50.844861,2.001747,16.26,8.48,-0.35,-1.72
50.844765,2.001927,16.24,8.8,-1.19,-2.02
50.844765,2.001927,16.24,9.33,-0.64,-1.86
50.844667,2.002106,16.28,10.61,-2.07,-1.13
50.844667,2.002106,16.28,9.05,-0.85,-0.82
50.84457,2.002273,16.13,7.79,-0.88,-0.98
50.84457,2.002273,16.13,9.65,-1.49,-1.89
50.84448,2.002436,16.51,10.32,-0.72,-1.48
50.84448,2.002436,16.51,10.79,-1.02,-2.7
50.844386,2.002614,16.8,8.84,-1.38,-1.36
50.844386,2.002614,16.8,10.65,-0.91,-0.44
50.844289,2.002804,17.02,11.34,-2.43,-0.02
50.844289,2.002804,17.02,10.17,-1.42,-1.33
50.844193,2.002994,17.2,8.55,-1.27,-1.25
50.844193,2.002994,17.2,9.92,-0.41,-1.81
50.844096,2.003185,17.45,10.73,-1.27,-0.16
50.844096,2.003185,17.45,11.19,-2.33,-0.89
50.844002,2.003391,17.84,9.14,-2.58,-0.36
50.844002,2.003391,17.84,9.49,-1.06,-0.16
50.843907,2.003601,17.76,8.16,-1.62,0.18
50.843907,2.003601,17.76,13.24,-0.39,1.7
50.843818,2.003799,17.43,9.65,-1.78,-0.68
50.843818,2.003799,17.43,9.79,-0.8,0.28
50.843735,2.003996,16.72,9.27,-3.17,-0.01
50.843735,2.003996,16.72,7.51,-1.82,0.14
50.843653,2.004177,16.75,11.15,-1.73,-1.04
50.843568,2.004378,17.12,11.2,-1.78,0
50.843568,2.004378,17.12,9.22,-0.88,-1.82
50.843483,2.004575,17.55,9.99,-1.11,-0.7
50.843483,2.004575,17.55,10.62,1.07,-1.97
50.843397,2.004776,17.39,8.83,-1.05,-1.33
50.843397,2.004776,17.39,11.23,0.43,0.44
50.843304,2.004975,17.19,11.45,-1.8,1.41
50.843304,2.004975,17.19,9.05,-2.08,-2.37
50.843214,2.00518,16.99,9.11,-2.04,-1.15
50.843214,2.00518,16.99,9.96,-2.22,-0.7
50.843126,2.005389,16.91,9.39,-2.32,-0.31
50.843126,2.005389,16.91,9.85,-1.64,-2.13
50.843032,2.005597,16.49,8.26,-3.1,-0.59
50.843032,2.005597,16.49,9.11,-0.54,0.07
50.842947,2.005788,16.37,10.44,-0.18,-0.11
50.842947,2.005788,16.37,10.27,-0.32,0.59
50.84286,2.00599,16.44,9.39,-1.03,-0.27
50.84286,2.00599,16.44,10.29,-2.99,-1.02
50.842776,2.006186,16.49,10.77,-1.79,1.69
50.842776,2.006186,16.49,11.38,-1.34,-2.33
50.842692,2.006376,16.62,12.46,-2.72,1.28
50.842692,2.006376,16.62,8.45,-1.07,-1.77
50.842612,2.006564,16.71,9.58,-1.19,-0.2
50.842612,2.006564,16.71,9.26,-2.23,1.69
50.842526,2.006753,16.76,11.33,-2.35,-0.33
50.842526,2.006753,16.76,8.73,-0.66,-0.49
50.842437,2.006957,16.53,9.96,-1.9,-1.11
50.842437,2.006957,16.53,9.69,-2.18,0.59
50.842347,2.007159,16.43,9.67,-1.16,2.7
50.842347,2.007159,16.43,10.31,-1.25,0.08
50.842256,2.007359,16.34,10.46,-0.49,-2.68
50.842256,2.007359,16.34,7.29,-1.39,0.61
50.842172,2.007543,16.74,6.92,0.15,-1.51
50.842172,2.007543,16.74,9.66,0.33,-2.09
50.842083,2.007745,17.34,12.2,-0.79,1.43
50.842083,2.007745,17.34,10.82,-1.62,2.54
50.841986,2.007965,18.16,10.78,-1.17,-1.87
50.841986,2.007965,18.16,9.01,-5.2,-2.25
50.841892,2.008172,18.4,8.49,-1.99,-0.89
50.841892,2.008172,18.4,9.4,-1.15,0.57
50.841793,2.008395,17.56,10.34,-0.98,-0.54
50.841793,2.008395,17.56,11.15,-2.94,0.32
50.841696,2.008601,17.03,10.86,-2.19,0.51
50.841696,2.008601,17.03,11.58,-1.06,-1.28
50.841604,2.008794,16.75,11.47,-1.53,-0.06
50.841514,2.008983,16.22,9.47,-1.59,0.22
50.841514,2.008983,16.22,9.92,-1.34,0.2
50.84143,2.009162,15.84,8.88,-1.22,0.46
50.84143,2.009162,15.84,8.05,-1.51,-0.81
50.841338,2.009352,15.68,9.66,-2.31,-1.41
50.841338,2.009352,15.68,9.05,-1.18,-1.06
50.841254,2.009538,15.75,10.05,-0.82,-1.98
50.841254,2.009538,15.75,10.63,-1.85,0.54
50.841174,2.009727,15.88,8.81,-1.38,1.2
50.841174,2.009727,15.88,8.1,-2.02,-0.02
50.841092,2.009915,15.89,7.65,0.32,-1.34
50.841092,2.009915,15.89,8.92,0.18,1.97
50.841014,2.010101,15.97,10.6,-1.13,1.07
50.841014,2.010101,15.97,10.03,0.46,-1
50.84094,2.010291,16.78,5.88,-0.49,-0.42
50.84094,2.010291,16.78,10.29,-0.09,-1.33
50.840852,2.010505,17.57,10.76,-0.06,-0.76
50.840852,2.010505,17.57,10.02,-0.06,-0.98
50.840754,2.010737,18.68,9.79,-0.31,-1.01
50.840754,2.010737,18.68,8.89,-0.65,-1.28
50.84066,2.010964,19.5,10.76,-0.06,-0.33
50.84066,2.010964,19.5,11.31,-0.94,-1.24
50.840552,2.011219,20.77,8,0.25,0.18
50.840552,2.011219,20.77,8.22,0.23,-1.93
50.840444,2.011484,21.61,9.84,-0.34,-2.9
50.840444,2.011484,21.61,8.62,-0.72,-0.68
50.840328,2.011761,22.57,9.27,0.45,-1.74
50.840328,2.011761,22.57,8.13,0.02,2.5
50.840202,2.012053,23.86,11.71,-0.81,-1.98
50.840202,2.012053,23.86,10.54,-1.16,-1.35
50.840071,2.01235,24.91,8.41,-1.49,-1.2
50.840071,2.01235,24.91,9.29,-2.34,-0.59
50.839924,2.012652,24.98,9.54,-2.89,-2.08
50.839924,2.012652,24.98,7.78,-2.49,1.37
50.839785,2.012949,24.8,9.66,-1.54,-0.7
50.839785,2.012949,24.8,9.15,-1.83,-0.61
50.839656,2.013229,23.99,9.05,-2.5,0.45
50.839656,2.013229,23.99,10.36,-2.38,0.16
50.839533,2.013504,23.4,11.81,-1.92,-1.11
50.839533,2.013504,23.4,10.83,-1.32,2.24
50.839414,2.013771,23.02,10.42,-1.38,-1.94
50.8393,2.014033,22.8,12.62,-1,-0.26
50.8393,2.014033,22.8,8.55,-2.27,-2.98
50.839191,2.014293,22.4,6.85,-1.24,1.89
50.839191,2.014293,22.4,9.28,-2.28,-0.09
50.839081,2.014549,22,13.16,-0.37,-0.95
50.839081,2.014549,22,12.01,-1.86,-1.1
50.838967,2.014796,21.49,9.92,-1.28,-1.85
50.838967,2.014796,21.49,10.85,-2.72,0.45
50.838847,2.015035,20.71,8.61,-2.08,0.09
50.838847,2.015035,20.71,12.3,-0.87,0.12
50.838739,2.015277,20.26,7.81,-0.72,-0.63
50.838739,2.015277,20.26,8.86,-2.05,-1.83
50.838632,2.015514,20.14,8.7,-1.97,-0.39
50.838632,2.015514,20.14,8.55,-2.38,-1.8
50.838528,2.015752,19.72,9.93,-2.78,1.53
50.838528,2.015752,19.72,9.45,-1.07,-1.14
50.83843,2.015979,19.58,11.81,-0.06,-1.93
50.83843,2.015979,19.58,10.98,-0.83,-2.1
50.83833,2.016209,19.72,9.18,-0.78,-0.67
50.83833,2.016209,19.72,11.9,-1.88,-1.33
50.838235,2.016437,19.61,8.79,-2.99,0.47
50.838235,2.016437,19.61,8.94,-1.07,-0.98
50.838135,2.016673,19.64,9.58,-2.2,0.04
50.838135,2.016673,19.64,10.53,-1.11,-1.75
50.838035,2.016896,19.69,9.23,-1.76,-0.47
50.838035,2.016896,19.69,8.64,-0.58,-0.78
50.837941,2.017123,19.84,9.66,-2.14,-1.5
50.837941,2.017123,19.84,10,-1.68,-0.43
50.837844,2.017355,19.82,9.71,-0.99,0.36
50.837844,2.017355,19.82,9.28,-1.46,-0.3
50.837746,2.017579,19.9,10.28,-1.63,0.75
50.837746,2.017579,19.9,9.87,-3.15,-1.01
50.837651,2.017806,19.72,10.58,-1.63,-0.13
50.837651,2.017806,19.72,11.2,-1.49,-1.45
50.83756,2.018041,19.82,10.48,-1.24,-0.1
50.83756,2.018041,19.82,8.41,-1.35,-0.3
50.83747,2.01828,19.75,8.95,-1.16,-1.48
50.83747,2.01828,19.75,10.85,-1.43,-0.07
50.837382,2.018518,19.82,9.65,-1.7,-0.78
50.837294,2.01876,19.79,9.49,-0.84,0.74
50.837294,2.01876,19.79,10.2,-1.42,0.72
50.837206,2.018997,19.38,9.49,-1.09,-1.74
50.837206,2.018997,19.38,8.89,-2.25,-0.37
50.837122,2.019231,19.14,7.49,-0.01,-0.01
50.837122,2.019231,19.14,8.7,-2.2,0.2
50.837034,2.019458,18.96,11.09,-1.86,-1.19
50.837034,2.019458,18.96,10.27,-0.72,-0.82
50.836942,2.019687,18.94,8.61,-0.25,-0.39
50.836942,2.019687,18.94,9.08,-0.55,-0.31
50.836847,2.01992,19.03,8.97,-1.47,-0.39
50.836847,2.01992,19.03,8.28,-0.94,-0.23
50.836752,2.020155,19.04,8.95,-0.45,-0.63
50.836752,2.020155,19.04,10.3,-0.59,-0.13
50.836661,2.020389,18.97,8.7,-1.33,-0.77
50.836661,2.020389,18.97,9.57,-1.31,-1.87
50.836567,2.020611,18.76,9.79,-0.91,-1
50.836567,2.020611,18.76,8.9,-1.39,-1.83
50.836463,2.020824,18.42,10.87,-1.17,-1.2
50.836463,2.020824,18.42,9.36,-1.24,-2.12
50.836353,2.021017,18.08,9.13,-0.61,0.09
50.836353,2.021017,18.08,9.89,0.14,2.27
50.836246,2.021213,18.18,9.62,-0.8,-1.41
50.836246,2.021213,18.18,9.4,-0.77,-0.19
50.836134,2.021404,18.11,10,-0.04,0.47
50.836134,2.021404,18.11,11.09,-1.36,-2.98
50.836032,2.021598,18.06,13.93,-1.54,-0.41
50.836032,2.021598,18.06,8.41,-1.49,1.72
50.835934,2.0218,17.81,11.62,-0.31,-0.84
50.835934,2.0218,17.81,10.27,-2.11,-1.14
50.835834,2.021995,17.49,8.17,-0.58,-0.77
50.835834,2.021995,17.49,8.26,-1.53,-1.7
50.835741,2.022186,17.1,10.95,-1.72,0.57
50.835741,2.022186,17.1,9.76,-0.7,0.13
50.835654,2.022369,16.27,9.39,-1.62,0.01
50.835654,2.022369,16.27,8.14,-0.02,-0.34
50.835568,2.022556,15.98,8.4,-0.69,-1.77
50.835568,2.022556,15.98,9.29,-1.39,-0.17
50.835496,2.02276,15.81,9.43,-1.52,-0.62
50.835496,2.02276,15.81,4.77,-0.39,1.01
50.83542,2.022952,15.94,11.45,-1.99,-1.1
50.83542,2.022952,15.94,10.28,-1.46,0.17
50.835335,2.023123,16.24,7.99,-1.26,-0.83
50.835335,2.023123,16.24,9.29,-1.9,1.69
50.835243,2.023298,17.17,8.41,-1.54,-1.12
50.835146,2.023497,17.87,10.05,-1.1,0.58
50.835146,2.023497,17.87,10.28,0.36,1.09
50.835042,2.023691,19.03,12.79,-0.15,0.82
50.835042,2.023691,19.03,9.42,-1.84,0.05
50.834927,2.023888,19.62,9.09,-1.14,-1.31
50.834927,2.023888,19.62,10.98,-1.03,0.51
50.834808,2.024114,20.17,9.62,-1.62,-1.02
50.834808,2.024114,20.17,10.05,-1.87,-1.54
50.83469,2.024335,20.7,9.48,-1.77,0.8
50.83469,2.024335,20.7,9.18,-2.25,-0.7
50.834568,2.024566,20.92,9.61,-2.54,-0.46
50.834568,2.024566,20.92,7.83,-1.12,-0.72
50.834446,2.024789,20.67,8.71,-0.66,-0.31
50.834446,2.024789,20.67,10.82,-1.65,-3.05
50.834325,2.02502,20.54,10.06,-2.15,-0.61
50.834325,2.02502,20.54,10.53,-1.48,-1.7
50.834219,2.025247,20.25,10.82,-1.42,-0.48
50.834219,2.025247,20.25,9.37,-2.39,-1.84
50.834104,2.025465,20.12,10.29,-2.4,-1.26
50.834104,2.025465,20.12,10.11,-3.22,-1.97
50.833988,2.02568,19.91,7.36,-1.54,-1.49
50.833988,2.02568,19.91,7.79,-1.44,-0.96
50.833872,2.025898,19.76,9.48,-1.25,-0.34
50.833872,2.025898,19.76,9.41,-1.04,0.7
50.833769,2.026117,19.44,10.82,-1.97,-3.13
50.833769,2.026117,19.44,10.62,-1.92,-0.17
50.833667,2.026337,19.27,9.24,-2.73,0.89
50.833667,2.026337,19.27,9.52,-1.54,-0.54
50.833579,2.026569,18.98,8.62,-1.56,-1.7
50.833579,2.026569,18.98,13.1,-2.92,2.24
50.833508,2.026809,18.6,9.55,-1.69,-0.67
50.833508,2.026809,18.6,9,-1.88,-0.18
50.833445,2.027069,18.28,10.33,-1.73,0.24
50.833445,2.027069,18.28,9.87,-1.74,-1.21
50.833399,2.02732,17.97,9.45,-1.68,-0.08
50.833399,2.02732,17.97,9,-1.88,-0.19
50.833359,2.027561,17.6,9.81,-2.18,-0.58
50.833359,2.027561,17.6,8.94,-2.07,-1.21
50.833322,2.027806,17.35,9.87,-1.7,-0.9
50.833322,2.027806,17.35,9.5,-1.83,-0.94
50.833293,2.028044,16.99,8.14,-1.49,-0.3
50.833293,2.028044,16.99,8.56,-2.1,-1.04
50.833266,2.028275,16.65,11.08,-2,-1.91
50.833242,2.0285,16.29,9.61,-1.94,-0.26
50.833242,2.0285,16.29,9.16,-1.84,-1.31
50.833215,2.028722,15.67,9.59,-1.52,-1.13
50.833215,2.028722,15.67,9.38,-1.49,-1.88
50.833186,2.028934,15.13,9.46,-1.2,-0.19
50.833186,2.028934,15.13,10.09,-1.34,-0.17
50.833156,2.029149,14.86,9.7,-0.78,-1.44
50.833156,2.029149,14.86,9.2,-1.18,-0.1
50.833131,2.029357,14.78,9.97,-1.38,1.02
50.833131,2.029357,14.78,9.33,-0.91,-1.12
50.833102,2.029563,14.52,10.52,-1.17,-0.82
50.833102,2.029563,14.52,9.81,-0.82,-1.58
50.83307,2.029769,14.52,10.01,-1.37,-1.11
50.83307,2.029769,14.52,8.94,-1.05,-0.57
50.833035,2.029975,14.6,10.6,-0.93,-0.29
50.833035,2.029975,14.6,10.45,-1.03,0.03
50.833009,2.030178,14.62,9.32,-1.26,0.01
50.833009,2.030178,14.62,9.67,-1.02,-1.03
50.832981,2.030384,14.59,10.7,-1.3,-0.05
50.832981,2.030384,14.59,9.72,-1.17,0.93
50.832951,2.030594,14.68,9.96,-0.95,-0.76
50.832951,2.030594,14.68,9.9,-1.3,-0.61
50.832922,2.030798,14.6,9.62,-1.03,-0.97
50.832922,2.030798,14.6,10.23,-1.38,-0.14
50.832893,2.031004,14.4,10.32,-1.3,-0.41
50.832893,2.031004,14.4,9.62,-0.9,-0.54
50.832863,2.0312,14.36,9.5,-0.89,-0.86
50.832863,2.0312,14.36,9.59,-0.69,-0.79
50.832833,2.031398,14.51,10.16,-1.53,0.06
50.832833,2.031398,14.51,9.5,-1.16,-0.37
50.832799,2.031597,14.5,9.67,-0.42,-0.56
50.832799,2.031597,14.5,9.36,-0.94,-1.25
50.832758,2.031806,14.5,8.54,-0.9,-0.78
50.832758,2.031806,14.5,9.26,-0.85,-0.85
50.83273,2.03201,14.67,9.95,-0.91,-0.22
50.83273,2.03201,14.67,8.88,-1.17,-0.83
50.832703,2.032212,14.65,9.07,-1.12,-0.58
50.832703,2.032212,14.65,8.99,-1.06,-0.37
50.83267,2.032416,14.7,10.02,-1.34,-0.58
50.83267,2.032416,14.7,9.64,-1.52,-1.36
50.832641,2.032625,14.8,9.61,-0.69,-0.02
50.832641,2.032625,14.8,9.67,-1.16,-0.91
50.832611,2.032834,14.91,10.01,-1.55,-1.52
50.832611,2.032834,14.91,10.48,-1.43,-0.91
50.832586,2.033036,14.49,10.95,-1.27,-1.34
50.832556,2.033239,14.54,10.73,-1.06,-0.97
50.832556,2.033239,14.54,9.82,-1.04,-0.94
50.832523,2.033447,14.65,9.89,-0.89,-1.34
50.832523,2.033447,14.65,9.13,-0.72,-0.53
50.832487,2.033651,15.23,10.01,-0.5,-0.13
50.832487,2.033651,15.23,9.5,-0.58,-0.12
50.832446,2.033856,15.56,9.89,-0.72,-0.63
50.832446,2.033856,15.56,9.5,-0.59,0.46
50.832399,2.034065,15.94,9.63,-0.94,-1.06
50.832399,2.034065,15.94,9.3,-0.82,-0.98
50.832354,2.034273,16.19,9.45,-1.08,0.46
50.832354,2.034273,16.19,9.43,-1.31,0.42
50.832301,2.034484,16.21,9.52,-1.55,0.33
50.832301,2.034484,16.21,9.61,-1.1,0.15
50.832244,2.034691,15.99,9.18,-1.27,-1.58
50.832244,2.034691,15.99,10.5,-1.45,0.14
50.832182,2.034903,15.87,9.22,-0.77,1.31
50.832182,2.034903,15.87,9.55,-0.99,-0.19
50.832123,2.03511,15.95,10.27,-0.55,-1.56
50.832123,2.03511,15.95,8.95,-0.72,-1.12
50.832058,2.035313,16.32,9.8,-0.64,-2.3
50.832058,2.035313,16.32,8.38,0.63,-1.67
50.832004,2.035529,17.04,9.05,0.4,-0.73
50.832004,2.035529,17.04,9.48,0.12,-0.86
50.83193,2.03576,17.98,8.86,0.03,1.05
50.83193,2.03576,17.98,9.23,0.11,-1.7
50.831843,2.035989,19.43,8.72,-1.01,-0.77
50.831843,2.035989,19.43,8.54,-1.57,-0.14
50.831749,2.03624,20.15,9.43,-0.66,-0.29
50.831749,2.03624,20.15,7.33,-0.52,0.36
50.83165,2.036491,20.84,11.4,-0.4,1.13
50.83165,2.036491,20.84,9.81,-1.16,0.49
50.831548,2.036757,21.47,10.35,-1.35,-2.15
50.831548,2.036757,21.47,10.97,-1.64,0.34
50.831449,2.037025,22.14,8.51,-1.12,-1.37
50.831449,2.037025,22.14,10.5,-1,-0.87
50.831346,2.037302,22.76,9.46,-1.44,-0.41
50.831346,2.037302,22.76,9.68,-1.91,0.68
50.831242,2.037586,23.03,10.28,-2.44,0.12
50.831242,2.037586,23.03,10.96,-2.33,-1.12
50.831138,2.037874,22.69,8.88,-2,-0.59
50.831138,2.037874,22.69,8.23,-2.23,-1.25
50.831037,2.038154,22.12,8.9,-0.89,-0.18
50.830934,2.038424,22.04,10.08,-1,0.4
50.830934,2.038424,22.04,9.47,-1.47,0.84
50.830836,2.038696,22.18,8.79,-0.89,-0.95
50.830836,2.038696,22.18,10.73,-1.68,-0.93
50.830737,2.038975,22.6,9.58,-1.58,-0.79
50.830737,2.038975,22.6,9.37,-0.66,0.27
50.830641,2.039264,22.75,10.13,-1.49,-0.88
50.830641,2.039264,22.75,10.78,-1.86,-1.3
50.830535,2.039553,22.98,10.15,-0.8,0.19
50.830535,2.039553,22.98,10.74,-1.71,-1.57
50.830427,2.039831,22.89,9.14,-1.11,-0.91
50.830427,2.039831,22.89,8.95,-1.29,0.02
50.830322,2.040103,22.44,8.67,-1.4,-0.92
50.830322,2.040103,22.44,10.07,-1.13,-1.11
50.830219,2.040382,22.44,9.76,-2.24,1.34
50.830219,2.040382,22.44,10.23,-1.4,-0.82
50.830123,2.040648,22.38,9.03,-1.62,-1.1
50.830123,2.040648,22.38,9.03,-1.34,-0.41
50.830028,2.040919,22.22,9.58,-1.37,-2.78
50.830028,2.040919,22.22,10.19,-0.38,-1.69
50.82993,2.041197,22.33,10.07,-1.17,-0.05
50.82993,2.041197,22.33,9.86,-1.06,0.81
50.829831,2.041481,22.64,10.38,-1.25,-0.13
50.829831,2.041481,22.64,8.27,-1.84,-1.98
50.82973,2.041774,22.54,9.6,-1.77,0.56
50.82973,2.041774,22.54,10.51,-1.16,-0.14
50.82963,2.04206,22.48,9.18,-1.44,-0.14
50.82963,2.04206,22.48,11.15,-1.47,-0.91
50.82953,2.042343,22.12,10.74,-1.6,-0.53
50.82953,2.042343,22.12,8.74,-1.27,-0.79
50.82943,2.042615,21.92,10.41,-1.21,-0.85
50.82943,2.042615,21.92,10.22,-1.3,0.26
50.829331,2.042887,21.96,8.7,-1.85,-0.83
50.829331,2.042887,21.96,9.07,-2.33,0.24
50.829236,2.043159,21.52,9.59,-1.83,-0.11
50.829236,2.043159,21.52,9.02,-1.7,-1.28
50.829143,2.043421,20.88,9.2,-1.21,-1.14
50.829143,2.043421,20.88,10.29,-1.17,-0.7
50.82905,2.04367,20.65,12.24,-0.48,-0.89
50.82905,2.04367,20.65,8.63,-0.22,-1.13
50.828958,2.043911,20.75,10.45,-1.56,-1.12
50.828862,2.044166,20.96,10.75,-0.81,-0.55
50.828862,2.044166,20.96,8.6,-1,-1.4
50.828769,2.04442,21.26,11.43,-1.62,-0.23
50.828769,2.04442,21.26,9.32,-0.46,-0.43
50.828673,2.044687,21.57,9.86,-0.56,-0.41
50.828673,2.044687,21.57,8.2,-1.26,-0.97
50.828574,2.044958,21.7,11.12,-1.09,-0.25
50.828574,2.044958,21.7,8.24,-1.35,0.41
50.828476,2.045222,21.66,9.58,-1.1,-1.66
50.828476,2.045222,21.66,10.49,-1.5,-0.81
50.828385,2.045492,21.12,8.78,-1.67,-0.37
50.828385,2.045492,21.12,8.17,-1.99,0.07
50.828297,2.045752,20.46,8.58,-1.82,-0.79
50.828297,2.045752,20.46,8.25,-1.88,-0.67
50.828206,2.046001,20.15,10.02,-1.67,-0.9
50.828206,2.046001,20.15,9.5,-1.26,-0.24
50.828108,2.046237,19.85,9.57,-1.41,-1.32
50.828108,2.046237,19.85,10.44,-1.71,-0.22
50.828013,2.046457,19.23,9.27,-0.7,-0.49
50.828013,2.046457,19.23,9.65,-1.51,-1.27
50.827913,2.046666,19.31,9.78,-1.13,-1.08
50.827913,2.046666,19.31,9.92,-1.5,-0.22
50.82781,2.046873,19.35,8.27,-1.25,-1.25
50.82781,2.046873,19.35,10.26,-2.2,-1.13
50.827695,2.047081,19.28,10.05,-1.66,-1.57
50.827695,2.047081,19.28,10.41,-1.36,-0.88
50.827578,2.04728,19.05,9.58,-1.41,-0.69
50.827578,2.04728,19.05,8.67,-2.07,-1
50.827452,2.047471,18.87,9.74,-2.32,-0.47
50.827452,2.047471,18.87,9.41,-1.58,-0.64
50.827338,2.047661,18.41,8.61,-2.34,-0.88
50.827338,2.047661,18.41,8.95,-1.22,-0.49
50.827231,2.047862,18.25,8.11,-0.85,-0.73
50.827231,2.047862,18.25,10.28,-0.79,-1.51
50.827129,2.048059,18.36,7.8,-2.11,-0.13
50.827129,2.048059,18.36,9.14,-1.79,-1.34
50.82703,2.048256,18.4,9.93,-1.57,-0.13
50.82703,2.048256,18.4,8.98,-0.99,-0.7
50.826937,2.048452,18.02,9.96,-1.92,-0.13
50.826937,2.048452,18.02,9.41,-2.03,-0.71
50.826843,2.048684,17.99,9.81,-2.08,-0.8
50.826753,2.0489,17.92,8.49,-1.88,-0.68
50.826753,2.0489,17.92,10.56,-1.84,-0.16
50.826662,2.049116,17.77,10.03,-2.14,-0.18
50.826662,2.049116,17.77,9.09,-1.81,-0.13
50.826587,2.04932,17.51,9.81,-3.09,-0.33
50.826587,2.04932,17.51,9.27,-3.51,-0.11
50.82651,2.049529,16.24,8.85,-2.84,-0.74
50.82651,2.049529,16.24,9.48,-3.58,-0.45
50.826435,2.049724,14.89,9.03,-3.04,0.74
50.826435,2.049724,14.89,9.29,-1.36,0.81
50.826377,2.049908,14.1,10.27,-1.88,0.38
50.826377,2.049908,14.1,9.93,-1.71,0.13
50.826331,2.050091,13.64,9.92,-3.09,0.34
50.826331,2.050091,13.64,8.46,-2.77,0.02
50.826289,2.050268,12.11,9.4,-2.32,0.47
50.826289,2.050268,12.11,9.34,-3.39,-0.6
50.826265,2.050425,11.06,8.49,-2.65,-1.13
50.826265,2.050425,11.06,8.95,-3.2,-2.2
50.826246,2.050564,9.8,10.07,-1.59,-2.54
50.826246,2.050564,9.8,9.07,-1.75,-2.01
50.826212,2.050691,9.46,10.07,-1.83,-0.54
50.826212,2.050691,9.46,9.26,-1.33,0.68
50.826175,2.050802,9.48,9.64,-1.12,1.4
50.826175,2.050802,9.48,8.88,-1.36,1.85
50.826144,2.050918,9.42,10.84,-1.44,2.37
50.826144,2.050918,9.42,8.93,-1.07,-0.63
50.826126,2.051052,9.95,9.96,-1.6,-2.84
50.826126,2.051052,9.95,8.16,-0.23,-3.44
50.826127,2.051212,10.33,10.02,0.35,-3.23
50.826127,2.051212,10.33,9.38,-1.58,-2.39
50.826112,2.051368,10.82,10.93,-0.03,-1.27
50.826112,2.051368,10.82,9.47,-0.76,-1.08
50.826074,2.051522,12.5,10.29,-0.78,-0.73
50.826074,2.051522,12.5,9.59,-0.3,-0.69
50.826019,2.051684,13.85,9.89,-0.32,-0.91
50.826019,2.051684,13.85,9.6,-0.64,0.91
50.825963,2.051863,14.89,10.16,-0.54,-0.42
50.825963,2.051863,14.89,9.96,-0.49,-0.37
50.82591,2.052058,15.89,11.17,0.09,-0.7
50.82591,2.052058,15.89,9.12,-1.67,-1.09
50.825858,2.052272,17.29,10.19,-2.14,-1.04
50.825858,2.052272,17.29,9.11,-1.2,-0.63
50.825802,2.052505,17.43,10.61,-1.43,-0.44
50.825737,2.052744,17.95,8.43,-1.09,-2.32
50.825737,2.052744,17.95,8.59,-1.32,-0.2
50.825671,2.052984,18.14,10.49,-1.81,-0.24
50.825671,2.052984,18.14,8.9,-1.69,-1.94
50.825606,2.053225,18.24,8.51,-1.87,-2.3
50.825606,2.053225,18.24,9.61,-1.34,-1.73
50.825536,2.053461,18.04,8.36,-1.99,-0.91
50.825536,2.053461,18.04,9.17,-2.5,0.55
50.825468,2.05369,17.87,7.96,-2.11,-1.13
50.825468,2.05369,17.87,9.96,-1.87,-0.68
50.825397,2.053919,17.57,9.59,-1.68,-0.51
50.825397,2.053919,17.57,9.16,-1.88,-0.51
50.825324,2.054139,17.33,9.73,-0.91,-0.5
50.825324,2.054139,17.33,11.03,-1.67,-1.58
50.825251,2.054352,17.11,7.72,-1.54,-2.45
50.825251,2.054352,17.11,9.67,-1.81,-0.97
50.825175,2.054561,16.79,9.05,-2.23,-1.07
50.825175,2.054561,16.79,10.07,-1.14,0.29
50.825096,2.054766,16.66,10.48,-1.71,-1.75
50.825096,2.054766,16.66,8.98,-1.56,-1.73
50.825013,2.054971,16.28,8.51,-2.45,-1.01
50.825013,2.054971,16.28,11.01,-1.72,-0.52
50.824925,2.055161,16.05,10.41,-1.12,-0.64
50.824925,2.055161,16.05,9.32,-1.71,-0.36
50.824841,2.055356,16.21,9.77,-1.31,-0.52
50.824841,2.055356,16.21,9.41,-1.4,-1.28
50.824756,2.055551,16.13,11.29,-0.81,0.91
50.824756,2.055551,16.13,9.51,-0.6,-0.96
50.824664,2.055742,16.3,10.14,-0.72,-0.73
50.824664,2.055742,16.3,8.63,-2.15,-0.03
50.824566,2.055934,16.76,9.78,-1.88,0.03
50.824566,2.055934,16.76,7.93,-1.99,-0.57
50.824476,2.05612,16.34,9.62,-0.42,0.85
50.824476,2.05612,16.34,10.21,-0.82,1.25
50.824389,2.056299,16.28,8.98,-0.29,0
50.824389,2.056299,16.28,10.26,-0.41,-0.93
50.82431,2.056494,16.56,9.53,-1.32,0.26
50.82431,2.056494,16.56,9.11,-0.81,-0.58
50.824235,2.0567,17.03,10.93,-0.32,-1.15
50.824235,2.0567,17.03,9.41,-1.21,-0.13
50.824162,2.056916,17.58,11.04,-1.29,-0.32
50.824162,2.056916,17.58,9.25,-1.18,-0.6
50.824094,2.05713,17.88,9.06,-0.61,-0.2
50.824024,2.057367,18.12,10,-1.33,-0.15
50.824024,2.057367,18.12,9.81,-1.3,0.34
50.823959,2.0576,18.51,9.04,-1.3,1.21
50.823959,2.0576,18.51,10.55,-1.8,1.16
50.823898,2.057848,18.7,3.02,-2.48,2.18
50.823898,2.057848,18.7,9.97,-2.16,0.66
50.823841,2.058098,18.66,9.21,-1.36,-0.23
50.823841,2.058098,18.66,9.41,-2.2,-0.64
50.823786,2.058352,18.73,9.98,-1.92,0.32
50.823786,2.058352,18.73,9.57,-1.97,-0.4
50.82373,2.058604,18.51,9.42,-1.87,-0.23
50.82373,2.058604,18.51,11.18,-1.14,0.34
50.823675,2.058852,18.57,10.59,-1.53,-1.37
50.823675,2.058852,18.57,9.48,-1.86,-0.29
50.823614,2.059105,18.68,10.38,-1.85,-0.29
50.823614,2.059105,18.68,8.83,-1.55,-0.96
50.823551,2.059353,18.62,9.65,-1.65,-0.91
50.823551,2.059353,18.62,10.79,-1.84,-0.88
50.823486,2.059596,18.6,8.9,-1.89,-1.22
50.823486,2.059596,18.6,10,-1.82,-0.52
50.823428,2.059841,18.63,9.92,-1.81,0.19
50.823428,2.059841,18.63,10.79,-3.71,-0.42
50.823372,2.060084,18.24,10.2,-1.89,-0.62
50.823372,2.060084,18.24,9.3,-1.88,-1.07
50.823324,2.060321,18.23,10.11,-2.3,0.26
50.823324,2.060321,18.23,9.84,-1.75,0.31
50.823271,2.060555,18.18,9.09,-2.12,-0.96
50.823271,2.060555,18.18,9.4,-2.26,-0.12
50.823211,2.060799,18.2,8.33,-2.42,-0.42
50.823211,2.060799,18.2,7.32,-1.21,-0.14
50.823152,2.06104,18.04,9.24,-2.12,-1.28
50.823152,2.06104,18.04,8.96,-1.71,-0.2
50.823084,2.061284,18.14,9.54,-1.64,0.19
50.823084,2.061284,18.14,9.05,-1.15,-0.53
50.823017,2.061525,18.35,9.36,-1.02,-0.81
50.823017,2.061525,18.35,10.25,-1.97,0.17
50.822954,2.061762,18.42,10.09,-1.91,-0.23
50.822954,2.061762,18.42,9.08,-1.99,-0.68
50.822881,2.062012,18.72,8.24,-1.75,-1.13
50.822881,2.062012,18.72,9.49,-3.02,-0.97
50.822811,2.06226,18.62,9.63,-2.81,-1.43
50.822811,2.06226,18.62,9.41,-2.45,-0.98
50.822744,2.062498,17.88,8.9,-3.35,0.15
50.82269,2.062722,16.99,9.56,-3.28,-1
50.82269,2.062722,16.99,8.92,-3.45,-0.57
50.822642,2.062923,15.62,9.88,-4.14,-0.96
50.822642,2.062923,15.62,9.46,-3.73,-1.24
50.822592,2.063105,13.58,9.65,-3.81,-0.98
50.822592,2.063105,13.58,9,-3.45,-0.89
50.822547,2.063264,12.07,10.67,-3.26,-1.59
50.822547,2.063264,12.07,9.14,-3.66,-1.86
50.822507,2.063402,10.91,9.41,-3.34,-1.38
50.822507,2.063402,10.91,9.34,-3.5,-2.4
50.822463,2.06352,9.48,9.31,-1.77,-3.12
50.822463,2.06352,9.48,9.58,-1.56,-2.67
50.822417,2.06362,9.3,9.58,-1.41,-2.35
50.822417,2.06362,9.3,9.27,-1.47,-0.38
50.822354,2.063701,9.2,9.06,-1.87,0.35
50.822354,2.063701,9.2,9.25,-2.6,1.97
50.822279,2.063774,8.94,10.78,-1.89,2.71
50.822279,2.063774,8.94,9.07,-2.04,2.61
50.822205,2.06383,8.85,8.81,-2.36,3.24
50.822205,2.06383,8.85,10.32,-2.09,3.87
50.822155,2.063925,8.59,9.79,-1.92,4.16
50.822155,2.063925,8.59,10.79,-1.74,3.38
50.822141,2.064065,8.89,10.03,-1.83,0.75
50.822141,2.064065,8.89,9.68,-0.52,-0.17
50.822165,2.064214,9.35,9.5,-0.94,-3.43
50.822165,2.064214,9.35,9.75,-1.32,-3.7
50.822203,2.064334,9.52,9.05,-1.43,-4.1
50.822203,2.064334,9.52,8.83,-0.91,-3.05
50.822228,2.064465,10.23,10.23,0.69,-2.3
50.822228,2.064465,10.23,10.42,-0.48,-2.19
50.822227,2.064611,11.77,10.65,-0.3,-0.9
50.822227,2.064611,11.77,9.94,-0.78,-1.49
50.822186,2.064805,12.95,10.35,-0.56,-1.38
50.822186,2.064805,12.95,10.32,-0.45,-1.02
50.822144,2.064995,14.73,9.73,-1.53,-0.42
50.822144,2.064995,14.73,9.02,-1.6,-0.87
50.822093,2.065193,15.34,9.73,-0.24,0.34
50.822093,2.065193,15.34,9.99,-0.83,-1.23
50.822036,2.065406,15.87,10.54,-0.6,-0.49
50.822036,2.065406,15.87,10.22,-1.08,0.14
50.821984,2.065622,17.2,10.62,-1.24,1.55
50.821984,2.065622,17.2,9.7,-1.25,0.54
50.821918,2.065864,18.26,8.74,-1.18,0.09
50.821855,2.066107,18.66,10.14,-0.67,-0.12
50.821855,2.066107,18.66,10.36,-0.53,0.4
50.821792,2.066358,19.23,9.75,-1.3,0.04
50.821792,2.066358,19.23,9.29,-1.85,-0.37
50.821725,2.066619,19.13,9.89,-1.21,-0.31
50.821725,2.066619,19.13,9.22,-1,-0.8
50.821659,2.06688,19.32,9.97,-0.79,-0.9
50.821659,2.06688,19.32,10.22,-1.76,-0.81
50.821592,2.067144,19.54,10.49,-1.51,-1.09
50.821592,2.067144,19.54,9.37,-1.57,-0.24
50.821527,2.067404,19.18,9.45,-1.95,-0.1
50.821527,2.067404,19.18,11.18,-1.71,-0.42
50.821463,2.067658,18.84,9.39,-1.86,0.24
50.821463,2.067658,18.84,8.96,-1.73,-0.12
50.821399,2.067907,18.57,8.91,-1.57,-0.05
50.821399,2.067907,18.57,8.41,-2.02,0.02
50.821341,2.068146,18.22,9.61,-1.89,0.27
50.821341,2.068146,18.22,9.04,-1.6,-0.89
50.821282,2.06838,17.77,9.26,-1.53,-0.81
50.821282,2.06838,17.77,9.46,-1.48,-1.11
50.821226,2.068614,17.61,9.57,-1.36,-0.64
50.821226,2.068614,17.61,9.45,-1.54,-0.93
50.82117,2.068842,17.53,8.58,-1.84,-0.92
50.82117,2.068842,17.53,9.8,-1.55,-0.78
50.821113,2.069071,17.28,9.49,-1.23,0.51
50.821113,2.069071,17.28,9.73,-1.75,-1.39
50.821054,2.069296,16.96,9.39,-1.77,-1.66
50.821054,2.069296,16.96,8.93,-1.77,-1.21
50.821,2.069513,16.73,10.23,-1.62,-1.8
50.821,2.069513,16.73,9.8,-1.62,-0.94
50.820942,2.069725,16.38,9.94,-2.49,-1.14
50.820942,2.069725,16.38,10.53,-0.84,-0.88
50.820877,2.069934,16.09,10.15,-1.86,-1.01
50.820877,2.069934,16.09,9.75,-2.06,-0.44
50.820808,2.070134,15.8,10.6,-1.84,-1.09
50.820808,2.070134,15.8,10.05,-1.43,-0.65
50.820739,2.070333,15.51,10.82,-1.58,0.22
50.820739,2.070333,15.51,10.22,-2.09,0.26
50.82067,2.070524,15.44,9.83,-1.93,-0.8
50.820602,2.070715,15.28,9.48,-1.65,-0.59
50.820602,2.070715,15.28,10.47,-0.8,-1.01
50.820537,2.070906,15.32,9.28,-1.95,0.34
50.820537,2.070906,15.32,8.47,-1.8,-0.08
50.820477,2.071101,15.19,9.54,-1.03,-0.08
50.820477,2.071101,15.19,10.29,-1.16,-0.28
50.820422,2.071293,15.32,9.36,-0.66,-0.69
50.820422,2.071293,15.32,10.03,-1.39,-0.6
50.820373,2.071492,15.59,9.86,-1.66,-0.36
50.820373,2.071492,15.59,9.35,-1.94,-0.55
50.82032,2.071702,15.48,9.73,-1.73,-0.75
50.82032,2.071702,15.48,9.72,-1.33,-1.28
50.820277,2.071907,15.22,9.79,-1.36,1.05
50.820277,2.071907,15.22,6.95,-1.99,-1.34
50.820232,2.072114,15.3,10.16,-1.97,-0.55
50.820232,2.072114,15.3,9.89,-1.82,-0.91
50.820186,2.072323,15.37,8.42,-2.37,-1.03
50.820186,2.072323,15.37,8.99,-1.43,-0.98
50.820139,2.07253,15.44,10.01,-1.42,-0.34
50.820139,2.07253,15.44,9.35,-1.35,-0.23
50.820096,2.072735,15.54,9.58,-1.67,0.06
50.820096,2.072735,15.54,8.74,-1.93,-0.71
50.820051,2.072941,15.66,9.49,-1.26,-0.99
50.820051,2.072941,15.66,9.32,-1.43,-0.09
50.820006,2.073151,15.58,9.38,-2.05,-0.24
50.820006,2.073151,15.58,9.82,-1.75,-0.33
50.819962,2.073359,15.22,9.77,-2.23,-0.6
50.819962,2.073359,15.22,9.5,-1.74,0.08
50.819918,2.073561,14.9,9.39,-2.45,-0.58
50.819918,2.073561,14.9,9.32,-1.6,0.05
50.819876,2.073757,14.53,9.83,-1.19,-0.3
50.819876,2.073757,14.53,10.51,-0.95,-0.48
50.819832,2.073953,14.63,9.62,-1.61,-0.47
50.819832,2.073953,14.63,9.53,-0.95,-0.66
50.819788,2.07415,14.72,9.65,-1.06,0.14
50.819788,2.07415,14.72,10.21,-1.27,-0.44
50.819743,2.074347,14.87,9.35,-1.21,-1.01
50.819743,2.074347,14.87,9.63,-0.85,-0.66
50.819699,2.074547,14.97,9.61,-1.55,-0.66
50.819699,2.074547,14.97,9.51,-1.09,-1.12
50.81965,2.074749,15.1,9.89,-1.46,-0.91
50.81965,2.074749,15.1,10.09,-1.24,-0.61
50.819599,2.07495,15.12,9.65,-1.38,-0.65
50.819599,2.07495,15.12,9.24,-1.42,0.62
50.819543,2.075149,15.16,9.96,-2.04,-0.74
50.819543,2.075149,15.16,9.88,-1.46,-0.62
50.81949,2.075343,14.99,9.29,-1.42,-0.17
50.819437,2.075537,14.62,9.85,-1.27,0.87
50.819437,2.075537,14.62,10.25,-1.71,1.14
50.819385,2.075731,14.45,9.71,-1.57,-0.02
50.819385,2.075731,14.45,9.82,-1.37,-0.42
50.819335,2.075922,14.58,9.08,-1.37,-0.5
50.819335,2.075922,14.58,9.39,-1.73,-0.85
50.819283,2.076113,14.47,9.39,-1.45,-0.65
50.819283,2.076113,14.47,10.17,-1.21,-1.13
50.819233,2.076301,14.5,9.39,-1.12,1.07
50.819233,2.076301,14.5,9.92,-1.85,-1.11
50.819184,2.076486,14.41,11.04,-1.09,0.44
50.819184,2.076486,14.41,10.31,-1.85,0.45
50.819139,2.076674,14.14,9.49,-1.15,0.08
50.819139,2.076674,14.14,10.34,-1.28,-1.67
50.819095,2.076862,14.11,10.15,-1.17,-0.15
50.819095,2.076862,14.11,8.96,-1.12,-0.91
50.81905,2.077052,14.23,9.48,-0.86,-1.39
50.81905,2.077052,14.23,9.41,-1.38,-2.35
50.818998,2.07724,14.41,9.86,-0.29,-2.12
50.818998,2.07724,14.41,9,-0.71,-2.34
50.818938,2.07742,14.48,9.5,-2.04,-1.26
50.818938,2.07742,14.48,9.4,-2.13,-1.42
50.818867,2.077595,14.36,10.54,-1.86,-1.56
50.818867,2.077595,14.36,9.96,-1.73,-1.43
50.818787,2.077758,14.04,10.2,-2.03,-1.6
50.818787,2.077758,14.04,9.17,-1.46,-1.23
50.818709,2.077906,13.56,9.28,-1.82,-0.01
50.818709,2.077906,13.56,9.84,-2.72,-2.26
50.818624,2.078032,12.61,9.7,-2.69,-0.57
50.818624,2.078032,12.61,9.9,-1.4,-0.27
50.818543,2.078157,11.98,8.43,-2.4,-0.51
50.818543,2.078157,11.98,10,-2.09,0.44
50.818469,2.078262,10.97,9.9,-2.12,0.39
50.818469,2.078262,10.97,9.52,-1.93,-0.56
50.818401,2.078352,10.07,9.28,-1.6,-0.5
50.818401,2.078352,10.07,9.55,-1.3,-0.44
50.818341,2.078439,9.21,9.71,-1.41,-0.22
50.818341,2.078439,9.21,9.38,-1.13,-0.76
50.818289,2.078513,8.48,9.48,-1.3,0.07
50.818289,2.078513,8.48,8.94,-1.43,-1.43
50.81824,2.078572,7.87,10.04,-1.59,-1.26
50.818187,2.078658,7.25,9.76,-1.44,-0.36
50.818187,2.078658,7.25,9.37,-2.4,-0.23
50.818141,2.078716,5.77,9.91,-0.46,-0.48
50.818141,2.078716,5.77,9.35,-0.94,-0.38
50.818099,2.078767,5.85,9.58,-1.36,0.81
50.818099,2.078767,5.85,10.07,-1.29,-0.31
50.81806,2.078814,5.44,10.19,-1.33,0.83
50.81806,2.078814,5.44,9.99,-1.38,-0.55
50.818029,2.078846,5.16,9.6,-1.19,-0.31
50.818029,2.078846,5.16,10.03,-0.98,-1.17
50.818002,2.078882,4.99,8.87,-1.64,-1.28
50.818002,2.078882,4.99,9,-1.89,0.2
50.817968,2.078929,4.8,8.99,-1.01,-0.01
50.817968,2.078929,4.8,9.7,-0.56,0.22
50.817936,2.078977,4.43,9.03,-0.53,-0.33
50.817936,2.078977,4.43,10.38,-0.23,0.18
50.817906,2.07902,4.86,9.81,0.32,0.09
50.817906,2.07902,4.86,10.15,0.32,-1.08
50.817869,2.079069,5.63,10.43,0.22,0.12
50.817869,2.079069,5.63,10.01,0.1,-0.79
50.81783,2.079126,6.24,8.82,-1.69,-0.37
50.81783,2.079126,6.24,10.16,0.42,0.95
50.817788,2.079184,6.67,10.16,-0.79,0.02
50.817788,2.079184,6.67,10.99,0.47,-0.13
50.817738,2.07925,7.2,9.57,0.8,-0.13
50.817738,2.07925,7.2,10.26,-0.04,0.02
50.817686,2.07933,8.4,9.93,-0.38,-0.21
50.817686,2.07933,8.4,10.07,-0.15,-0.78
50.817628,2.079422,9.03,9.87,-0.67,-0.18
50.817628,2.079422,9.03,8.66,0.72,-0.29
50.817572,2.079513,9.56,9.96,0.24,0.11
50.817572,2.079513,9.56,10.9,-0.22,-0.82
50.817506,2.079605,10.77,9.63,0.46,0.11
50.817506,2.079605,10.77,9.45,-1.23,-1
50.817425,2.079718,12.23,9.19,-1.52,-0.76
50.817425,2.079718,12.23,9.45,-0.89,-0.27
50.817339,2.079841,12.41,9.99,-0.33,0.17
50.817339,2.079841,12.41,10.32,-0.91,0.51
50.817255,2.079966,12.83,10.12,-1.69,-0.65
50.817255,2.079966,12.83,9.63,-1.59,-1.24
50.817168,2.080089,12.6,11.83,-1.2,-2.63
50.817168,2.080089,12.6,9.2,-1.4,0.02
50.81708,2.080197,12.51,9.48,-1.48,-0.51
50.816994,2.080314,12.26,10.2,-1.56,-0.67
50.816994,2.080314,12.26,8.92,-1.81,-0.77
50.816916,2.080427,11.95,10.1,-1.47,0.07
50.816916,2.080427,11.95,10.38,-1.1,-0.37
50.816839,2.080537,11.85,11.09,-1.02,-1.24
50.816839,2.080537,11.85,10.11,-1.18,-0.3
50.816756,2.080646,12,10.26,-1.39,0.24
50.816756,2.080646,12,9.37,-1.15,-0.69
50.816675,2.080756,11.83,10.05,-1.55,-1.12
50.816675,2.080756,11.83,10.52,-1.35,-0.64
50.816595,2.080868,11.7,10.41,-0.75,0
50.816595,2.080868,11.7,9.45,-0.39,-0.62
50.816511,2.080988,11.93,9.28,-0.52,-0.5
50.816511,2.080988,11.93,8.97,-0.63,-0.23
50.816431,2.081107,12.22,10.37,-1.2,0.49
50.816431,2.081107,12.22,11.25,-0.33,-1.12
50.816345,2.081233,12.58,8.86,-0.72,-1.08
50.816345,2.081233,12.58,11.23,-1.36,-0.73
50.816261,2.081361,13.01,10.26,-0.79,-2.31
50.816261,2.081361,13.01,11.2,-1.45,-1.07
50.816171,2.081492,13.27,9.42,-0.9,-1.56
50.816171,2.081492,13.27,9.76,-0.91,-0.23
50.81608,2.081623,13.67,9.81,-0.74,-0.9
50.81608,2.081623,13.67,9.51,-0.42,-0.31
50.815984,2.081757,14.41,9.08,-0.64,0.11
50.815984,2.081757,14.41,10.21,-0.35,-0.88
50.815883,2.081896,14.69,9.61,-0.81,-1.04
50.815883,2.081896,14.69,9.62,0.25,-0.26
50.815775,2.082047,15.55,9.74,-0.06,-0.44
50.815775,2.082047,15.55,9.84,-1.37,-0.39
50.815669,2.082197,16.55,9.95,-1.49,-0.71
50.815669,2.082197,16.55,9.51,-1.73,-0.03
50.815561,2.082356,16.57,10.37,-1.52,-0.16
50.815561,2.082356,16.57,8.07,-1.35,0.21
50.815454,2.082509,16.08,9.31,-1.54,-0.16
50.815454,2.082509,16.08,10.19,-1.88,-0.16
50.815348,2.08266,15.65,11.27,-2.31,-0.45
50.815348,2.08266,15.65,9.5,-2.03,-0.28
50.815244,2.082805,15.36,9.43,-1.43,0.16
50.815244,2.082805,15.36,10.7,-1.8,0.46
50.815142,2.082949,15.03,9.73,-1.64,-0.59
50.815142,2.082949,15.03,10.07,-1.75,-1.08
50.815047,2.083087,14.39,9.27,-0.93,-0.72
50.814951,2.083222,14.35,10.55,-1.28,-0.76
50.814951,2.083222,14.35,9.99,-0.54,-0.6
50.814854,2.083359,14.34,9.21,-1.87,-1.1
50.814854,2.083359,14.34,9.36,-1.73,-0.75
50.814757,2.08349,14.11,9.17,-1.1,-0.77
50.814757,2.08349,14.11,8.97,-1.12,-0.98
50.814663,2.083627,13.76,9.37,-0.8,-1.37
50.814663,2.083627,13.76,9.89,-0.85,-0.84
50.81457,2.083756,13.98,10.25,-0.64,-0.39
50.81457,2.083756,13.98,9.97,-0.92,-0.63
50.814477,2.083892,14.26,9.84,-0.8,-0.11
50.814477,2.083892,14.26,9.15,-1.13,-0.1
50.814381,2.084036,14.53,10.34,-1.2,-0.35
50.814381,2.084036,14.53,9.23,-1.48,1.23
50.814284,2.084175,14.54,10.17,-1.6,0.21
50.814284,2.084175,14.54,9.65,-1.43,-1.19
50.814189,2.08431,14.48,9.29,-1.87,-0.49
50.814189,2.08431,14.48,9.47,-1.67,0.33
50.814093,2.084444,14.16,10.5,-1.72,-1.03
50.814093,2.084444,14.16,8.94,-1.9,-1.1
50.814001,2.084577,13.68,10.27,-1.67,0.48
50.814001,2.084577,13.68,9.49,-1.73,-0.44
50.813913,2.084704,13.21,9.74,-1.66,-0.48
50.813913,2.084704,13.21,9.84,-1.58,-0.08
50.81383,2.08483,12.87,9.78,-1.52,-0.7
50.81383,2.08483,12.87,9.76,-1.84,0.05
50.813745,2.084947,12.55,9.2,-1.54,0.07
50.813745,2.084947,12.55,8.41,-1.88,-0.23
50.813663,2.085061,12.01,9.61,-1.95,-1.11
50.813663,2.085061,12.01,9.93,-1.8,-0.39
50.813583,2.085176,11.76,9.55,-1.62,-1.21
50.813583,2.085176,11.76,9.81,-1.38,-0.57
50.813509,2.085287,11.32,9.68,-1.31,-0.86
50.813509,2.085287,11.32,10.59,-1.36,-0.53
50.813436,2.085392,11.1,9.95,-1.71,-0.28
50.813436,2.085392,11.1,10.41,-0.73,0.57
50.813364,2.085488,11.31,9.73,-0.9,-1.04
50.813364,2.085488,11.31,9.49,-0.58,-0.87
50.813289,2.085595,11.89,10.27,-1,-1.24
50.813211,2.085712,12.34,10.57,-1.1,0.11
50.813211,2.085712,12.34,8.52,-0.14,-0.28
50.81312,2.085839,13.09,10.63,-0.75,0.44
50.81312,2.085839,13.09,10.49,-0.36,-0.83
50.813023,2.08597,14.92,10.7,-0.29,-1.51
50.813023,2.08597,14.92,9.73,-0.33,-1.02
50.812914,2.086127,15.93,9.7,0.13,-0.34
50.812914,2.086127,15.93,10.26,-0.14,-1.4
50.812801,2.086294,17.49,11.3,-2.09,-0.34
50.812801,2.086294,17.49,11.84,-1.19,-1.39
50.812686,2.086464,17.59,9.17,-0.89,0.61
50.812686,2.086464,17.59,10.26,-0.2,-1.46
50.81257,2.086639,18.03,9.24,0.14,-0.94
50.81257,2.086639,18.03,9.76,0.19,-0.79
50.812448,2.086814,18.5,10.58,-0.04,-0.7
50.812448,2.086814,18.5,10.9,-1.19,-0.53
50.812325,2.08699,19.05,8.8,-1.15,-0.03
50.812325,2.08699,19.05,11.83,0.14,-1.71
50.812201,2.087167,19.32,9.09,-1.17,-1.77
50.812201,2.087167,19.32,11.24,-0.03,0.9
50.812073,2.08735,19.61,10.51,0.14,-1.7
50.812073,2.08735,19.61,12.18,-0.12,-0.77
50.81194,2.087542,20.29,10.88,-0.37,0.89
50.81194,2.087542,20.29,10.18,-0.93,0.82
50.811801,2.087741,20.65,10.83,-0.29,-1.01
50.811801,2.087741,20.65,9.37,-0.52,-1.6
50.811659,2.087945,21.06,8.3,-1.15,-0.58
50.811659,2.087945,21.06,5.65,-0.44,-0.26
50.811516,2.088157,21.61,8.83,-0.54,0.57
50.811516,2.088157,21.61,8.98,-1.02,-1.57
50.81137,2.08837,21.93,9.07,-0.66,-0.07
50.81137,2.08837,21.93,9.57,-1.19,1.61
50.811224,2.088584,21.75,8.32,-1.03,-0.96
50.811224,2.088584,21.75,8.04,-1.5,0.1
50.811078,2.088799,21.21,8.97,-0.71,-0.34
50.811078,2.088799,21.21,12.11,-1.23,0.88
50.810937,2.089,21.22,9.53,-0.06,-0.33
50.810937,2.089,21.22,10.18,0.18,-1.02
50.810793,2.089206,21.55,8.72,-0.79,0.44
50.810793,2.089206,21.55,10.66,-0.49,-0.45
50.810649,2.089413,21.89,9.73,-1.02,-0.8
50.810649,2.089413,21.89,8.83,-0.44,-0.79
50.810503,2.089624,22.03,9.76,-1.02,-1.28
50.810351,2.089833,22.03,9.69,-1.58,0.26
50.810351,2.089833,22.03,9.94,-0.68,-0.74
50.810203,2.090041,21.88,10.47,-0.4,-2.16
50.810203,2.090041,21.88,9.18,-0.64,-1.13
50.810057,2.09025,21.93,9.37,-1.36,-0.11
50.810057,2.09025,21.93,11.49,-1.11,-1.48
50.80991,2.09046,21.76,9.69,-0.73,0.17
50.80991,2.09046,21.76,9.4,-1.62,-0.31
50.809765,2.090666,21.41,11.2,-1.38,0.58
50.809765,2.090666,21.41,10.34,-2.37,-1.6
50.809627,2.090868,20.68,11.3,-1.87,-0.11
50.809627,2.090868,20.68,10.07,-1.03,-1.12
50.809488,2.091061,20.33,10.17,-0.62,-0.19
50.809488,2.091061,20.33,9.1,-1.96,0.59
50.809352,2.091257,20.35,8.33,-0.27,-1.34
50.809352,2.091257,20.35,10.31,-1.02,0.23
50.809214,2.091451,20.7,9.74,-0.07,0.42
50.809214,2.091451,20.7,10.44,-0.95,-2.07
50.809074,2.091652,21.15,11.04,-1.45,-0.4
50.809074,2.091652,21.15,10.23,-1.6,1.09
50.808933,2.091857,21.45,10.01,-0.61,-0.92
50.808933,2.091857,21.45,10.3,-0.65,-1.61
50.808791,2.092062,21.54,7.5,-1.21,0.21
50.808791,2.092062,21.54,9.19,-2.78,1
50.808649,2.092269,21.33,11.18,-0.97,1.05
50.808649,2.092269,21.33,8.96,-1.9,1.21
50.808506,2.092483,21.46,12.27,-1.01,0.2
50.808506,2.092483,21.46,12.13,-0.21,-0.59
50.808373,2.092704,21.67,8.29,-1.14,1.83
50.808373,2.092704,21.67,10.88,-1.16,-0.33
50.808249,2.092941,21.57,10.93,-0.35,3.07
50.808249,2.092941,21.57,11.53,-0.52,2.08
50.808142,2.093198,22.44,11.78,-0.27,-0.03
50.808142,2.093198,22.44,10.14,-2.24,-1.23
50.80806,2.093483,22.77,9.99,-2.61,-2.41
50.80806,2.093483,22.77,7.74,-2.04,-1.47
50.807978,2.09378,22.68,9.84,-1.5,-0.5
50.807978,2.09378,22.68,11.67,-1.9,-1.84
50.807897,2.094062,22.87,10.65,-1.55,-1.2
50.807897,2.094062,22.87,8.92,-1.75,-1.76
50.807802,2.094347,22.76,11.05,-1.24,-0.94
50.807707,2.094627,22.44,10.18,-2.6,-0.23
50.807707,2.094627,22.44,8.64,-1.23,1.21
50.807614,2.094902,22.17,9.36,-1.65,0.23
50.807614,2.094902,22.17,8.93,-2.36,-0.95
50.807519,2.095176,22.13,9.56,-2.31,-0.52
50.807519,2.095176,22.13,10.19,-1.19,-0.29
50.807425,2.095463,21.99,8.54,-3.01,-2.18
50.807425,2.095463,21.99,8.82,-1.75,-1.38
50.80733,2.095732,21.87,10.5,-1.46,-0.41
50.80733,2.095732,21.87,10.21,-2.34,-0.23
50.807239,2.096007,21.9,8.74,-1.81,-0.93
50.807239,2.096007,21.9,9.47,-1.91,2.14
50.807146,2.096278,21.92,10.33,-2,-0.61
50.807146,2.096278,21.92,9.15,-2.81,-1.26
50.807052,2.096555,21.88,9.55,-1.38,-0.23
50.807052,2.096555,21.88,10.65,-1.48,-0.41
50.806959,2.096828,21.89,7.86,-2.52,2.06
50.806959,2.096828,21.89,9.83,-1.45,0.46
50.806864,2.097106,21.88,10.59,-2.15,-2.08
50.806864,2.097106,21.88,12.54,-1.65,0.25
50.806775,2.097382,21.9,9.34,-2.22,-0.61
50.806775,2.097382,21.9,8.74,-1.8,1.09
50.806675,2.097661,21.99,11.26,-2.58,-0.86
50.806675,2.097661,21.99,10.57,-1.82,-0.83
50.806573,2.097938,22.06,12.11,-2.45,1.46
50.806573,2.097938,22.06,10.96,-2.03,-0.94
50.806482,2.098208,22.07,10.19,-2.03,-0.68
50.806482,2.098208,22.07,10.51,-1.79,1.5
50.806396,2.098474,21.98,8.25,-1.66,-1.03
50.806396,2.098474,21.98,11.59,-1.79,2.99
50.806304,2.098737,21.72,10.28,-2.43,1.28
50.806304,2.098737,21.72,8.27,-1.64,-0.89
50.806214,2.099005,21.39,9.31,-2.02,-1.33
50.806214,2.099005,21.39,9.51,-1.07,-0.32
50.806127,2.099273,21.11,10.54,-2.49,0.68
50.806127,2.099273,21.11,7.93,-2.35,-1.54
50.806041,2.099533,20.84,11.2,-1.34,-1.23
50.806041,2.099533,20.84,6.99,-2.34,1.04
50.805957,2.099791,20.6,10.16,-1.63,-0.75
50.805957,2.099791,20.6,10.82,-2.6,0.46
50.80587,2.100044,19.94,10.07,-2.6,0.07
50.80587,2.100044,19.94,10.42,-1.05,2.15
50.80579,2.100286,19.61,9.01,-1.13,0.01
50.80579,2.100286,19.61,10.95,-1.16,-0.46
50.805713,2.100521,19.21,9.94,-1.42,-0.74
50.805713,2.100521,19.21,12.16,-1,-0.14
50.805643,2.100758,18.96,9.34,-1.51,0.79
50.805565,2.101001,18.78,9.85,-1.13,-0.95
50.805565,2.101001,18.78,11.4,-2.17,-0.98
50.80549,2.101245,18.48,10.02,-1.47,-1.55
50.80549,2.101245,18.48,11.8,-1.29,-1.02
50.805408,2.101485,18.41,9.17,-1.02,-0.76
50.805408,2.101485,18.41,9.8,-1.35,1.93
50.805331,2.10172,18.33,10.84,-1.4,-0.58
50.805331,2.10172,18.33,11.12,-0.47,-0.05
50.805254,2.101951,18.35,9.96,-1.16,-1.03
50.805254,2.101951,18.35,8.27,0.31,-1.13
50.805175,2.102183,18.34,11.28,-1.32,0.16
50.805175,2.102183,18.34,10.03,-1.87,0.11
50.805095,2.102415,18.46,8.85,-1.38,-0.3
50.805095,2.102415,18.46,10.5,-1.65,-1.51
50.805014,2.102649,18.47,10.53,-1.69,-1.28
50.805014,2.102649,18.47,10.47,-1.12,-0.89
50.804935,2.102871,18.39,10.04,-1.08,-0.04
50.804935,2.102871,18.39,9.31,-0.67,0.21
50.804857,2.103101,18.36,11.39,-0.18,0.69
50.804857,2.103101,18.36,7.67,-0.5,-1.14
50.804782,2.103333,18.43,8.71,-1.11,0.52
50.804782,2.103333,18.43,9.13,-1.94,-0.98
50.804704,2.103562,18.23,9.54,-1.68,0.2
50.804704,2.103562,18.23,9.49,-1.75,-0.57
50.804628,2.103791,17.95,9.48,-2.07,-0.34
50.804628,2.103791,17.95,9.07,-2,0.48
50.804549,2.10401,17.37,10.13,-1.56,-0.31
50.804549,2.10401,17.37,9.07,-0.68,-1.12
50.804477,2.104222,17.1,8.48,-1.74,-0.16
50.804477,2.104222,17.1,9.21,-2.16,-0.91
50.804401,2.104435,17.28,8.62,-0.68,-0.25
50.804401,2.104435,17.28,10.76,-0.48,-0.45
50.804325,2.104647,17.98,8.5,-1.54,0.46
50.804325,2.104647,17.98,10.51,-1.59,0.68
50.804251,2.10487,18.26,9.43,-1.12,0.25
50.804251,2.10487,18.26,8.79,-1.6,-0.6
50.804177,2.105106,18.37,10.91,-1.5,0.27
50.804177,2.105106,18.37,8.81,-2.43,-0.6
50.8041,2.105344,18.1,11.23,-2.1,-2.42
50.8041,2.105344,18.1,9.44,-1.11,-0.88
50.804023,2.105571,17.93,8.25,-2.37,-1.16
50.804023,2.105571,17.93,11.37,-1.21,-0.76
50.803949,2.105799,17.89,9.63,-1.76,-0.44
50.803877,2.106021,18.16,10.86,-1.56,-1.06
50.803877,2.106021,18.16,10.98,-1.95,0.72
50.803803,2.106243,18.44,10.34,-1.46,-0.07
50.803803,2.106243,18.44,7.19,-1.96,0.35
50.803721,2.106474,18.83,11.22,-0.66,-0.24
50.803721,2.106474,18.83,10.57,-2.07,0.78
50.803636,2.106709,19.12,8.16,-1.19,-0.97
50.803636,2.106709,19.12,9.43,-2.05,-0.49
50.803553,2.106955,19.24,10.35,-1.13,-0.21
50.803553,2.106955,19.24,8.99,-1.96,0.16
50.80347,2.1072,19.45,10.71,-1.94,-1.95
50.80347,2.1072,19.45,9.88,-2.49,-0.48
50.803389,2.107444,19.31,9.83,-1.46,-0.72
50.803389,2.107444,19.31,10.13,-1.7,-0.37
50.803307,2.107684,19.14,8.71,-1.86,-0.86
50.803307,2.107684,19.14,10.23,-1.65,-0.82
50.803225,2.107917,18.89,10.83,-0.93,0.09
50.803225,2.107917,18.89,9.68,-1.21,0.77
50.803144,2.10815,18.62,10.42,-1.63,-0.15
50.803144,2.10815,18.62,9.86,-1.29,-0.05
50.803064,2.108382,18.81,10.14,-1.07,-0.53
50.803064,2.108382,18.81,10.23,-0.92,1.23
50.802985,2.108618,19,10.92,-1.95,1.45
50.802985,2.108618,19,9.65,-1.93,-1.41
50.802909,2.108855,18.75,8.3,-1.43,-1.59
50.802909,2.108855,18.75,10.33,-1.51,-1.84
50.802835,2.109088,18.41,9.93,-0.86,0.34
50.802835,2.109088,18.41,10.86,-1.7,-0.81
50.802758,2.109323,18.66,9.78,-1.65,-1.09
50.802758,2.109323,18.66,10.48,-1.76,-0.08
50.80268,2.109559,18.91,9.52,-1.66,-0.82
50.80268,2.109559,18.91,10.57,-0.89,-0.14
50.802599,2.109802,18.95,8.89,-1.6,-0.47
50.802599,2.109802,18.95,10.39,-1.47,-0.57
50.802517,2.110045,19.25,10.35,-0.98,-0.27
50.802517,2.110045,19.25,8.92,-1.2,-1.24
50.802437,2.110293,19.35,10.43,-1.49,-1.08
50.802437,2.110293,19.35,8.44,-0.83,0.35
50.802355,2.110531,19.28,9.97,-1.01,0.67
50.802355,2.110531,19.28,8.51,-1.79,-0.39
50.802275,2.110768,19.45,9.09,-1.57,-0.3
50.802196,2.111006,19.24,8.65,-1.76,0.57
50.802196,2.111006,19.24,10.62,-1.38,0.02
50.802118,2.111243,19.2,11.93,-0.88,-0.68
50.802118,2.111243,19.2,10.07,-1.55,-1.55
50.802037,2.111485,19.32,9.01,-1.57,0.75
50.802037,2.111485,19.32,8.9,-0.73,-1.36
50.801956,2.111733,19.56,9.82,-0.9,-0.01
50.801956,2.111733,19.56,10.44,-2.57,-1.58
50.801874,2.111979,19.63,8.83,-2.54,-1.01
50.801874,2.111979,19.63,11.17,-0.93,-0.99
50.801792,2.11223,19.57,7.58,-1.11,-0.46
50.801792,2.11223,19.57,8.8,-0.86,1.25
50.801708,2.112477,19.65,9.06,-0.01,0.27
50.801708,2.112477,19.65,9.33,-1.25,-0.9
50.801626,2.112724,19.67,10.41,-2.42,2.6
50.801626,2.112724,19.67,12.43,-0.92,-0.18
50.801543,2.11297,19.69,11.13,-1.5,-0.62
50.801543,2.11297,19.69,10.23,-2.32,0.99
50.80146,2.113214,19.71,9.98,-1.5,0.77
50.80146,2.113214,19.71,10.37,-1.72,-2.5
50.801376,2.113465,19.82,9.91,-1.79,-0.76
50.801376,2.113465,19.82,10.65,-1.03,-0.44
50.801295,2.113707,19.83,8.32,-2.27,-1.63
50.801295,2.113707,19.83,10.25,-0.67,-2.1
50.80121,2.113952,19.9,11.65,-1.84,0.19
50.80121,2.113952,19.9,10.41,-2.06,-0.35
50.801121,2.114205,20.27,9.99,-1.63,0.11
50.801121,2.114205,20.27,10.83,-1.42,-1.41
50.801031,2.11446,20.56,9.28,-0.91,-0.1
50.801031,2.11446,20.56,10.72,-1.54,-1
50.800946,2.11471,20.52,9.47,-1.17,-1.59
50.800946,2.11471,20.52,7.82,-2.17,0.68
50.800862,2.11497,20.26,10.74,-1.76,-0.02
50.800862,2.11497,20.26,8.13,-1.72,-0.73
50.800778,2.115225,20.23,8.85,-0.9,0.33
50.800778,2.115225,20.23,9.86,-1.38,-1.37
50.800694,2.115482,20.37,7.81,-1.04,-1.28
50.800694,2.115482,20.37,8.92,-1.27,-1.33
50.800606,2.115733,20.38,10.52,-1.88,-0.61
50.800606,2.115733,20.38,10.42,-1.02,-1
50.800515,2.115989,20.34,9.48,-2.46,0.36
50.800515,2.115989,20.34,7.86,-1.82,-0.15
50.800429,2.116248,20.49,8.75,-1.23,-1.6
50.80034,2.116511,20.75,8.81,-1.54,-0.89
50.80034,2.116511,20.75,11.48,-0.45,-0.91
50.800251,2.116764,21.27,10.48,-1.87,-2.09
50.800251,2.116764,21.27,9.15,-1.65,-0.69
50.80016,2.117027,21.1,9.98,-1.75,0
50.80016,2.117027,21.1,11.44,-2.2,-1.75
50.800068,2.117294,20.99,9.33,-1.37,0.04
50.800068,2.117294,20.99,10.2,-1.18,0.14
50.799981,2.117551,20.85,10.61,-2.04,-0.7
50.799981,2.117551,20.85,11.36,-2.19,-0.82
50.799895,2.117812,20.79,10.27,-1.47,0.08
50.799895,2.117812,20.79,9.17,-1.71,-0.68
50.79981,2.118072,20.77,11.93,-2.63,-0.53
50.79981,2.118072,20.77,9.47,-1.36,-0.22
50.799726,2.118333,20.93,8.94,-0.81,0.46
50.799726,2.118333,20.93,8.47,-0.91,-0.82
50.799638,2.118597,21.34,11.81,-1.28,-1.02
50.799638,2.118597,21.34,10.28,-1.19,-1.32
50.799547,2.118867,21.8,11.21,-1.02,0.68
50.799547,2.118867,21.8,8.4,-2.13,-0.74
50.799453,2.119143,21.94,9.45,-1.3,-0.45
50.799453,2.119143,21.94,9.47,-1.04,-0.03
50.799359,2.119422,22.4,11.64,-1.57,0.08
50.799359,2.119422,22.4,9.53,-1.49,-1.47
50.799271,2.119695,22.38,8.5,-0.81,-1.4
50.799271,2.119695,22.38,10.06,-1.28,-0.8
50.799176,2.119975,22.59,8.62,-2.06,-0.02
50.799176,2.119975,22.59,9.35,-1.44,0.1
50.799083,2.120255,22.68,9.27,-1.57,-0.67
50.799083,2.120255,22.68,9.61,-0.15,0.54
50.798983,2.120546,22.67,9.27,-0.55,0.47
50.798983,2.120546,22.67,7.47,-1.79,-0.26
50.798886,2.120833,22.38,10.92,-2.73,0.28
50.798886,2.120833,22.38,7.38,-2.03,-1.22
50.798795,2.121108,21.74,11.03,-0.44,-1.55
50.798795,2.121108,21.74,8.46,-0.63,-1.41
50.798705,2.121375,21.75,11.05,-1.71,0.56
50.798705,2.121375,21.75,9.58,-1.15,1.61
50.798615,2.121647,21.93,9.82,-0.53,-1.54
50.798615,2.121647,21.93,12.97,-0.52,-0.01
50.798526,2.121923,22.32,9.32,-1.64,0.47
50.798526,2.121923,22.32,11.94,-1.26,0.41
50.798435,2.122205,22.7,10.31,-1.39,-0.54
50.798435,2.122205,22.7,10.33,-0.1,-0.56
50.798338,2.122494,23.09,10.06,-0.98,-0.5
50.798239,2.122792,23.36,10.82,-2.53,-1.15
50.798239,2.122792,23.36,9.28,-1.3,-1.35
50.798141,2.123084,23.2,10.84,-0.96,-0.24
50.798141,2.123084,23.2,10.48,-1.59,-1.1
50.798041,2.123375,23.1,10.39,-2.4,1.18
50.798041,2.123375,23.1,8.58,-1.66,-0.71
50.797944,2.123661,22.41,9.08,-2.43,-0.12
50.797944,2.123661,22.41,9.87,-1.56,-0.75
50.797853,2.123939,21.79,9.15,-2.04,0.57
50.797853,2.123939,21.79,10.42,-2.63,-1.02
50.797759,2.124211,21.22,8.8,-1.35,-0.56
50.797759,2.124211,21.22,9.16,-2.61,1.2
50.797668,2.124475,20.63,11.01,-1.98,-1.03
50.797668,2.124475,20.63,10.04,-2.1,-0.06
50.797582,2.124731,20.2,8.84,-1.58,-0.03
50.797582,2.124731,20.2,9.72,-1.45,0.04
50.797498,2.124982,19.96,10.05,-1.28,0.12
50.797498,2.124982,19.96,8.26,-1.94,-0.92
50.797411,2.125235,20.07,10.04,-0.19,0.02
50.797411,2.125235,20.07,9.83,-0.73,-1.55
50.797326,2.125491,20.43,8.81,-0.91,0.99
50.797326,2.125491,20.43,10.39,-0.62,-1.36
50.797238,2.125748,20.93,11.39,-1.43,-1.62
50.797238,2.125748,20.93,10.46,-1.93,-1.21
50.797151,2.126009,20.96,6.99,-2.14,-1.47
50.797151,2.126009,20.96,9.98,-2.45,-0.79
50.797064,2.126269,20.64,9.66,-1.62,-0.57
50.797064,2.126269,20.64,8.36,-2.04,-0.75
50.796977,2.126525,20.29,9.04,-2.56,-0.43
50.796977,2.126525,20.29,9.59,-2.15,0.19
50.796892,2.126775,20.08,11.57,-0.86,-0.3
50.796892,2.126775,20.08,7.9,-1.7,0.17
50.796807,2.127027,19.95,10.97,-1.37,-0.66
50.796807,2.127027,19.95,8.5,-0.99,-0.74
50.796721,2.127276,20.08,9.28,-0.79,-1.81
50.796721,2.127276,20.08,10.67,-0.4,0.96
50.796638,2.127525,20.09,9.92,-2.09,-0.43
50.796638,2.127525,20.09,10.01,-1.81,-0.78
50.796554,2.127771,19.95,10.39,-1.81,-1.56
50.796554,2.127771,19.95,11.02,-1.35,-1.32
50.79647,2.12802,19.69,10.09,-2.67,-0.2
50.79647,2.12802,19.69,10.12,-1.92,-0.29
50.796385,2.12826,19.35,9.84,-1.99,-1.54
50.796299,2.128501,19.2,9.23,-2.26,0.37
50.796299,2.128501,19.2,9.27,-2.63,-0.21
50.796218,2.128736,19.04,10.17,-2.09,-0.49
50.796218,2.128736,19.04,9.26,-1.57,0.15
50.796139,2.128969,18.9,8.81,-1.02,-0.65
50.796139,2.128969,18.9,8.4,-2.18,-0.76
50.79606,2.129204,18.72,8.18,-2.05,-0.35
50.79606,2.129204,18.72,10.72,-1.9,1.17
50.79598,2.129442,18.83,9.31,-1.7,-1.03
50.79598,2.129442,18.83,8.76,-1.19,0.92
50.795902,2.129677,19.02,11.79,-1.59,-1.35
50.795902,2.129677,19.02,8.82,-1.97,-0.35
50.795823,2.129918,19.22,10.11,-1.66,-0.66
50.795823,2.129918,19.22,9.18,-1.87,0.13
50.795743,2.13015,19.52,9.84,-2.38,0.29
50.795743,2.13015,19.52,9.46,-2.73,1.18
50.795662,2.130397,19.63,9.46,-1.16,-0.23
50.795662,2.130397,19.63,8.93,-2.68,-0.93
50.795574,2.130645,19.87,12.31,-2.68,-0.53
50.795574,2.130645,19.87,9.75,-1.68,0.06
50.795492,2.130901,20.13,9.31,-2.16,1.02
50.795492,2.130901,20.13,10.27,-0.91,-1.13
50.795408,2.13115,20.4,6.9,-1.23,0
50.795408,2.13115,20.4,11.85,-3.17,0.03
50.795321,2.131396,20.47,11.14,-1.47,-1.55
50.795321,2.131396,20.47,7.77,-1.04,-0.45
50.795233,2.131656,20.34,10.62,-2.49,-1.31
50.795233,2.131656,20.34,9.83,-2.32,-0.25
50.795145,2.13191,20.11,10.49,-2.09,-0.2
50.795145,2.13191,20.11,7.56,-0.53,1.07
50.795058,2.13216,20.29,9.91,-1.5,0.04
50.795058,2.13216,20.29,10.13,-1.21,-1.01
50.79497,2.132407,20.39,8.01,-1.48,-1.03
50.79497,2.132407,20.39,7.88,-1.05,-0.48
50.794881,2.13266,20.47,10.9,-2.14,-0.12
50.794881,2.13266,20.47,11.66,-1.83,-1.69
50.794794,2.132918,20.6,10.52,-1.77,-0.32
50.794794,2.132918,20.6,9.79,-1.9,-0.44
50.794704,2.13318,20.59,10.86,-0.7,0.24
50.794704,2.13318,20.59,12.37,-1.73,-0.07
50.794614,2.133454,20.65,9.62,-0.06,-1.72
50.794526,2.133726,20.39,9.31,0.4,-0.64
50.794526,2.133726,20.39,11.66,-1.99,-2.35
50.794441,2.133995,20.32,9.07,-0.79,0.15
50.794441,2.133995,20.32,9.49,-0.45,-0.14
50.794359,2.134258,20.17,7.31,0.45,-0.34
50.794359,2.134258,20.17,11.54,-1.7,-0.37
50.794275,2.134518,20.19,6.93,0.29,-0.48
50.794275,2.134518,20.19,10.38,-2.13,-0.81
50.794194,2.134771,20.05,10.83,-0.03,-0.8
50.794194,2.134771,20.05,10.19,-1.5,-1.3
50.79411,2.135031,19.69,9.84,-1.8,-1.02
50.79411,2.135031,19.69,10.16,-1.61,-1.89
50.794031,2.135278,19.11,10.82,-1.02,-1.17
50.794031,2.135278,19.11,10.88,-0.17,0.1
50.793952,2.135512,18.41,8.63,-1.3,-0.22
50.793952,2.135512,18.41,10.99,-2.05,-1.46
50.793875,2.135739,17.57,10.2,-1.49,0.43
50.793875,2.135739,17.57,8.01,0.52,0.07
50.793802,2.135951,17.61,9.43,-2.11,-1.19
50.793802,2.135951,17.61,8.37,-1.63,-0.75
50.793729,2.136165,18.13,9.11,-1.46,0.05
50.793729,2.136165,18.13,9.96,-1.58,-0.98
50.793653,2.136379,18.17,10.77,-2.59,-0.98
50.793653,2.136379,18.17,9.8,-0.64,-1.61
50.793579,2.136603,18.22,11.01,-0.02,-0.25
50.793579,2.136603,18.22,10.86,-0.62,-0.88
50.793504,2.136826,18.64,10.11,-1.38,-0.09
50.793504,2.136826,18.64,7.44,-1.24,0.62
50.793425,2.13706,19.12,9.85,-0.14,-1.44
50.793425,2.13706,19.12,9.73,-1.35,-1.99
50.793341,2.137311,19.83,8.73,-0.97,-1.41
50.793341,2.137311,19.83,8.69,-0.91,-1.02
50.793258,2.137564,20.2,11.2,-1.87,-0.34
50.793258,2.137564,20.2,8.07,-0.98,-1.14
50.793173,2.137818,20.35,9.21,-1.34,-0.07
50.793173,2.137818,20.35,9.31,-1.36,-0.38
50.793089,2.138071,19.86,8.89,-1.69,-0.95
50.793089,2.138071,19.86,10.36,-1.51,0.56
50.79301,2.138315,19.45,9.92,-1.82,0.23
50.792931,2.138557,19.47,10.74,-0.63,0.87
50.792931,2.138557,19.47,8.83,-0.17,-1.2
50.79285,2.138808,19.4,9.25,-1.12,-0.72
50.79285,2.138808,19.4,9.72,-1.13,-1.13
50.79277,2.139052,18.8,9.73,-2,0.18
50.79277,2.139052,18.8,11.61,-2.01,-0.66
50.792694,2.139286,17.91,9.08,-1.74,-1.98
50.792694,2.139286,17.91,10.59,-2.48,-2.05
50.792625,2.139504,17.06,7.07,-1.18,-0.12
50.792625,2.139504,17.06,8.81,-1.38,0.45
50.792556,2.139712,16.52,9.73,-1.81,1.76
50.792556,2.139712,16.52,8.44,-1.23,-0.68
50.792484,2.139918,16,10.5,-0.81,0.14
50.792484,2.139918,16,9.45,-1.9,-1.32
50.792427,2.140115,15.55,9.62,-2.74,-0.61
50.792427,2.140115,15.55,10.07,-1.38,-0.29
50.792373,2.140317,15.43,8.53,-1.48,0.72
50.792373,2.140317,15.43,9.61,-1.13,-1.34
50.792329,2.140517,15.43,10.3,-2.33,-0.65
50.792329,2.140517,15.43,10.2,-1.87,-1.48
50.792284,2.140727,15.59,8.38,-0.97,0.23
50.792284,2.140727,15.59,10.02,-0.69,-0.35
50.792239,2.140945,16.04,11.17,-1.8,0.45
50.792239,2.140945,16.04,8.97,-2.07,-0.73
50.792201,2.141161,16.44,11.43,-3.32,-1.5
50.792201,2.141161,16.44,10.15,-1.95,-1.25
50.79216,2.141385,16.72,8.7,-2.11,-1.85
50.79216,2.141385,16.72,8.38,-2.3,-1.7
50.792116,2.141616,17.01,8.8,-2.52,-0.24
50.792116,2.141616,17.01,11.6,-1.81,-1.21
50.792069,2.141847,17.14,9.79,-1.39,-0.2
50.792069,2.141847,17.14,9.72,-0.94,-0.64
50.792023,2.142078,17.42,9.22,-2.19,0.14
50.792023,2.142078,17.42,9.62,-1.18,-0.03
50.791974,2.142323,18.19,7.96,-1.75,-0.54
50.791974,2.142323,18.19,10.83,-1.43,-0.72
50.791924,2.142583,18.85,8.34,-1.54,0.09
50.791924,2.142583,18.85,10.15,-2.09,-0.49
50.791872,2.142843,19.19,10.3,-2.1,-0.57
50.791872,2.142843,19.19,7.77,-2.22,-1.27
50.791828,2.143098,19.48,11.02,-1.77,-1.56
50.791773,2.143367,19.78,10.93,-1.66,-0.22
50.791773,2.143367,19.78,10.97,-2.76,-0.59
50.791722,2.143637,19.87,9.93,-1.05,-1.57
50.791722,2.143637,19.87,8.96,-2.07,-0.85
50.791672,2.143904,19.73,9.6,-2.12,-0.36
50.791672,2.143904,19.73,9.96,-0.33,-1.2
50.791622,2.14417,19.58,9.94,-0.79,-0.31
50.791622,2.14417,19.58,11.11,-2.81,0.03
50.791573,2.144432,19.42,9.47,-0.18,-0.19
50.791573,2.144432,19.42,8.67,-2.33,-0.68
50.791517,2.144702,19.42,11.24,-1.02,0.48
50.791517,2.144702,19.42,10.06,-0.19,-0.56
50.791455,2.144975,19.36,10.06,-0.9,-1.11
50.791455,2.144975,19.36,10.59,-1.69,-0.25
50.791398,2.145246,19.33,7.3,-1.97,-0.23
50.791398,2.145246,19.33,8.63,-1.24,-0.88
50.79135,2.145509,19.03,8.04,-1.31,-0.6
50.79135,2.145509,19.03,8.58,-1.92,-0.98
50.791305,2.145763,18.4,9.62,-1.7,0.9
50.791305,2.145763,18.4,12.67,-0.57,-1.11
50.791259,2.146012,18.42,10.18,-1.48,-1.07
50.791259,2.146012,18.42,11.2,-0.56,-0.75
50.79121,2.146262,18.52,12.45,-1.18,-0.7
50.79121,2.146262,18.52,7.04,-0.94,-1.22
50.791164,2.146511,18.55,8.24,-0.97,-0.52
50.791164,2.146511,18.55,10.95,-1.96,1.34
50.791116,2.146754,18.22,9.11,-1.69,-0.32
50.791116,2.146754,18.22,9.7,-1.78,0.08
50.791071,2.146993,17.71,9.32,-1.11,0.01
50.791071,2.146993,17.71,8.45,-2.03,-0.98
50.79103,2.147226,17.38,10.76,-1.47,-0.59
50.79103,2.147226,17.38,6.99,-0.71,0.04
50.790989,2.147456,17.27,9.36,-1.82,-0.9
50.790989,2.147456,17.27,10.26,-1.21,-0.8
50.790947,2.147691,17.21,10.33,-1.74,-1.12
50.790947,2.147691,17.21,11.39,-2.03,-0.97
50.790898,2.147925,17.24,7.6,-2.25,-0.95
50.790898,2.147925,17.24,11.05,-1.81,-0.68
50.790853,2.14816,16.97,8.44,-2.02,0.53
50.790853,2.14816,16.97,11.07,-2.46,-1.23
50.790808,2.148389,16.87,11.09,-1.82,-0.72
50.790808,2.148389,16.87,10.03,-2.22,-0.76
50.790764,2.148615,16.64,8.97,-2.19,0.38
50.790764,2.148615,16.64,12.09,-1.04,1.65
50.79072,2.148839,16.6,10.78,-1.66,-1.01
50.79072,2.148839,16.6,11.61,-0.93,0.16
50.790675,2.149062,16.97,10.27,-0.71,-1.69
50.790627,2.149294,17.13,10.3,-2.51,-0.44
50.790627,2.149294,17.13,8.6,-2.33,0.23
50.790582,2.149525,17.1,9.62,-1.54,-0.55
50.790582,2.149525,17.1,7.89,-2.16,-0.47
50.790539,2.149747,16.94,9.05,-2.81,-1.31
50.790539,2.149747,16.94,8.37,-0.67,-0.29
50.79049,2.149975,16.59,9.79,-1.73,-1.57
50.79049,2.149975,16.59,7.8,-2,-1.22
50.790445,2.150202,16.48,9.35,-2.19,0.19
50.790445,2.150202,16.48,8.97,-2.05,-1.03
50.7904,2.150419,16.38,10.18,-1.58,-0.67
50.7904,2.150419,16.38,8.73,-1.87,-0.74
50.790355,2.150642,16.27,8.09,-1.71,-0.06
50.790355,2.150642,16.27,8.95,-0.9,0.39
50.790313,2.150863,16.65,8.71,-0.54,-0.93
50.790313,2.150863,16.65,9.82,-0.53,-0.75
50.790269,2.151093,17.56,7.81,-1.19,0.71
50.790269,2.151093,17.56,9.56,-1.04,-0.27
50.790229,2.151325,17.92,9.28,-1.44,-0.76
50.790229,2.151325,17.92,10.99,-0.33,-0.02
50.790183,2.151574,18.5,9.01,-2.23,-0.59
50.790183,2.151574,18.5,8.33,-2.37,0.14
50.790137,2.15183,19.09,10.22,-1.59,-0.74
50.790137,2.15183,19.09,8.41,-0.96,-0.41
50.79009,2.15209,19.32,9.19,-1.3,-1.74
50.79009,2.15209,19.32,9.86,-1.5,-1.36
50.790039,2.152356,19.27,10.22,-2.47,-1.15
50.790039,2.152356,19.27,8.42,-1.6,-1.89
50.789984,2.152631,19.84,10.77,-1.02,-1.06
50.789984,2.152631,19.84,11.18,-1.73,-1.36
50.789925,2.152915,20.32,12.08,-1.27,-1.86
50.789925,2.152915,20.32,11.36,-1.72,-1.24
50.789874,2.153194,20.83,10.34,-2.08,-0.42
50.789874,2.153194,20.83,8.83,-2.12,-1.37
50.789814,2.15348,21.03,9.59,-1.26,-0.74
50.789814,2.15348,21.03,8.59,-2.15,-1.66
50.78976,2.153769,20.82,9.67,-2.27,-0.61
50.789703,2.154053,20.57,10.93,-1.44,-1.49
50.789703,2.154053,20.57,9.77,-1.21,-1.77
50.78964,2.154339,20.47,11.59,-1.5,-0.83
50.78964,2.154339,20.47,7.56,-1.33,-0.26
50.789584,2.154618,20.35,11.08,-1.65,-0.41
50.789584,2.154618,20.35,11.42,-1.66,-0.45
50.789528,2.154894,19.88,9.71,-2.76,-0.05
50.789528,2.154894,19.88,9.05,-1.63,-0.29
50.789476,2.155156,18.93,11.87,-1.68,-1.1
50.789476,2.155156,18.93,9.18,-0.98,-0.68
50.789429,2.155406,18.64,10.15,-2.09,-0.61
50.789429,2.155406,18.64,10.81,-1.69,-1.1
50.789377,2.155653,18.17,10.48,-2.42,-1.49
50.789377,2.155653,18.17,9.41,-1.02,-1.72
50.789327,2.155896,17.92,8.11,-2.15,-0.85
50.789327,2.155896,17.92,10.15,-0.82,-0.54
50.789281,2.15614,18.2,9.54,-0.84,0.5
50.789281,2.15614,18.2,10.77,-1.65,-0.31
50.789237,2.156383,18.28,10.86,-1.39,-1.48
50.789237,2.156383,18.28,10.45,-1.89,-1.14
50.789197,2.156621,18.34,8.29,-0.57,0.75
50.789197,2.156621,18.34,11.34,-1.75,-0.85
50.78915,2.156872,18.55,11.1,-1.93,-2.5
50.78915,2.156872,18.55,10.14,-0.81,0.19
50.789101,2.157127,18.79,8.7,-2.34,-0.54
50.789101,2.157127,18.79,9.1,-3.2,-0.7
50.789051,2.157384,18.71,9.86,-1.73,-0.18
50.789051,2.157384,18.71,10.3,-1.37,0.15
50.789004,2.157639,18.7,8.41,-1.75,-0.74
50.789004,2.157639,18.7,9.22,-2.49,0.92
50.788952,2.157886,18.48,8.97,-1.59,-0.4
50.788952,2.157886,18.48,10.91,-1.03,-0.41
50.78891,2.158124,18.57,9.27,-1.86,-0.07
50.78891,2.158124,18.57,10.8,-2.15,-0.89
50.78887,2.158356,18.37,8.74,-2.38,-0.08
50.78887,2.158356,18.37,8.17,-0.99,-0.34
50.788822,2.158596,18,8.64,-1.78,-0.38
50.788822,2.158596,18,8.61,-1,-0.7
50.788777,2.158839,17.82,10.24,-2.06,0.64
50.788777,2.158839,17.82,9.14,-1.31,0.2
50.788728,2.159085,17.65,10.5,-1.2,0.52
50.788728,2.159085,17.65,11.77,-2.16,-0.33
50.788679,2.159331,17.3,10.92,-2.7,-1.1
50.788634,2.159571,17.28,9.19,-2.25,-1.92
50.788634,2.159571,17.28,9.57,-1.28,-0.47
50.788591,2.159805,16.75,11.38,-2.38,-0.91
50.788591,2.159805,16.75,9.78,-1.81,-1.58
50.788546,2.160037,16.42,10.24,-0.69,-1.36
50.788546,2.160037,16.42,11.09,-2.27,-1.91
50.788496,2.160264,16.21,9.02,0.18,-1.78
50.788496,2.160264,16.21,8.89,-0.51,0.91
50.788447,2.16049,16.48,8.17,-1.43,-0.55
50.788447,2.16049,16.48,11.01,-1.77,-0.76
50.7884,2.160717,16.49,10.98,-2.17,0.12
50.7884,2.160717,16.49,11.25,-2.49,0.01
50.788357,2.160936,16.42,13.06,-2.11,-0.62
50.788357,2.160936,16.42,9.78,-1.84,-0.64
50.788314,2.161162,16.7,8.14,-0.89,-0.03
50.788314,2.161162,16.7,8.36,-1.27,0.1
50.788268,2.161393,16.8,11.36,-0.97,-0.75
50.788268,2.161393,16.8,8.97,-1.71,-0.08
50.788224,2.161623,17.05,10.44,-0.8,-0.84
50.788224,2.161623,17.05,9.89,-1.88,-0.45
50.788182,2.161849,17.07,10.67,-1.31,-0.32
50.788182,2.161849,17.07,10.43,-1.72,-1.22
50.788143,2.162075,16.7,9.36,-0.5,-0.89
50.788143,2.162075,16.7,9.68,-2.72,1.07
50.788102,2.162299,16.74,9.2,-1.54,-1.34
50.788102,2.162299,16.74,9.7,-1.82,-1.21
50.788054,2.162532,16.79,8.44,-1.05,-0.26
50.788054,2.162532,16.79,10.47,-1.26,-0.65
50.788011,2.16276,16.6,9.5,-1.68,0.25
50.788011,2.16276,16.6,9.16,-1.79,-1.13
50.787967,2.162982,16.32,8.26,-1.33,-0.69
50.787967,2.162982,16.32,8.47,-1.36,-0.16
50.787931,2.163199,16.36,11.21,-1.7,-0.19
50.787931,2.163199,16.36,10.14,-1.85,-0.59
50.787892,2.16342,16.37,9.62,-1.05,-1.89
50.787892,2.16342,16.37,10.59,-1.53,-1.74
50.787852,2.163638,16.45,9.97,-1.52,-1.28
50.787852,2.163638,16.45,8.72,-1.18,-1.65
50.787806,2.163863,16.69,9.86,-2.06,0.68
50.787806,2.163863,16.69,8.1,-1.17,0.65
50.787758,2.164096,16.7,10.65,-1.65,0.29
50.787758,2.164096,16.7,8.05,-1.62,-0.63
50.787711,2.164332,16.85,7.98,-1.28,1.71
50.787675,2.16457,17.01,10.7,-2.21,-0.45
50.787675,2.16457,17.01,10.58,-2.27,0.64
50.787645,2.164815,17.16,8.71,-0.94,-1.42
50.787645,2.164815,17.16,9.08,-1.73,0.09
50.787635,2.165052,17.21,10.4,-2.32,-0.75
50.787635,2.165052,17.21,10.49,-2.95,-0.86
50.787632,2.165291,16.82,9.74,-1.54,-0.67
50.787632,2.165291,16.82,8.39,-1.88,-0.23
50.787623,2.165532,16.74,9.87,-1.26,-0.68
50.787623,2.165532,16.74,9.72,-2.53,0.3
50.787617,2.165768,16.56,9.69,-2.2,1.2
50.787617,2.165768,16.56,9.88,-1.53,-0.35
50.787604,2.166006,16.42,10.03,-2.21,-1.28
50.787604,2.166006,16.42,8.67,-2.51,-1.71
50.787599,2.166234,16.28,8.97,-1.73,-1.36
50.787599,2.166234,16.28,10.69,-2.19,-0.48
50.787597,2.166463,16.03,9.71,-1.96,-1.33
50.787597,2.166463,16.03,11.38,-1.65,-1.61
50.787594,2.166689,16.09,8.55,-2.53,-0.38
50.787594,2.166689,16.09,9.5,-1.55,-1.1
50.787589,2.166914,16.18,9.87,-2.07,-0.63
50.787589,2.166914,16.18,10.64,-2.63,0.05
50.787586,2.167142,16.14,9.24,-1.36,-1.56
50.787586,2.167142,16.14,11.05,-2.61,-0.95
50.787579,2.167371,16.19,10.34,-1.38,-2.19
50.787579,2.167371,16.19,10.94,-2.17,-0.6
50.787577,2.167599,16.18,10.39,-1.97,-0.35
50.787577,2.167599,16.18,10.07,-1.53,-0.84
50.787574,2.167828,16.23,10.54,-1.6,-1.46
50.787574,2.167828,16.23,11.32,-2.09,0.01
50.787565,2.168059,16.24,9.25,-1.83,-0.5
50.787565,2.168059,16.24,11.04,-1.24,0.88
50.787557,2.168289,16.15,9.17,-1.48,-0.95
50.787557,2.168289,16.15,8.82,-1.9,-0.86
50.787545,2.168521,16.14,10.27,-1.48,0.18
50.787545,2.168521,16.14,9.85,-1.52,-0.68
50.787536,2.168753,16.09,8.58,-1.38,-0.29
50.787536,2.168753,16.09,10.21,-2.58,-0.74
50.787533,2.168977,15.97,9.28,-1.81,-0.84
50.787533,2.168977,15.97,9.67,-1.53,-0.68
50.787527,2.169202,15.67,10.04,-1.28,-1.27
50.787527,2.169202,15.67,11.21,-2.38,-1.26
50.787523,2.169423,15.34,9.89,-1.01,-1.43
50.787521,2.169635,15.12,7.11,-1.38,-1.8
50.787521,2.169635,15.12,9.52,-2.55,-0.28
50.787515,2.16985,14.77,11.03,-1.52,-0.12
50.787515,2.16985,14.77,9.3,-1.84,-0.02
50.787509,2.170056,14.52,9.18,-2.05,-0.61
50.787509,2.170056,14.52,10.92,-2.13,-0.18
50.787507,2.170262,14.22,9.01,-1.42,-0.33
50.787507,2.170262,14.22,9.51,-1.95,-0.96
50.787509,2.170458,13.9,8.64,-1.89,-0.19
50.787509,2.170458,13.9,8.02,-2.49,-0.8
50.78751,2.170659,13.6,10.09,-1.56,-0.49
50.78751,2.170659,13.6,9.96,-1.77,-0.11
50.787508,2.170851,13.3,10.02,-1.76,0.37
50.787508,2.170851,13.3,9.59,-1.59,-0.46
50.787503,2.171044,13.08,11.73,-1.32,-0.86
50.787503,2.171044,13.08,8.88,-1.35,-0.35
50.787495,2.171227,13.1,9.66,-1.46,0.21
50.787495,2.171227,13.1,8.68,-1.42,-0.67
50.78749,2.17141,13.13,9.55,-1.54,-0.43
50.78749,2.17141,13.13,10.47,-1.48,0.36
50.787486,2.171596,13.1,9.79,-1.77,0.05
50.787486,2.171596,13.1,9.01,-1.94,-0.68
50.78748,2.171776,12.86,8.96,-1.35,-1.12
50.78748,2.171776,12.86,11.01,-1.74,-1.7
50.787475,2.171957,12.69,10.72,-1.11,-0.22
50.787475,2.171957,12.69,8.79,-1.31,-0.45
50.787472,2.172141,12.83,9.77,-1.23,-0.32
50.787472,2.172141,12.83,10.22,-1.09,-0.8
50.787469,2.172327,13.06,9.85,-1.23,-0.97
50.787469,2.172327,13.06,9.76,-1.25,-0.24
50.787466,2.172512,13.11,10.67,-1.32,-1.28
50.787466,2.172512,13.11,10.44,-1.1,-0.41
50.787466,2.172697,13.23,9.85,-1.5,-0.6
50.787466,2.172697,13.23,10.32,-1.64,-0.65
50.787464,2.172883,13.38,9.14,-0.91,-0.87
50.787464,2.172883,13.38,9.91,-1.16,-0.39
50.78746,2.173073,13.4,9.59,-0.9,-0.87
50.78746,2.173073,13.4,9.8,-1.14,-0.69
50.787453,2.173268,13.59,9.72,-1.1,-1.06
50.787453,2.173268,13.59,9.86,-1.36,-0.95
50.787446,2.173461,13.53,9.86,-0.91,-0.84
50.787446,2.173461,13.53,10.14,-1.11,-0.54
50.787441,2.173651,13.59,9.76,-1.36,0.19
50.787438,2.173844,13.55,9.95,-1.05,-0.54
50.787438,2.173844,13.55,8.84,-0.78,-0.54
50.787434,2.174036,13.59,9.23,-0.97,-1.45
50.787434,2.174036,13.59,9.23,-0.9,-0.67
50.787429,2.174231,13.53,9.61,-0.76,-0.15
50.787429,2.174231,13.53,10.06,-1.18,-1.34
50.787426,2.174429,13.41,8.94,-0.9,-0.77
50.787426,2.174429,13.41,9.27,-0.57,0.25
50.787423,2.174621,13.32,10.04,-0.68,-0.5
50.787423,2.174621,13.32,9.19,-0.65,-0.46
50.787422,2.17481,13.45,9.75,-0.32,-0.28
50.787422,2.17481,13.45,9.85,-0.35,-0.1
50.787418,2.174994,13.53,10.5,-0.5,-1.38
50.787418,2.174994,13.53,10.61,-1.06,0.12
50.78741,2.175193,13.48,10.55,-1.14,-0.98
50.78741,2.175193,13.48,9.85,-0.76,-0.12
50.787404,2.175389,13.41,10.07,-0.37,-1.01
50.787404,2.175389,13.41,10.25,-1.02,-0.03
50.787398,2.175583,13.46,9.67,-1.01,-0.37
50.787398,2.175583,13.46,9.69,-0.91,-0.73
50.787393,2.175776,13.12,10.06,-0.75,-0.39
50.787393,2.175776,13.12,9.18,-0.89,-1.48
50.787388,2.17596,13.13,10.24,-0.27,-0.06
50.787388,2.17596,13.13,10.04,-0.53,-0.63
50.787385,2.176151,13.4,9.41,-0.57,0.28
50.787385,2.176151,13.4,10.97,-0.61,-0.96
50.78738,2.176354,13.67,9.31,-0.55,0.16
50.78738,2.176354,13.67,9.94,-1.1,-0.1
50.787375,2.176556,13.69,9.58,-0.85,-0.49
50.787375,2.176556,13.69,9.78,-0.59,-0.93
50.787371,2.176751,13.61,9.18,-0.8,-0.28
50.787371,2.176751,13.61,9.64,-0.79,-1.08
50.787366,2.176943,13.33,9.72,-1.02,-0.16
50.787366,2.176943,13.33,9.84,-1.28,0.73
50.787365,2.17712,13.11,9.54,-1.27,-0.17
50.787365,2.17712,13.11,10.15,-1.33,-0.26
50.787363,2.177292,12.81,9.93,-1.56,-0.6
50.787363,2.177292,12.81,10.07,-1.9,-1.7
50.787358,2.177467,11.97,9.73,-1.48,-0.47
50.787358,2.177467,11.97,9.4,-1.79,0.16
50.787348,2.177628,10.9,8.8,-1.69,-0.7
50.787343,2.177773,10,9.07,-1.72,-0.35
50.787343,2.177773,10,10.01,-1.49,-0.41
50.787337,2.177906,9.51,9.79,-1.23,-0.34
50.787337,2.177906,9.51,9.53,-0.57,-1.09
50.787337,2.178033,9.9,9.52,0,-1.43
50.787337,2.178033,9.9,8.85,-0.59,0.95
50.78733,2.17818,10.57,9.25,-1,0.05
50.78733,2.17818,10.57,10.47,-1.07,-0.45
50.787322,2.178338,11.45,10.27,-1.85,0.64
50.787322,2.178338,11.45,9.51,-2.04,-0.78
50.787316,2.178497,11.82,9.96,-1.71,-0.88
50.787316,2.178497,11.82,9.08,-2.02,0.57
50.787307,2.178685,11.91,9.4,-2.23,-0.44
50.787307,2.178685,11.91,9.05,-1.81,-0.74
50.7873,2.178861,12.04,9.62,-1.55,-0.82
50.7873,2.178861,12.04,9.2,-2.25,-0.84
50.787294,2.17903,11.99,9.18,-2.02,-0.9
50.787294,2.17903,11.99,9.24,-1.81,-0.85
50.787293,2.179192,12.07,8.74,-1.57,-0.45
50.787293,2.179192,12.07,10.2,-1.86,-1.18
50.78728,2.179365,12.12,9.44,-2.06,-0.44
50.78728,2.179365,12.12,9.94,-1.66,-1.16
50.787266,2.179533,12.32,9.84,-1.7,0.71
50.787266,2.179533,12.32,9.38,-2.12,-1.18
50.787248,2.179697,12.48,10.52,-1.52,-1.32
50.787248,2.179697,12.48,9.07,-2.12,-1.67
50.787217,2.179873,12.73,9.6,-1.61,-1.65
50.787217,2.179873,12.73,9.28,-1.68,-1.18
50.787176,2.180046,12.83,9.88,-1.95,-0.91
50.787176,2.180046,12.83,9.24,-1.85,-0.9
50.787124,2.180215,12.93,9.5,-1.81,-0.91
50.787124,2.180215,12.93,9.17,-1.76,-0.88
50.787063,2.180379,13.01,9.18,-2,-0.78
50.787063,2.180379,13.01,9.96,-1.52,-0.08
50.786999,2.180532,13.22,9.69,-2.04,-1.05
50.786999,2.180532,13.22,9.99,-1.75,-0.27
50.786935,2.180678,13.34,10.01,-1.53,-1.27
50.786935,2.180678,13.34,8.95,-1.79,-0.54
50.786862,2.180824,13.47,9.51,-1.94,-0.94
50.786862,2.180824,13.47,9.24,-1.81,-0.31
50.786784,2.18098,13.59,8.88,-1.4,-0.97
50.786784,2.18098,13.59,9.33,-1.88,-0.61
50.786704,2.18114,13.72,9.92,-1.88,-0.41
50.786624,2.181292,13.79,9.14,-1.71,-1.13
50.786624,2.181292,13.79,10.23,-2.07,-0.86
50.786545,2.181451,14.02,10.28,-1.81,-1.05
50.786545,2.181451,14.02,9.62,-2.08,-0.89
50.786468,2.181603,14.09,9.58,-1.58,-0.82
50.786468,2.181603,14.09,9.16,-1.86,-0.56
50.786378,2.181765,14.39,9.51,-2.09,-0.91
50.786378,2.181765,14.39,9.9,-1.99,-0.47
50.786298,2.181916,14.39,9.53,-1.86,-0.26
50.786298,2.181916,14.39,9.71,-1.86,-0.79
50.786217,2.182075,14.57,9.42,-1.76,-0.33
50.786217,2.182075,14.57,9.73,-1.96,-0.62
50.786132,2.182238,14.75,9.84,-1.85,-0.31
50.786132,2.182238,14.75,9.56,-2.05,-0.56
50.786053,2.182393,14.86,9.55,-1.92,-0.65
50.786053,2.182393,14.86,10.4,-1.44,-0.55
50.785969,2.182554,14.79,9.97,-1.82,-0.66
50.785969,2.182554,14.79,10.71,-1.92,0
50.785887,2.182714,14.63,9.32,-1.77,0.12
50.785887,2.182714,14.63,10,-2.21,0.08
50.785802,2.18287,14.43,9.94,-1.87,0.24
50.785802,2.18287,14.43,9.89,-2.07,-1.11
50.785719,2.183027,14.26,9.28,-1.77,0.54
50.785719,2.183027,14.26,10.23,-1.84,0.89
50.785638,2.18318,13.91,10.11,-1.39,-0.88
50.785638,2.18318,13.91,10.31,-1.77,-0.32
50.785557,2.183329,13.89,9.46,-1.78,-1.22
50.785557,2.183329,13.89,9.47,-1.67,-0.01
50.785475,2.183484,13.68,9.34,-1.64,-0.57
50.785475,2.183484,13.68,9.75,-1.5,-0.82
50.785397,2.18364,13.62,9.31,-0.95,-0.69
50.785397,2.18364,13.62,9.03,-1.58,-0.52
50.785322,2.183793,13.71,9.98,-0.86,-0.67
50.785322,2.183793,13.71,9.31,-1.02,-0.49
50.785246,2.183947,13.84,9.72,-1.37,-0.64
50.785246,2.183947,13.84,8.76,-0.83,-0.71
50.785164,2.184105,14.03,10.08,-1.2,-0.55
50.785164,2.184105,14.03,10.03,-0.96,-0.2
50.785079,2.184272,14.29,9.06,-1.47,-0.79
50.785079,2.184272,14.29,9.6,-0.71,-0.53
50.785005,2.184421,14.4,9.78,-0.73,-0.75
50.784929,2.184583,14.56,11.23,-0.63,-0.92
50.784929,2.184583,14.56,9.32,-0.85,-0.85
50.784852,2.184746,14.82,9.83,-0.3,-0.85
50.784852,2.184746,14.82,11.34,-0.91,0.15
50.784764,2.18492,15.14,8.7,-0.76,-0.23
50.784764,2.18492,15.14,9.07,-0.2,0.47
50.784674,2.185093,15.5,9.6,-0.74,-0.76
50.784674,2.185093,15.5,10.61,-0.69,-1.07
50.784587,2.185266,15.73,9.8,-0.84,-0.7
50.784587,2.185266,15.73,10,-0.81,-1.07
50.784499,2.185438,15.78,10.37,-0.74,-0.42
50.784499,2.185438,15.78,10.23,-1.07,-1.04
50.784411,2.185612,15.69,8.6,-0.76,-0.73
50.784411,2.185612,15.69,9.11,-0.27,-0.17
50.784323,2.185782,15.5,8.89,-1.54,0.07
50.784323,2.185782,15.5,9.46,-1.28,-0.18
50.78424,2.185943,15.32,8.93,-1.47,-1.27
50.78424,2.185943,15.32,9.19,-1.81,0.21
50.784157,2.186105,15.04,9.46,-1.67,0.16
50.784157,2.186105,15.04,9.93,-2.05,0.65
50.784076,2.186263,14.2,9.91,-2.01,-0.41
50.784076,2.186263,14.2,9.12,-1.55,-0.24
50.783997,2.186416,13.33,8.3,-1.73,-1
50.783997,2.186416,13.33,9.06,-1.35,-1.25
50.783924,2.18656,12.94,9.2,-1.27,-0.06
50.783924,2.18656,12.94,8.63,-1.84,-1.08
50.783848,2.186703,12.71,9.22,-1.3,-1.05
50.783848,2.186703,12.71,8.35,-2,1.1
50.783769,2.186839,12.63,8.7,-1.54,-1.01
50.783769,2.186839,12.63,10.26,-2.27,0.16
50.783694,2.186973,12.58,9.48,-1.95,-0.44
50.783694,2.186973,12.58,9.4,-1.62,-0.38
50.78362,2.187105,12.63,9.62,-1.85,-0.76
50.78362,2.187105,12.63,9.55,-1.95,-0.83
50.783543,2.187239,12.76,10.29,-1.79,-0.37
50.783543,2.187239,12.76,9.82,-1.71,0.63
50.783465,2.187373,12.89,9.77,-1.23,0.64
50.783465,2.187373,12.89,8.95,-1.45,-0.6
50.783386,2.187511,13.36,9.83,-1.21,-0.09
50.783386,2.187511,13.36,9.57,-1.08,-0.2
50.783303,2.187656,13.85,9.3,-1.42,-0.87
50.783303,2.187656,13.85,9.1,-1.73,-0.65
50.783216,2.187807,14.5,10.38,-1.92,0.81
50.783127,2.187961,14.74,9.72,-1.67,-0.46
50.783127,2.187961,14.74,11.24,-2.71,-0.21
50.783035,2.188119,14.79,8.61,-2,-1.78
50.783035,2.188119,14.79,6.14,-1.89,-0.28
50.782945,2.188275,14.77,9.98,-1.27,-1.07
50.782945,2.188275,14.77,8.94,-1.87,0.34
50.782855,2.188431,14.91,12.88,-0.29,-0.01
50.782855,2.188431,14.91,9.26,-0.98,-1.24
50.782764,2.188589,14.98,9.52,-0.91,-0.22
50.782764,2.188589,14.98,10.73,-1.6,-0.86
50.782671,2.18875,15.33,10.4,-1.41,-0.38
50.782671,2.18875,15.33,7.96,-1.18,-1.01
50.782571,2.188918,16.56,10.42,-1.04,-0.15
50.782571,2.188918,16.56,9.16,-0.54,-0.98
50.782466,2.189095,17.39,9.53,-0.43,-1.95
50.782466,2.189095,17.39,10.89,-1.14,1.13
50.782358,2.189277,17.84,10.19,-1.77,-1.1
50.782358,2.189277,17.84,9.63,-0.93,-2.4
50.782248,2.189466,17.69,10.18,-1.54,-1.11
50.782248,2.189466,17.69,7.68,-2.43,0.91
50.782141,2.18965,17.43,10.07,-2.56,0.66
50.782141,2.18965,17.43,9.39,-2.08,-0.9
50.782033,2.189829,17.18,8.68,-1.37,0.9
50.782033,2.189829,17.18,11.1,0.27,-0.7
50.781927,2.190009,16.96,11.62,-1.47,-0.1
50.781927,2.190009,16.96,12.11,-2.67,-0.91
50.781823,2.190186,16.86,7.46,-0.69,-0.39
50.781823,2.190186,16.86,10.07,-2.29,-0.7
50.781721,2.190358,16.33,8.72,-0.69,0.31
50.781721,2.190358,16.33,9.52,-0.83,0.54
50.781621,2.190528,16.28,9.43,-0.69,-1.51
50.781621,2.190528,16.28,9.71,-1.24,1.25
50.781523,2.190696,16.16,8.99,-1.25,-0.93
50.781523,2.190696,16.16,9.58,-2.18,0.22
50.781429,2.190858,15.95,10.81,-1.36,-0.45
50.781429,2.190858,15.95,9.76,-1.37,-0.75
50.781332,2.19102,15.61,10.12,-0.37,0.82
50.781332,2.19102,15.61,9.83,-0.8,-0.18
50.781239,2.191178,15.64,8.91,-0.74,0.18
50.781239,2.191178,15.64,11.24,-1.11,0.27
50.781144,2.19134,15.67,11.89,-2.85,-1.42
50.781144,2.19134,15.67,10.78,-1.52,-2.24
50.781049,2.1915,15.33,12.37,-1.98,0.91
50.781049,2.1915,15.33,8.63,-1.39,-1.47
50.780956,2.19166,15.11,7.64,-1.35,-0.34
50.780865,2.191814,15.04,8.82,-1.7,-1.25
50.780865,2.191814,15.04,7.53,-1.87,-0.15
50.780777,2.191964,14.46,9.05,-1.12,-0.1
50.780777,2.191964,14.46,8.79,-1.15,-0.01
50.78069,2.19211,14.27,6.19,-1.54,-0.56
50.78069,2.19211,14.27,11.48,-1.24,-1.21
50.780598,2.192249,13.77,11.23,-1.7,-0.76
50.780598,2.192249,13.77,10.03,-0.93,-0.43
50.78051,2.192379,13.06,10.06,-2.15,-0.08
50.78051,2.192379,13.06,8.44,-1.58,-1.16
50.78043,2.192503,12.29,9.72,-2.22,-1.99
50.78043,2.192503,12.29,7.89,-2.18,-1.83
50.78035,2.192621,11.7,10.68,-1.65,-0.64
50.78035,2.192621,11.7,10.74,-2.31,-1.12
50.780266,2.192728,11.47,9.45,-3.53,-2.15
50.780266,2.192728,11.47,9.82,-1,-1.13
50.780186,2.192824,11.42,7.73,-1.16,-0.49
50.780186,2.192824,11.42,8.96,-0.98,1.04
50.780106,2.192917,11.69,8.66,-1.47,-1.09
50.780106,2.192917,11.69,8.97,-0.84,-1.07
50.780019,2.193016,11.92,8.18,-1.21,-0.6
50.780019,2.193016,11.92,10.9,-2.87,-0.16
50.77993,2.193112,12.12,10.04,-1.36,0.12
50.77993,2.193112,12.12,9.58,-1.99,1.18
50.779839,2.193213,12.17,7.58,-2.38,-0.79
50.779839,2.193213,12.17,8.76,-2.15,-0.72
50.779749,2.193309,12.14,7.96,-1.19,-0.74
50.779749,2.193309,12.14,9.59,-2.53,-0.31
50.779659,2.193406,12.27,10.96,-4.07,-0.88
50.779659,2.193406,12.27,8.94,-3.19,-0.37
50.779569,2.193503,11.29,9.12,-2.97,-0.91
50.779569,2.193503,11.29,8.39,-3.3,-0.77
50.779483,2.193587,10.16,10.19,-3.76,-0.23
50.779483,2.193587,10.16,9.2,-2.78,-0.44
50.779414,2.193656,8.68,10.45,-3.13,-1.03
50.779414,2.193656,8.68,9.73,-2.89,-0.81
50.779353,2.193714,7.85,9.73,-2.06,-0.63
50.779353,2.193714,7.85,10.06,-1.67,-0.28
50.779296,2.19377,7.48,9.26,-1.36,-0.45
50.779296,2.19377,7.48,8.71,-1.32,-1.57
50.779238,2.193824,7.7,9.75,-0.58,-2.02
50.779177,2.193877,7.98,9.88,-0.63,-2.73
50.779177,2.193877,7.98,9.65,-0.9,-3.25
50.779107,2.193913,8.89,10.41,-0.6,-1.66
50.779107,2.193913,8.89,9.29,0.47,-1.36
50.779015,2.193914,10.24,11.11,-1.43,1.01
50.779015,2.193914,10.24,9.41,-1.15,0.01
50.778909,2.193902,11.04,10.31,-0.69,-0.18
50.778909,2.193902,11.04,9.08,-0.4,0.36
50.778802,2.1939,12.23,8.93,-1.13,-2.11
50.778802,2.1939,12.23,8.99,-1.12,-2.92
50.778688,2.193902,12.75,9.54,-1.13,-3.75
50.778688,2.193902,12.75,9.96,-0.76,-4.03
50.77857,2.193886,13.26,10.97,-0.44,-1.65
50.77857,2.193886,13.26,9.62,0.09,-0.87
50.778448,2.193825,14.28,9.24,0.21,-0.68
50.778448,2.193825,14.28,9.33,0.05,-0.65
50.778314,2.193735,15.87,9.32,0.26,0.33
50.778314,2.193735,15.87,9.47,0.31,0
50.77817,2.193642,16.57,9.84,-1.73,0.72
50.77817,2.193642,16.57,9.3,0.08,0.74
50.778012,2.193531,17.42,10.07,-0.82,1.4
50.778012,2.193531,17.42,10.41,-0.02,0.38
50.777849,2.193433,18.61,8.42,-0.34,0.49
50.777849,2.193433,18.61,7.23,-0.23,0.1
50.777682,2.193355,18.87,10.22,-0.23,-0.33
50.777682,2.193355,18.87,9.85,-0.44,0.56
50.777508,2.19329,19.76,9.85,-0.13,0.38
50.777508,2.19329,19.76,9.77,-0.48,-1.52
50.777328,2.193233,20.35,9.06,-0.28,-1.12
50.777328,2.193233,20.35,10.47,-0.62,-0.62
50.777135,2.193181,21.22,10,-0.81,1.58
50.777135,2.193181,21.22,10.28,-0.55,-0.31
50.77694,2.193142,21.89,9.99,-0.4,0.6
50.77694,2.193142,21.89,9.86,-0.4,0.23
50.776736,2.193118,22.73,9.73,-0.57,-0.94
50.776736,2.193118,22.73,8.85,-0.52,-0.92
50.776531,2.193109,23.31,9.71,-0.87,0.08
50.776531,2.193109,23.31,10,-0.39,-0.73
50.77632,2.193115,23.92,9.58,-0.9,0.78
50.77632,2.193115,23.92,10.29,-0.2,0.51
50.776102,2.193134,24.7,10.99,-0.64,1.43
50.776102,2.193134,24.7,10.09,-0.93,0.77
50.775875,2.193169,25.29,9.52,-0.67,-0.45
50.775875,2.193169,25.29,10.05,-1.09,0.64
50.775646,2.193223,25.92,11.15,-0.95,0.67
50.775412,2.193297,26.63,10.35,-0.32,-0.27
50.775412,2.193297,26.63,8.83,-1.8,-0.08
50.775175,2.193395,27.15,9.84,-2.18,-0.18
50.775175,2.193395,27.15,10.24,-1.42,-0.85
50.77494,2.193507,26.89,10.22,-1.32,0.41
50.77494,2.193507,26.89,9.94,-0.8,1.53
50.77471,2.193638,27.18,9.56,-1.04,-0.43
50.77471,2.193638,27.18,10.28,-1.14,-0.16
50.774481,2.19379,27.42,9.45,-0.65,2.27
50.774481,2.19379,27.42,9.75,-0.57,-0.64
50.774256,2.193967,27.75,9.75,-1.13,1.72
50.774256,2.193967,27.75,9.98,-1.26,0.55
50.774041,2.19417,28.1,9.68,-0.99,0.77
50.774041,2.19417,28.1,10.09,-1.25,-0.32
50.773835,2.194392,28.45,9.98,-1.58,1.2
50.773835,2.194392,28.45,9.98,-0.91,0.79
50.773633,2.19463,28.67,9.59,-0.84,0.19
50.773633,2.19463,28.67,9.49,-1.47,-0.19
50.773437,2.194875,28.82,8.3,-1,-0.6
50.773437,2.194875,28.82,10.44,-1.81,-0.27
50.773239,2.195127,28.93,9.81,-1.02,-1.24
50.773239,2.195127,28.93,10.03,-1.8,0.19
50.77304,2.195377,28.73,9.37,-1.9,-0.05
50.77304,2.195377,28.73,8.94,-1.31,-1.51
50.772837,2.19563,28.4,8.94,-1.36,-0.65
50.772837,2.19563,28.4,9.4,-1.59,-1.39
50.772636,2.195874,28.08,10.48,-0.9,-0.11
50.772636,2.195874,28.08,9.48,-0.52,-0.79
50.772437,2.196116,28.19,7.92,-0.99,-0.19
50.772437,2.196116,28.19,9.03,-0.86,-0.32
50.772238,2.196359,28.22,9.86,-1.43,-0.36
50.772238,2.196359,28.22,9.66,-1.03,-0.17
50.77204,2.196608,28.32,11.28,-1.2,0.75
50.77204,2.196608,28.32,9.22,-0.74,0.09
50.771839,2.196868,28.57,10.15,-0.37,-0.3
50.771839,2.196868,28.57,10.51,-0.95,1.83
50.77164,2.197133,28.67,9.76,-1.02,2.23
50.77164,2.197133,28.67,10.62,-1.43,2.3
50.771444,2.197404,28.92,9.85,-1.42,0.57
50.771444,2.197404,28.92,9.54,-1.61,-0.79
50.771254,2.197693,29,9.21,-1.38,-0.28
50.771254,2.197693,29,10.22,-1.26,-0.47
50.771073,2.197988,28.93,10.88,-1.3,-0.34
50.770898,2.198295,28.62,10.25,-2.1,-1.12
50.770898,2.198295,28.62,9.67,-1.63,-0.77
50.770726,2.198593,28.42,8.99,-1.6,0.96
50.770726,2.198593,28.42,8.6,-1.3,0.01
50.770557,2.19889,28.31,10.02,-1.49,0.02
50.770557,2.19889,28.31,9.5,-1.52,0.81
50.770392,2.199192,28.25,9.64,-1.61,-0.84
50.770392,2.199192,28.25,8.91,-1.62,-0.91
50.770231,2.199497,28.04,10.02,-1.53,-0.14
50.770231,2.199497,28.04,9.91,-1.68,-0.98
50.770064,2.19979,27.79,10.39,-1.7,-0.82
50.770064,2.19979,27.79,8.54,-1.47,-0.42
50.769898,2.200096,27.77,9.68,-1.61,-0.95
50.769898,2.200096,27.77,9.27,-1.31,0.66
50.769731,2.200393,27.51,10.11,-1.87,0.01
50.769731,2.200393,27.51,10,-1.83,-0.59
50.769572,2.200689,26.93,9.23,-1.51,0.38
50.769572,2.200689,26.93,8.9,-1.88,-1.25
50.769413,2.20098,26.89,9.7,-1.39,-0.99
50.769413,2.20098,26.89,9.75,-1.61,-1.14
50.769255,2.201271,26.75,9.48,-1.09,0.53
50.769255,2.201271,26.75,10.24,-1.36,0.08
50.769104,2.201558,26.59,8.1,-1.36,-0.59
50.769104,2.201558,26.59,9.77,-1.2,0.18
50.768949,2.201841,26.56,9.37,-1.44,-0.77
50.768949,2.201841,26.56,8.99,-1.33,-0.61
50.768792,2.202123,26.47,10.29,-1.72,0.18
50.768792,2.202123,26.47,9.97,-1.03,-1.37
50.768635,2.202405,26.44,8.93,-1.33,-0.66
50.768635,2.202405,26.44,9.9,-1.09,-0.15
50.768479,2.202686,26.4,9.93,-1.7,-1.17
50.768479,2.202686,26.4,9.11,-1.04,-0.16
50.768327,2.202969,26.28,9.71,-1.83,0.57
50.768327,2.202969,26.28,9.52,-1.28,0.16
50.768173,2.20325,26.3,9.54,-1.6,-0.48
50.768173,2.20325,26.3,10.59,-1.22,0.76
50.768018,2.203529,26.21,10.41,-1.63,1.68
50.768018,2.203529,26.21,9.13,-1.1,-0.44
50.767863,2.203807,26.04,9.62,-1.41,-0.3
50.767863,2.203807,26.04,9.39,-2.04,0.1
50.76771,2.204082,25.93,8.79,-1.93,-0.78
50.767557,2.204362,25.74,9.74,-1.42,-0.44
50.767557,2.204362,25.74,8.74,-1.11,-0.09
50.767404,2.204636,25.69,8.85,-1.51,-0.83
50.767404,2.204636,25.69,9.93,-1.48,0.04
50.767254,2.204906,25.52,10.33,-1.25,-1.03
50.767254,2.204906,25.52,9.92,-1.45,0.65
50.767105,2.205178,25.55,9.87,-1.52,-0.96
50.767105,2.205178,25.55,9.51,-1.83,0.86
50.766957,2.205448,25.38,10.68,-1.96,-1.08
50.766957,2.205448,25.38,9.4,-1.93,-0.86
50.766805,2.205718,25.18,10.03,-1.62,-0.47
50.766805,2.205718,25.18,10.75,-1.02,-0.92
50.766653,2.205986,25.07,9.67,-1.28,-0.53
50.766653,2.205986,25.07,9.31,-1.4,-0.27
50.766502,2.206255,25.17,8.8,-1.02,-1.01
50.766502,2.206255,25.17,9.88,-1.07,-0.86
50.766355,2.206525,25.32,9.52,-0.94,-0.89
50.766355,2.206525,25.32,8.8,-1.51,-0.2
50.766204,2.206795,25.3,10.53,-1.41,0.47
50.766204,2.206795,25.3,9.25,-1.37,-0.13
50.766052,2.207068,25.39,9.26,-1.47,-0.07
50.766052,2.207068,25.39,9.39,-1.24,-0.62
50.765898,2.207341,25.45,9.65,-0.95,-1.14
50.765898,2.207341,25.45,9.64,-1.31,-0.25
50.765743,2.207616,25.48,8.75,-1.09,-1.38
50.765743,2.207616,25.48,9.84,-1.44,-0.45
50.765591,2.20789,25.5,10,-1.32,-0.65
50.765591,2.20789,25.5,9.46,-1.2,-0.92
50.765442,2.20816,25.49,8.98,-1.37,0.03
50.765442,2.20816,25.49,9.2,-1.22,-0.15
50.765293,2.208434,25.59,10.05,-1.36,-1.54
50.765293,2.208434,25.59,9.81,-1.4,-0.79
50.765144,2.208711,25.66,9.54,-1.36,-0.4
50.765144,2.208711,25.66,8.82,-1.57,-0.56
50.764992,2.208986,25.6,9.62,-1.6,-1.03
50.764992,2.208986,25.6,11.12,-2.35,-0.7
50.764842,2.209258,25.42,10.23,-1.82,-0.24
50.764842,2.209258,25.42,10.18,-1.89,-0.1
50.764697,2.209524,25.14,9.52,-1.86,-0.03
50.764553,2.209791,24.79,10.3,-1.56,-0.34
50.764553,2.209791,24.79,9.5,-1.7,-1.24
50.764408,2.210051,24.66,9.38,-1.79,-0.11
50.764408,2.210051,24.66,9.33,-1.33,-0.9
50.764259,2.210313,24.67,9.75,-1.45,-1.02
50.764259,2.210313,24.67,9.28,-1.41,-1.01
50.76411,2.210574,24.68,10.48,-1.48,-1.25
50.76411,2.210574,24.68,9.18,-1.36,-0.75
50.763951,2.210819,24.55,10.15,-1.68,-1.07
50.763951,2.210819,24.55,9.22,-1.6,-1.32
50.763786,2.21106,24.76,9.33,-0.85,-1.15
50.763786,2.21106,24.76,10.15,-1.49,-0.68
50.763617,2.211301,24.98,8.41,-1.81,-1.58
50.763617,2.211301,24.98,10.75,-2.11,-1.04
50.763446,2.21153,24.74,8.93,-1.97,-1.49
50.763446,2.21153,24.74,9.76,-2.14,-1.14
50.763275,2.211746,24.5,10.07,-1.92,-0.79
50.763275,2.211746,24.5,9.71,-1.68,-0.73
50.763102,2.211953,24.31,9.74,-1.66,-0.74
50.763102,2.211953,24.31,9.08,-1.8,-0.98
50.762925,2.21215,24.15,8.72,-1.89,-0.92
50.762925,2.21215,24.15,10.42,-2.09,-1.81
50.762745,2.212343,23.92,9.42,-1.83,-1.04
50.762745,2.212343,23.92,10.19,-2.12,-0.54
50.762564,2.212526,23.84,9.54,-1.83,-0.68
50.762564,2.212526,23.84,9.83,-1.36,-1.38
50.762384,2.212701,23.57,8.92,-2.31,-0.66
50.762384,2.212701,23.57,10.24,-1.84,-1.83
50.7622,2.212873,23.57,10.07,-1.75,-0.99
50.7622,2.212873,23.57,10.22,-1.13,-0.25
50.762013,2.213036,23.9,11.32,-1.32,-0.13
50.762013,2.213036,23.9,9.81,-1.5,-0.67
50.76182,2.213202,24.19,10.5,-1.43,0.53
50.76182,2.213202,24.19,11.46,-1.68,0.29
50.761626,2.213376,24.38,10.1,-0.95,0.79
50.761626,2.213376,24.38,9.67,-1.46,-0.95
50.761431,2.213549,24.67,9.87,-1.54,-0.29
50.761431,2.213549,24.67,9.8,-1.11,-0.75
50.761241,2.213722,24.8,9.62,-1.86,0.44
50.761241,2.213722,24.8,9.69,-1.72,-0.02
50.76105,2.213897,24.75,9.19,-1.66,-1.32
50.76105,2.213897,24.75,10.1,-2.09,-0.32
50.760862,2.21408,24.35,9.24,-1.6,0.19
50.760862,2.21408,24.35,9.69,-1.61,-0.43
50.760679,2.214262,24.01,9.67,-1.9,-0.65
50.760499,2.214429,23.65,8.65,-2.12,-0.41
50.760499,2.214429,23.65,9.63,-1.99,-1.38
50.760323,2.214591,23.17,10.09,-2.2,-0.48
50.760323,2.214591,23.17,9.06,-1.74,-0.83
50.760136,2.214755,22.83,10.16,-1.5,-0.66
50.760136,2.214755,22.83,9.57,-2.03,-0.24
50.759959,2.214905,22.5,9.56,-1.81,-0.08
50.759959,2.214905,22.5,9.85,-1.88,-0.77
50.759789,2.215061,22.13,8.66,-1.41,-0.25
50.759789,2.215061,22.13,9,-1.63,-0.27
50.759618,2.215217,21.87,9.53,-2.02,-0.61
50.759618,2.215217,21.87,9.54,-1.92,0.04
50.759452,2.215376,21.43,9.92,-1.7,-0.04
50.759452,2.215376,21.43,8.84,-1.92,-0.38
50.759285,2.215535,21.22,9.79,-1.95,0.19
50.759285,2.215535,21.22,10.55,-1.98,0.23
50.759125,2.215694,21,9.8,-1.9,-0.87
50.759125,2.215694,21,8.66,-2.72,-0.78
50.758965,2.215852,20.65,9.89,-1.51,-0.27
50.758965,2.215852,20.65,9.45,-1.7,-0.87
50.758809,2.215997,20.07,10.21,-1.77,-0.82
50.758809,2.215997,20.07,9.36,-1.5,-0.09
50.758652,2.216137,19.7,9.05,-2.12,-1.08
50.758652,2.216137,19.7,10.18,-1.99,-0.26
50.758499,2.216278,19.32,9.45,-1.88,-0.34
50.758499,2.216278,19.32,8.82,-1.75,-0.93
50.758345,2.216398,18.99,9.58,-1.38,-1.51
50.758345,2.216398,18.99,9.71,-1.69,-1.04
50.758196,2.216515,18.69,10.23,-1.62,-1.12
50.758196,2.216515,18.69,9.73,-1.95,-1.26
50.758052,2.216625,18.45,9.5,-1.76,-0.35
50.758052,2.216625,18.45,9.07,-1.87,-0.22
50.757906,2.216731,18.12,9.58,-1.81,-0.8
50.757906,2.216731,18.12,9.27,-1.63,-0.3
50.757758,2.216825,17.79,8.87,-1.52,0.97
50.757758,2.216825,17.79,10.45,-1.81,-0.28
50.757616,2.216923,17.55,9.55,-1.48,0.55
50.757616,2.216923,17.55,9.24,-2.16,-0.4
50.757474,2.217018,17.16,10.17,-1.64,0.6
50.757474,2.217018,17.16,9.29,-1.82,0.12
50.757335,2.217117,16.87,9.62,-1.95,1.2
50.757198,2.217217,16.57,5.53,-2.24,0.58
50.757198,2.217217,16.57,11.58,-3.2,0.5
50.757074,2.21732,15.81,10.15,-2.29,0.5
50.757074,2.21732,15.81,9.21,-2.61,0.54
50.756964,2.217436,14.88,9.01,-3.48,-0.48
50.756964,2.217436,14.88,9.61,-2.16,-1.02
50.756855,2.217559,13.81,9.76,-2.25,-0.36
50.756855,2.217559,13.81,9.48,-1.76,-0.84
50.756763,2.217666,12.74,9.89,-1.7,-0.61
