Location-lat,Location-long,Speed,Accelerometer-X,Accelerometer-Y,Accelerometer-Z
0.0,0.0,0.0,-3.12,0.66,9.76
0.0,0.0,0.0,-2.98,-0.04,10.15
0.0,0.0,0.0,-2.85,0.29,9.03
0.0,0.0,0.0,-2.44,-0.04,9.65
0.0,0.0,0.0,-2.5,-0.07,9.58
0.0,0.0,0.0,-2.43,-0.02,9.55
0.0,0.0,0.0,-2.38,0.51,10.06
0.0,0.0,0.0,-2.68,-0.13,9.53
0.0,0.0,0.0,-2.48,-0.06,8.85
0.0,0.0,0.0,-2.13,0.57,9.73
0.0,0.0,0.0,-2.64,0.19,9.92
0.0,0.0,0.0,-3.8,-0.04,9.95
0.0,0.0,0.0,1.77,2.64,9.88
0.0,0.0,0.0,0.84,2.33,9.55
0.0,0.0,0.0,0.13,2.52,9.55
0.0,0.0,0.0,0.02,2.54,9.56
0.0,0.0,0.0,0.27,2.45,9.42
0.0,0.0,0.0,0.22,2.12,9.25
0.0,0.0,0.0,-0.11,2.44,9.45
0.0,0.0,0.0,-0.89,2.35,9.49
0.0,0.0,0.0,-0.6,2.48,9.75
0.0,0.0,0.0,0.22,2.45,9.73
0.0,0.0,0.0,0.16,2.43,9.38
0.0,0.0,0.0,-0.1,2.48,9.13
0.0,0.0,0.0,-0.8,2.4,9.38
0.0,0.0,0.0,-0.82,2.38,9.38
0.0,0.0,0.0,-0.81,2.38,9.69
0.0,0.0,0.0,0.29,2.4,9.61
0.0,0.0,0.0,0.29,2.41,9.71
0.0,0.0,0.0,0.01,2.47,9.31
0.0,0.0,0.0,-0.43,2.45,9.18
0.0,0.0,0.0,-0.87,2.38,9.4
0.0,0.0,0.0,-0.82,2.31,9.71
0.0,0.0,0.0,-0.94,2.18,9.5
0.0,0.0,0.0,-0.72,2.45,10.39
0.0,0.0,0.0,0.03,2.53,9.38
0.0,0.0,0.0,0.03,2.43,9.67
0.0,0.0,0.0,-0.13,2.46,9.4
0.0,0.0,0.0,-0.47,2.31,9.54
0.0,0.0,0.0,-0.68,2.33,9.5
0.0,0.0,0.0,-0.35,2.32,9.69
0.0,0.0,0.0,-0.11,2.38,9.79
0.0,0.0,0.0,0.13,2.42,9.57
0.0,0.0,0.0,-0.08,2.46,9.49
0.0,0.0,0.0,-0.35,2.51,9.3
0.0,0.0,0.0,0.03,2.49,9.41
0.0,0.0,0.0,-0.57,2.37,9.62
0.0,0.0,0.0,-0.56,2.38,9.43
0.0,0.0,0.0,-0.05,2.44,9.26
0.0,0.0,0.0,-0.5,2.36,9.83
0.0,0.0,0.0,-0.4,2.44,9.34
0.0,0.0,0.0,-0.4,2.47,9.28
0.0,0.0,0.0,-0.17,2.45,9.77
0.0,0.0,0.0,-0.56,2.31,9.63
0.0,0.0,0.0,-0.16,2.48,9.25
0.0,0.0,0.0,0.1,2.46,9.55
0.0,0.0,0.0,-0.46,2.38,9.82
0.0,0.0,0.0,-0.59,2.38,9.34
0.0,0.0,0.0,0.12,2.53,9.39
0.0,0.0,0.0,-0.23,2.4,9.89
0.0,0.0,0.0,-0.56,2.29,9.65
0.0,0.0,0.0,-0.39,2.45,9.24
0.0,0.0,0.0,0.09,2.46,9.58
49.232332,4.033819,0.04,-0.67,2.41,9.54
49.232332,4.033819,0.04,-0.15,2.52,9.24
49.232329,4.033805,0.0,-0.11,2.43,9.77
49.232329,4.033805,0.0,-0.54,2.31,9.73
49.232329,4.033805,0.0,-0.44,2.48,9.3
49.232329,4.033805,0.0,0.03,2.43,9.42
49.232329,4.033805,0.0,-0.28,2.4,9.87
49.232329,4.033805,0.0,-0.59,2.33,9.56
49.232329,4.033805,0.0,0.03,2.46,9.62
49.232329,4.033805,0.0,0.02,2.53,9.24
49.232329,4.033805,0.0,-0.1,2.53,9.21
49.232329,4.033805,0.0,-0.58,2.35,9.46
49.232329,4.033805,0.0,0.1,2.48,9.47
49.232329,4.033805,0.0,0.04,2.5,9.32
49.232329,4.033805,0.0,-0.5,2.47,9.28
49.232329,4.033805,0.0,-0.12,2.41,9.3
49.232329,4.033805,0.0,-0.28,2.42,9.5
49.232329,4.033805,0.0,-0.46,2.41,9.57
49.232329,4.033805,0.0,-0.49,2.39,9.44
49.232329,4.033805,0.0,-0.17,2.27,9.86
49.232329,4.033805,0.0,-0.48,1.56,10.02
49.232329,4.033805,0.0,-0.39,2.01,9.88
49.232329,4.033805,0.0,-0.44,2.38,9.9
49.232329,4.033805,0.0,-0.1,2.19,9.94
49.232329,4.033805,0.0,0.11,2.43,9.75
49.23234,4.033806,0.0,0.52,2.23,9.24
49.23234,4.033806,0.0,-0.45,2.13,9.59
49.23234,4.033806,0.0,-0.25,2.2,9.71
49.23234,4.033806,0.0,-0.18,2.4,9.68
49.23234,4.033806,0.0,-0.08,2.53,9.79
49.23234,4.033806,0.0,-0.58,2.38,9.26
49.23234,4.033806,0.0,-0.66,2.03,9.56
49.23234,4.033806,0.0,-0.66,2.66,9.51
49.23234,4.033806,0.0,-0.91,3.14,9.33
49.23234,4.033806,0.0,-1.3,3.44,8.89
49.232353,4.033782,0.0,-2.2,2.52,9.85
49.232353,4.033782,0.0,-2.21,3.0,9.46
49.232357,4.033805,0.0,-1.16,0.74,10.02
49.232357,4.033805,0.0,-1.07,1.24,9.73
49.232378,4.033837,0.0,-0.9,1.1,9.93
49.232378,4.033837,0.0,-1.87,1.38,10.19
49.232399,4.033874,2.53,-0.96,1.86,9.41
49.232399,4.033874,2.53,-0.43,1.44,10.05
49.232415,4.033897,2.34,0.14,2.31,9.81
49.232415,4.033897,2.34,-1.32,1.73,6.53
49.232433,4.033911,1.79,-2.93,1.92,8.51
49.232433,4.033911,1.79,-2.58,1.49,9.68
49.232451,4.033914,2.45,-2.1,0.9,9.05
49.232451,4.033914,2.45,-1.87,0.72,10.77
49.232473,4.03391,2.05,-1.18,1.0,10.09
49.232473,4.03391,2.05,-0.72,0.82,9.56
49.232491,4.033898,1.64,-0.1,1.2,9.82
49.232504,4.033881,1.24,-0.53,1.16,10.08
49.232504,4.033881,1.24,-2.26,1.26,10.58
49.232511,4.033861,1.95,-2.72,2.08,10.38
49.232511,4.033861,1.95,-2.86,1.64,11.24
49.232521,4.03382,3.44,-2.53,0.56,8.21
49.232521,4.03382,3.44,-1.36,1.13,9.56
49.232523,4.033757,3.58,-0.13,1.3,9.91
49.232523,4.033757,3.58,-0.46,0.93,10.72
49.232518,4.033702,3.57,-0.7,0.21,10.02
49.232518,4.033702,3.57,-0.35,-0.22,9.19
49.23251,4.03366,3.51,-0.75,0.94,11.02
49.23251,4.03366,3.51,0.2,3.73,9.83
49.232504,4.03363,3.45,-0.1,3.22,10.15
49.232504,4.03363,3.45,0.23,3.85,9.94
49.232495,4.033583,3.49,-0.14,2.93,9.06
49.232495,4.033583,3.49,-0.29,0.81,9.57
49.232478,4.033511,3.65,-0.05,2.13,9.19
49.232478,4.033511,3.65,-1.49,0.27,10.11
49.23246,4.033425,3.85,-1.76,0.43,9.5
49.23246,4.033425,3.85,-1.76,1.57,9.1
49.232438,4.033346,4.01,-2.36,0.27,8.71
49.232438,4.033346,4.01,-1.43,0.86,8.17
49.232407,4.033289,5.13,-3.74,0.51,9.52
49.232407,4.033289,5.13,-3.01,1.25,9.42
49.23236,4.033255,5.65,-3.71,1.38,9.4
49.23236,4.033255,5.65,-3.14,1.09,9.34
49.2323,4.033259,6.45,-2.2,1.29,8.78
49.2323,4.033259,6.45,-0.96,1.35,10.56
49.23224,4.033306,7.26,-1.92,1.35,8.7
49.23224,4.033306,7.26,-1.36,0.08,8.55
49.232182,4.033393,8.45,0.02,0.85,9.8
49.232182,4.033393,8.45,-0.78,1.36,9.84
49.232123,4.033492,9.31,0.36,0.97,8.98
49.23206,4.033592,9.88,0.18,0.68,10.27
49.23206,4.033592,9.88,-0.34,1.35,10.48
49.231985,4.033674,10.14,-0.3,1.73,9.5
49.231985,4.033674,10.14,-0.43,1.5,11.34
49.231903,4.033737,10.42,-2.82,2.02,7.88
49.231903,4.033737,10.42,-0.43,2.15,9.63
49.231808,4.033802,11.25,-0.98,1.98,9.46
49.231808,4.033802,11.25,-0.81,2.11,9.44
49.231705,4.033871,11.93,-1.89,2.98,10.9
49.231705,4.033871,11.93,-0.94,2.04,9.01
49.231602,4.033936,12.18,-0.15,2.27,9.93
49.231602,4.033936,12.18,-1.12,1.69,9.06
49.2315,4.034001,12.31,-1.21,2.23,9.97
49.2315,4.034001,12.31,-0.42,1.47,9.27
49.231395,4.03407,12.34,-1.08,1.94,9.61
49.231395,4.03407,12.34,-1.92,1.37,8.67
49.23129,4.034143,12.45,-0.65,2.05,8.92
49.23129,4.034143,12.45,-0.95,1.58,8.6
49.231187,4.034222,12.43,-1.4,1.73,10.08
49.231187,4.034222,12.43,-0.65,1.19,8.46
49.231089,4.034302,11.99,-0.39,1.7,11.26
49.231089,4.034302,11.99,-0.37,1.38,14.44
49.230995,4.034385,11.99,-1.0,1.49,10.09
49.230995,4.034385,11.99,-0.58,2.03,10.28
49.230901,4.034467,11.84,-1.58,1.82,9.53
49.230901,4.034467,11.84,-2.06,0.98,11.44
49.230807,4.034547,12.01,-1.15,1.77,8.58
49.230807,4.034547,12.01,-0.99,1.95,8.66
49.230712,4.034628,12.16,-1.18,1.47,9.07
49.230712,4.034628,12.16,-0.71,2.6,11.01
49.230619,4.034708,12.38,-1.77,-0.06,11.19
49.230527,4.034787,12.07,-0.24,1.21,9.55
49.230527,4.034787,12.07,-0.48,1.12,10.03
49.230436,4.034867,11.52,-1.24,1.4,8.61
49.230436,4.034867,11.52,-1.39,0.83,9.4
49.230348,4.034944,11.42,-0.85,0.67,9.57
49.230348,4.034944,11.42,-0.9,1.15,10.24
49.230262,4.03502,11.01,-1.54,1.41,9.55
49.230262,4.03502,11.01,-2.09,0.87,8.98
49.230181,4.035093,10.67,-2.47,0.41,10.49
49.230181,4.035093,10.67,-1.76,1.8,10.09
49.230108,4.035174,10.06,-0.69,0.57,10.18
49.230108,4.035174,10.06,-0.12,0.79,9.66
49.230043,4.035262,9.43,0.02,-0.07,10.2
49.230043,4.035262,9.43,-0.11,-0.03,11.0
49.229983,4.035346,8.1,-1.26,-0.43,10.65
49.229983,4.035346,8.1,-3.05,0.77,10.11
49.229934,4.035416,6.95,-3.37,1.14,9.13
49.229934,4.035416,6.95,-2.87,0.87,8.61
49.229895,4.035489,6.76,-3.32,0.45,9.29
49.229895,4.035489,6.76,-3.68,0.19,9.71
49.229875,4.03557,6.33,-2.64,0.52,7.96
49.229875,4.03557,6.33,-3.61,0.47,9.39
49.229884,4.035669,6.84,-3.39,0.05,9.6
49.229884,4.035669,6.84,-4.36,0.58,9.38
49.229916,4.035763,6.51,-3.99,0.8,9.29
49.229916,4.035763,6.51,-4.1,1.19,9.28
49.229967,4.035825,6.5,-4.3,1.2,9.65
49.229967,4.035825,6.5,-3.13,1.87,8.77
49.230044,4.035838,8.02,-2.0,1.78,10.81
49.230044,4.035838,8.02,-1.13,2.34,8.36
49.230137,4.035801,10.45,-0.87,2.61,10.18
49.230137,4.035801,10.45,-0.6,-0.83,11.23
49.230236,4.035741,11.67,-0.03,0.04,9.02
49.230236,4.035741,11.67,-0.46,1.23,10.33
49.230348,4.035681,11.77,-0.55,0.12,10.44
49.23046,4.035621,12.04,-0.32,0.7,10.19
49.23046,4.035621,12.04,-1.14,0.09,10.01
49.230573,4.035568,12.08,-0.37,0.45,11.55
49.230573,4.035568,12.08,0.57,1.17,9.54
49.230684,4.03552,12.32,-0.27,1.12,8.78
49.230684,4.03552,12.32,0.66,1.36,10.51
49.230799,4.035483,12.84,0.77,1.4,8.33
49.230799,4.035483,12.84,1.09,1.69,9.37
49.230917,4.035468,13.15,0.71,1.9,10.07
49.230917,4.035468,13.15,0.37,0.44,8.53
49.231041,4.035471,13.65,0.15,1.47,10.64
49.231041,4.035471,13.65,1.38,1.03,9.38
49.231165,4.035494,13.55,0.83,1.74,10.11
49.231165,4.035494,13.55,0.87,1.67,12.32
49.231283,4.035542,13.68,1.39,1.32,12.89
49.231283,4.035542,13.68,1.81,1.96,10.27
49.231395,4.035618,13.25,0.69,1.44,10.33
49.231395,4.035618,13.25,1.02,2.07,9.73
49.231502,4.035719,13.58,0.57,1.6,8.19
49.231502,4.035719,13.58,0.23,1.88,8.62
49.231599,4.035853,13.92,-0.38,2.42,10.1
49.231599,4.035853,13.92,-0.35,1.41,9.89
49.23169,4.036004,14.59,-0.56,2.12,6.9
49.23169,4.036004,14.59,-0.88,0.61,11.64
49.231782,4.036164,14.68,-0.97,0.95,8.99
49.231782,4.036164,14.68,-0.51,1.07,9.02
49.231871,4.03632,14.31,-1.1,0.68,10.53
49.231871,4.03632,14.31,-0.66,1.04,9.51
49.231954,4.036472,13.66,-0.82,1.36,11.26
49.231954,4.036472,13.66,-0.44,0.51,8.76
49.232035,4.036618,13.83,-1.19,0.62,10.09
49.232035,4.036618,13.83,-1.09,1.8,10.16
49.232115,4.036761,13.25,-1.3,1.36,9.05
49.232115,4.036761,13.25,-0.88,2.04,9.06
49.232195,4.036904,13.54,-0.7,2.02,11.07
49.232278,4.037053,14.17,-0.9,1.97,10.74
49.232278,4.037053,14.17,-0.37,2.24,11.09
49.232361,4.03721,14.74,-0.01,2.1,9.2
49.232361,4.03721,14.74,-0.72,1.81,10.81
49.23245,4.037374,15.29,-0.14,1.54,8.48
49.23245,4.037374,15.29,-0.05,1.2,11.89
49.232538,4.03754,15.08,-1.43,0.68,9.15
49.232538,4.03754,15.08,-1.37,0.79,9.43
49.232624,4.037702,14.78,-1.03,2.01,10.21
49.232624,4.037702,14.78,-1.55,0.45,9.96
49.232706,4.03786,14.48,-0.95,1.01,7.82
49.232706,4.03786,14.48,-1.01,1.62,11.31
49.232789,4.038009,14.1,-1.32,1.23,10.21
49.232789,4.038009,14.1,0.01,0.69,8.84
49.232872,4.038153,13.72,-0.72,1.69,8.57
49.232872,4.038153,13.72,-1.05,1.19,9.58
49.232951,4.038294,13.28,-0.87,0.94,9.48
49.232951,4.038294,13.28,-0.26,2.55,7.85
49.23303,4.038433,13.15,-0.76,0.83,8.88
49.23303,4.038433,13.15,-1.22,0.46,9.98
49.233107,4.038568,12.78,-0.9,0.63,10.29
49.233107,4.038568,12.78,-0.27,1.09,12.75
49.233181,4.038697,12.38,1.8,1.2,10.13
49.233181,4.038697,12.38,-0.57,0.8,8.95
49.233253,4.038824,12.09,0.64,0.43,9.97
49.233253,4.038824,12.09,1.5,1.38,10.07
49.233322,4.038947,11.56,2.26,1.01,10.64
49.233322,4.038947,11.56,1.69,1.71,9.86
49.233381,4.039076,11.36,1.86,0.84,9.08
49.233381,4.039076,11.36,2.28,0.72,10.01
49.233423,4.039215,10.85,1.89,1.92,9.65
49.233423,4.039215,10.85,1.93,2.01,10.13
49.233437,4.039365,10.82,2.08,1.62,8.88
49.233427,4.03952,11.32,2.88,1.95,11.41
49.233427,4.03952,11.32,1.59,2.44,10.66
49.233389,4.039678,12.2,-0.27,2.62,10.36
49.233389,4.039678,12.2,-0.21,1.64,8.91
49.233316,4.039839,13.66,-0.78,3.15,10.38
49.233316,4.039839,13.66,-0.27,2.23,8.94
49.233241,4.040002,14.43,-0.68,2.68,8.93
49.233241,4.040002,14.43,-1.22,1.81,8.23
49.233164,4.040175,15.22,-0.75,1.83,8.58
49.233164,4.040175,15.22,-0.9,1.37,9.23
49.233081,4.040362,16.15,0.15,2.33,10.72
49.233081,4.040362,16.15,0.16,1.39,10.83
49.232994,4.040558,16.99,-0.58,1.1,12.04
49.232994,4.040558,16.99,-0.61,1.1,8.13
49.232902,4.040757,17.42,-0.58,1.44,9.62
49.232902,4.040757,17.42,-0.69,1.34,10.94
49.232809,4.040962,17.69,-0.39,0.97,9.08
49.232809,4.040962,17.69,-0.56,1.36,10.75
49.232714,4.041166,17.98,-0.13,1.67,9.94
49.232714,4.041166,17.98,-1.01,1.16,8.92
49.232619,4.041377,18.43,-0.58,1.58,11.71
49.232619,4.041377,18.43,-0.57,1.01,11.12
49.232521,4.041591,18.82,-0.02,1.89,9.7
49.232521,4.041591,18.82,-0.11,1.71,9.87
49.232421,4.041804,19.09,0.6,1.67,9.98
49.232421,4.041804,19.09,0.22,1.25,8.73
49.232317,4.042014,19.31,0.71,1.19,8.35
49.232317,4.042014,19.31,0.97,0.76,11.17
49.232206,4.04222,19.31,0.06,1.0,7.18
49.232206,4.04222,19.31,1.12,1.06,9.83
49.232089,4.042411,19.27,-0.13,1.52,8.01
49.232089,4.042411,19.27,-0.19,1.38,10.68
49.231967,4.042595,19.53,-0.02,1.58,8.64
49.231967,4.042595,19.53,-0.32,2.26,8.72
49.231843,4.042779,20.01,-0.39,1.96,10.8
49.231843,4.042779,20.01,0.32,1.43,9.27
49.231716,4.04297,20.29,0.66,2.44,10.41
49.231582,4.043162,20.65,0.04,0.95,10.47
49.231582,4.043162,20.65,-0.03,2.41,9.43
49.231451,4.043365,21.06,-0.47,1.17,9.42
49.231451,4.043365,21.06,0.05,1.83,10.35
49.231317,4.043572,21.53,0.39,2.2,10.0
49.231317,4.043572,21.53,-0.65,2.0,9.09
49.231179,4.043783,21.93,-0.16,0.98,10.69
49.231179,4.043783,21.93,0.52,0.33,9.75
49.23104,4.043996,21.87,-0.54,1.21,11.09
49.23104,4.043996,21.87,-0.01,1.77,8.32
49.230899,4.044208,21.78,-0.54,1.44,9.9
49.230899,4.044208,21.78,-0.35,1.16,8.58
49.230761,4.04442,21.84,-0.93,0.68,8.63
49.230761,4.04442,21.84,-0.14,1.37,9.1
49.230627,4.044637,21.87,-0.39,0.56,9.63
49.230627,4.044637,21.87,-1.4,0.58,10.65
49.230495,4.044858,21.74,-0.46,0.96,10.65
49.230495,4.044858,21.74,-1.17,-0.1,10.57
49.230368,4.045083,21.28,-0.8,0.92,10.92
49.230368,4.045083,21.28,-0.37,0.47,10.07
49.230247,4.045309,21.2,-1.04,1.08,9.65
49.230247,4.045309,21.2,-0.99,0.87,9.93
49.230123,4.045532,20.98,-0.42,1.27,10.43
49.230123,4.045532,20.98,-0.77,1.17,9.78
49.230006,4.045757,20.81,-0.93,1.02,10.83
49.230006,4.045757,20.81,-0.5,0.94,9.93
49.229892,4.045986,20.65,-1.13,0.62,9.93
49.229892,4.045986,20.65,-0.01,1.3,11.08
49.229783,4.04621,20.33,-0.6,1.38,10.25
49.229783,4.04621,20.33,-0.3,0.9,10.11
49.229674,4.046436,20.39,-1.15,0.49,8.98
49.229674,4.046436,20.39,-0.33,1.06,10.34
49.229571,4.046662,19.99,0.58,1.11,9.38
49.229571,4.046662,19.99,-0.4,1.06,9.92
49.229474,4.046885,19.42,0.15,1.08,8.6
49.229474,4.046885,19.42,0.16,0.81,11.37
49.22938,4.047105,19.23,-0.66,1.38,8.79
49.229288,4.047332,19.37,-0.82,0.85,11.9
49.229288,4.047332,19.37,-0.91,1.55,9.35
49.229199,4.047566,19.08,-0.98,0.91,10.28
49.229199,4.047566,19.08,-0.68,1.03,9.43
49.229116,4.047796,18.75,-0.66,1.25,10.48
49.229116,4.047796,18.75,-0.57,0.12,9.74
49.229034,4.048029,18.48,-0.18,1.06,11.13
49.229034,4.048029,18.48,0.57,0.48,10.16
49.228959,4.048255,18.05,-0.38,0.99,10.37
49.228959,4.048255,18.05,-0.11,0.93,8.53
49.22889,4.048469,17.49,-0.05,0.54,9.98
49.22889,4.048469,17.49,-0.07,0.45,9.81
49.228819,4.048672,16.66,-0.54,0.41,8.13
49.228819,4.048672,16.66,-0.26,0.65,7.66
49.228753,4.048876,15.53,-0.53,-0.39,10.15
49.228753,4.048876,15.53,0.05,0.63,9.01
49.228695,4.049061,14.37,-0.04,-0.49,9.47
49.228695,4.049061,14.37,0.02,0.23,11.17
49.228639,4.049223,13.23,-0.3,-0.51,11.26
49.228639,4.049223,13.23,-0.47,1.04,9.48
49.228589,4.049369,12.29,-0.36,1.01,11.44
49.228589,4.049369,12.29,-0.17,0.33,9.07
49.228544,4.04951,11.66,-0.09,0.55,11.43
49.228544,4.04951,11.66,-0.61,0.85,11.06
49.228505,4.049645,11.02,0.13,1.22,10.66
49.228505,4.049645,11.02,-0.27,1.82,9.7
49.228466,4.049778,10.94,-0.92,0.68,9.99
49.228466,4.049778,10.94,-0.64,0.83,9.13
49.228425,4.049917,11.07,-0.77,1.3,9.64
49.228425,4.049917,11.07,-1.03,1.09,10.57
49.228383,4.050057,10.92,-0.68,1.48,9.69
49.228383,4.050057,10.92,-0.18,1.67,10.77
49.228341,4.050202,11.27,-1.29,1.8,9.33
49.228341,4.050202,11.27,0.08,1.51,9.64
49.2283,4.050353,11.66,-0.55,1.01,9.92
49.2283,4.050353,11.66,-0.56,1.04,9.62
49.228261,4.050503,11.35,-0.04,1.0,10.91
49.228222,4.050646,11.08,-0.45,1.26,9.89
49.228222,4.050646,11.08,-0.56,0.8,9.4
49.228182,4.050783,10.87,-0.45,1.37,9.67
49.228182,4.050783,10.87,-0.67,0.45,9.0
49.228145,4.050913,10.34,-0.74,0.82,9.43
49.228145,4.050913,10.34,-0.54,0.73,11.31
49.22811,4.05104,10.01,-0.69,0.78,10.36
49.22811,4.05104,10.01,-0.82,0.83,10.14
49.228074,4.051164,9.87,-1.0,1.23,9.61
49.228074,4.051164,9.87,-0.34,1.12,9.83
49.22804,4.051287,9.7,-0.73,0.89,10.02
49.22804,4.051287,9.7,-0.67,1.09,9.34
49.228005,4.051407,9.7,-0.24,0.97,10.26
49.228005,4.051407,9.7,-0.97,1.43,10.05
49.22797,4.05153,9.64,-0.86,0.82,9.97
49.22797,4.05153,9.64,-0.53,1.22,9.52
49.227933,4.051651,9.4,-0.6,1.39,8.52
49.227933,4.051651,9.4,-0.58,1.96,10.05
49.2279,4.05177,9.62,-0.74,0.87,9.28
49.2279,4.05177,9.62,-0.54,0.74,10.21
49.227867,4.05189,9.44,-0.2,0.76,9.96
49.227867,4.05189,9.44,-0.21,0.76,8.97
49.227836,4.052003,8.92,-0.84,0.63,9.27
49.227836,4.052003,8.92,-0.82,0.57,10.05
49.227807,4.052111,8.2,-0.54,0.54,10.28
49.227807,4.052111,8.2,-0.69,0.69,9.53
49.227781,4.052211,7.61,-0.45,1.54,9.57
49.227781,4.052211,7.61,-0.49,1.36,8.6
49.227753,4.052306,7.72,-0.64,1.59,9.52
49.227753,4.052306,7.72,-0.6,2.15,9.76
49.227724,4.052407,8.2,-0.79,1.76,9.35
49.227724,4.052407,8.2,-1.08,1.58,10.75
49.227694,4.052514,8.65,-1.24,1.4,10.31
49.227694,4.052514,8.65,-0.08,1.18,9.38
49.22766,4.05263,9.02,-0.51,1.23,9.35
49.227625,4.052744,8.98,-0.6,1.48,8.85
49.227625,4.052744,8.98,-0.8,1.59,10.07
49.227592,4.05286,9.34,-0.82,0.91,9.04
49.227592,4.05286,9.34,-0.45,0.99,10.38
49.227559,4.052974,9.1,-0.75,1.12,9.95
49.227559,4.052974,9.1,-0.62,0.71,10.87
49.227526,4.053087,8.63,-0.58,0.68,10.22
49.227526,4.053087,8.63,-0.56,0.61,10.78
49.227499,4.053191,8.07,-0.77,0.74,10.74
49.227499,4.053191,8.07,-0.7,0.93,10.49
49.22747,4.053293,7.81,-0.8,2.09,9.42
49.22747,4.053293,7.81,-0.95,1.2,9.84
49.227446,4.053395,7.54,-1.15,1.3,9.29
49.227446,4.053395,7.54,-0.99,1.28,9.66
49.227415,4.053483,8.04,-1.02,1.25,9.73
49.227415,4.053483,8.04,-0.71,0.78,9.81
49.227388,4.053579,8.18,-0.91,0.83,11.63
49.227388,4.053579,8.18,-0.57,1.09,9.43
49.22736,4.053684,8.23,-0.91,0.75,9.68
49.22736,4.053684,8.23,-0.45,0.67,9.69
49.227336,4.053806,7.8,-0.92,0.86,9.63
49.227336,4.053806,7.8,-0.71,1.48,9.86
49.227312,4.053906,7.66,-0.78,0.94,9.91
49.227312,4.053906,7.66,-0.35,0.85,10.06
49.227288,4.053998,7.53,-0.34,1.08,10.0
49.227288,4.053998,7.53,-0.28,1.83,9.79
49.227264,4.054087,7.32,-1.0,1.92,8.96
49.227264,4.054087,7.32,-1.04,1.47,10.16
49.227237,4.054178,7.95,-1.58,1.63,9.59
49.227237,4.054178,7.95,-1.01,0.93,9.67
49.227206,4.054284,8.41,-0.65,0.82,9.55
49.227206,4.054284,8.41,-0.93,1.33,9.31
49.227174,4.054394,8.23,0.04,2.09,10.84
49.227174,4.054394,8.23,-0.55,1.73,10.09
49.227143,4.054501,8.84,-1.19,0.87,10.2
49.227143,4.054501,8.84,-0.75,0.97,10.18
49.227113,4.054611,9.03,-0.68,-0.01,9.76
49.227113,4.054611,9.03,-0.97,-0.91,10.28
49.227084,4.054717,7.98,-0.52,-0.53,10.63
49.227057,4.054805,6.12,-0.77,0.19,9.89
49.227057,4.054805,6.12,-0.72,0.81,9.5
49.227037,4.054879,5.48,-0.47,0.69,10.04
49.227037,4.054879,5.48,-0.47,1.44,9.27
49.227017,4.054946,5.51,-1.19,1.18,9.12
49.227017,4.054946,5.51,-1.02,0.68,10.11
49.226995,4.055015,5.34,-0.41,0.78,10.1
49.226995,4.055015,5.34,-0.7,1.0,8.93
49.226974,4.055078,4.79,-0.77,0.9,10.42
49.226974,4.055078,4.79,-0.94,0.92,9.77
49.226958,4.055135,4.55,-0.52,2.04,9.86
49.226958,4.055135,4.55,-0.57,1.82,9.97
49.226938,4.055195,5.18,-0.71,1.96,9.2
49.226938,4.055195,5.18,-0.51,1.94,8.8
49.226919,4.055265,5.77,-1.03,1.73,10.39
49.226919,4.055265,5.77,-0.75,1.87,10.14
49.226899,4.055342,6.51,-0.76,2.25,9.78
49.226899,4.055342,6.51,-0.54,2.18,9.49
49.226876,4.055429,7.27,-0.23,1.77,9.81
49.226876,4.055429,7.27,-0.55,1.83,9.44
49.226849,4.055527,7.99,-0.68,0.77,9.96
49.226849,4.055527,7.99,-0.45,1.58,10.38
49.226819,4.055628,8.1,-0.44,1.18,8.81
49.226819,4.055628,8.1,-0.15,1.06,8.6
49.226789,4.055728,7.92,-0.62,0.63,9.52
49.226789,4.055728,7.92,-0.69,0.87,9.8
49.226761,4.055824,7.43,-0.56,0.87,9.97
49.226761,4.055824,7.43,-0.62,0.86,10.0
49.226736,4.055914,6.92,-0.61,0.65,9.66
49.226736,4.055914,6.92,-0.79,1.7,8.88
49.22671,4.056002,6.64,-1.01,1.56,10.16
49.22671,4.056002,6.64,-0.88,0.89,9.52
49.226685,4.05609,6.89,-0.6,1.07,9.82
49.226685,4.05609,6.89,-0.51,0.82,10.24
49.226658,4.056178,6.67,-0.57,1.05,9.18
49.226658,4.056178,6.67,-0.87,0.64,9.51
49.226635,4.056255,6.33,-0.55,2.61,10.99
49.226635,4.056255,6.33,-0.79,2.21,9.38
49.226612,4.056331,6.79,-0.58,2.04,9.38
49.226612,4.056331,6.79,-1.42,0.47,9.48
49.226583,4.056416,7.59,-0.52,0.95,10.71
49.226558,4.056504,7.05,-0.49,1.0,9.6
49.226558,4.056504,7.05,-0.9,0.9,10.28
49.226533,4.056592,6.66,-0.81,0.92,10.59
49.226533,4.056592,6.66,-0.93,0.81,9.54
49.22651,4.056682,6.53,-0.76,1.51,10.62
49.22651,4.056682,6.53,-0.48,0.79,9.97
49.226487,4.056766,6.42,-0.65,1.13,9.26
49.226487,4.056766,6.42,-0.74,0.91,11.34
49.226465,4.056845,6.12,-0.85,0.9,8.81
49.226465,4.056845,6.12,-0.68,1.33,8.75
49.226444,4.056921,6.01,-0.65,1.75,10.77
49.226444,4.056921,6.01,-0.51,1.16,9.72
49.226421,4.056999,6.24,-0.9,0.99,9.99
49.226421,4.056999,6.24,-0.57,0.91,10.48
49.226396,4.057078,6.07,-0.96,0.81,10.13
49.226396,4.057078,6.07,-0.56,0.85,10.01
49.226376,4.057151,5.78,-0.56,0.77,10.49
49.226376,4.057151,5.78,-0.63,0.78,10.69
49.226357,4.05722,5.32,-0.79,0.98,9.11
49.226357,4.05722,5.32,-0.79,1.29,9.81
49.226339,4.057285,5.13,-0.8,2.56,10.1
49.226339,4.057285,5.13,-0.69,2.16,9.11
49.226319,4.057354,5.9,-1.29,1.92,9.45
49.226319,4.057354,5.9,-1.44,1.54,9.65
49.226296,4.057433,6.59,-0.98,0.98,9.42
49.226296,4.057433,6.59,-0.6,1.0,10.56
49.226274,4.057519,6.65,-0.75,0.78,9.73
49.226274,4.057519,6.65,-0.6,0.8,9.08
49.226248,4.057611,6.32,-0.78,1.67,9.57
49.226248,4.057611,6.32,-0.25,1.47,10.53
49.226227,4.057691,6.46,-1.04,1.26,10.47
49.226227,4.057691,6.46,-1.04,0.95,10.27
49.226202,4.057775,6.68,-0.89,0.81,9.53
49.226202,4.057775,6.68,-0.67,1.24,9.45
49.226177,4.057858,6.46,-0.89,1.71,8.36
49.226177,4.057858,6.46,-0.77,0.94,9.61
49.226153,4.057938,6.66,-0.8,0.95,10.64
49.22613,4.05802,6.34,-0.25,1.09,9.15
49.22613,4.05802,6.34,-1.12,0.98,10.27
49.226108,4.058096,6.15,-0.72,1.97,10.53
49.226108,4.058096,6.15,-0.59,1.43,9.6
49.226085,4.058177,6.86,-0.58,2.21,9.8
49.226085,4.058177,6.86,-1.06,1.65,9.82
49.226059,4.058265,7.27,-1.07,1.05,9.37
49.226059,4.058265,7.27,-0.59,1.29,8.81
49.226032,4.058358,7.33,-0.2,0.96,9.17
49.226032,4.058358,7.33,-0.87,0.77,9.5
49.226006,4.058449,6.96,-0.99,1.51,9.2
49.226006,4.058449,6.96,-0.79,1.62,9.52
49.225981,4.058539,7.05,-0.68,1.47,10.21
49.225981,4.058539,7.05,-0.75,1.58,9.73
49.225957,4.05863,7.29,-0.92,1.54,9.92
49.225957,4.05863,7.29,-0.26,1.94,10.9
49.225931,4.058724,7.55,-0.65,1.47,10.23
49.225931,4.058724,7.55,-0.79,1.55,9.24
49.225904,4.058821,7.82,-0.21,1.71,9.68
49.225904,4.058821,7.82,-0.09,1.38,9.45
49.225876,4.05892,8.12,-0.56,1.36,9.69
49.225876,4.05892,8.12,-0.58,1.3,10.26
49.225847,4.059022,8.13,-0.51,1.43,10.15
49.225847,4.059022,8.13,-0.44,1.45,9.66
49.225817,4.059125,8.3,-0.71,1.44,9.39
49.225817,4.059125,8.3,-1.02,1.6,9.56
49.225786,4.059232,8.49,-0.85,1.06,9.24
49.225786,4.059232,8.49,-1.03,0.7,10.15
49.225756,4.059337,8.28,-0.77,1.19,10.6
49.225756,4.059337,8.28,-0.95,0.81,9.75
49.225727,4.059438,7.83,-0.6,1.29,9.6
49.225727,4.059438,7.83,-0.33,1.54,8.96
49.2257,4.059536,7.76,-0.43,1.61,9.74
49.2257,4.059536,7.76,-0.8,1.4,9.7
49.225672,4.059634,8.11,-0.7,2.28,9.02
49.225672,4.059634,8.11,-0.41,1.69,10.74
49.225642,4.05974,8.68,-0.61,1.74,8.73
49.225642,4.05974,8.68,-0.48,1.62,9.12
49.22561,4.059853,9.29,-0.48,2.28,8.36
49.22561,4.059853,9.29,-0.51,1.85,10.09
49.225574,4.059976,9.98,-0.49,1.98,10.86
49.225574,4.059976,9.98,-0.29,1.92,8.9
49.225535,4.060107,10.48,-0.65,1.71,8.21
49.225496,4.060241,10.54,-0.78,0.86,9.09
49.225496,4.060241,10.54,-1.0,1.44,9.33
49.225455,4.060376,10.82,-0.26,1.2,9.06
49.225455,4.060376,10.82,-0.97,1.74,7.88
49.22541,4.060515,11.22,-0.43,1.2,10.18
49.22541,4.060515,11.22,-0.81,1.52,9.43
49.225365,4.060653,11.23,-0.38,0.77,9.56
49.225365,4.060653,11.23,-0.28,0.93,9.08
49.225319,4.060795,11.36,-0.38,1.32,8.82
49.225319,4.060795,11.36,-0.57,1.06,9.79
49.225273,4.060934,10.95,-1.1,0.54,9.79
49.225273,4.060934,10.95,-1.39,0.22,10.03
49.22523,4.061073,10.46,-0.44,0.46,9.68
49.22523,4.061073,10.46,-0.67,0.76,10.04
49.22519,4.061199,9.29,-0.91,-0.45,9.63
49.22519,4.061199,9.29,-0.4,-0.29,9.66
49.225156,4.061304,8.19,-0.57,0.31,9.16
49.225156,4.061304,8.19,-0.68,-0.05,10.11
49.225126,4.061396,6.96,-0.79,0.31,10.19
49.225126,4.061396,6.96,-0.73,0.73,10.61
49.225098,4.061479,6.52,-0.51,0.83,10.43
49.225098,4.061479,6.52,-0.83,1.05,9.62
49.225071,4.061559,6.16,-0.74,0.75,10.22
49.225071,4.061559,6.16,-0.53,1.56,9.62
49.225048,4.061631,6.02,-0.59,1.77,10.09
49.225048,4.061631,6.02,-0.79,0.85,10.6
49.225023,4.061708,6.27,-0.76,0.78,9.77
49.225023,4.061708,6.27,-0.59,0.68,9.79
49.224999,4.061782,5.92,-0.52,0.67,9.61
49.224999,4.061782,5.92,-0.6,0.46,10.25
49.224976,4.061853,5.54,-0.54,1.36,10.04
49.224976,4.061853,5.54,-0.46,2.75,11.34
49.224952,4.061923,5.52,-0.67,0.83,9.62
49.224952,4.061923,5.52,-1.21,0.91,9.88
49.22493,4.061992,5.8,-0.79,1.48,9.92
49.22493,4.061992,5.8,-1.0,1.51,10.95
49.224905,4.062064,6.12,-0.61,1.36,8.07
49.224905,4.062064,6.12,-0.88,1.55,9.22
49.224881,4.062139,6.54,-0.78,1.98,8.82
49.224855,4.062221,6.97,-1.17,1.96,9.39
49.224855,4.062221,6.97,-0.72,1.65,10.21
49.224826,4.062309,7.64,-0.78,1.96,9.36
49.224826,4.062309,7.64,-1.25,1.91,9.68
49.224792,4.062409,8.57,-0.96,1.89,8.93
49.224792,4.062409,8.57,-0.28,1.49,10.31
49.224757,4.062518,9.08,-0.29,1.74,9.74
49.224757,4.062518,9.08,-0.97,2.01,9.26
49.224719,4.06263,9.44,-0.52,1.3,10.54
49.224719,4.06263,9.44,-0.69,0.97,10.2
49.224681,4.062744,9.13,-0.38,-0.03,9.5
49.224681,4.062744,9.13,-1.06,1.39,8.99
49.224643,4.062854,8.76,-1.1,1.1,9.67
49.224643,4.062854,8.76,-0.72,0.69,9.06
49.224607,4.062959,8.32,-0.8,0.98,9.92
49.224607,4.062959,8.32,-0.87,0.46,10.22
49.224574,4.063057,7.75,-0.59,0.28,9.61
49.224574,4.063057,7.75,-1.03,0.06,9.61
49.224542,4.063147,6.95,-0.71,0.73,10.67
49.224542,4.063147,6.95,-0.78,0.76,9.95
49.224513,4.063228,6.41,-0.68,0.66,10.15
49.224513,4.063228,6.41,-0.98,1.02,10.69
49.224486,4.063303,6.01,-0.65,1.29,9.93
49.224486,4.063303,6.01,-0.64,1.61,9.57
49.224459,4.063372,6.05,-0.74,2.19,10.6
49.224459,4.063372,6.05,-0.93,1.49,9.29
49.224431,4.063446,6.63,-1.39,1.55,9.38
49.224431,4.063446,6.63,-0.79,2.03,10.01
49.2244,4.063527,7.2,-0.5,2.22,10.47
49.2244,4.063527,7.2,-0.79,1.81,10.5
49.224366,4.063617,7.85,-0.79,1.79,9.56
49.224366,4.063617,7.85,-0.78,1.57,10.01
49.224329,4.063714,8.44,-0.77,1.9,9.84
49.224329,4.063714,8.44,-0.38,2.2,8.7
49.22429,4.063817,9.02,-0.62,1.8,10.17
49.22429,4.063817,9.02,-0.23,1.91,9.69
49.224247,4.063925,9.46,-0.96,1.79,9.92
49.224247,4.063925,9.46,-0.7,2.53,9.93
49.2242,4.064038,9.95,-0.44,1.8,10.08
49.2242,4.064038,9.95,-0.49,1.53,9.22
49.224149,4.064156,10.45,-1.13,0.88,9.34
49.224098,4.064281,10.69,-0.4,1.5,9.86
49.224098,4.064281,10.69,-0.38,1.42,9.83
49.224045,4.064406,10.87,0.03,0.83,10.01
49.224045,4.064406,10.87,-0.95,0.85,9.37
49.223988,4.064527,10.49,-0.93,0.4,10.9
49.223988,4.064527,10.49,-0.71,0.88,9.35
49.223934,4.064642,10.27,-0.58,1.33,7.79
49.223934,4.064642,10.27,-0.6,1.51,10.07
49.22388,4.064758,10.52,-0.57,1.77,10.17
49.22388,4.064758,10.52,-0.43,1.76,9.85
49.223823,4.064877,10.84,-0.62,1.87,9.19
49.223823,4.064877,10.84,-0.35,1.48,10.31
49.223767,4.064992,10.15,-0.74,1.65,9.84
49.223767,4.064992,10.15,-0.95,1.51,8.68
49.223705,4.065117,12.12,-1.03,1.22,9.13
49.223705,4.065117,12.12,-0.47,1.17,10.58
49.223643,4.065244,11.38,-0.5,1.06,9.31
49.223643,4.065244,11.38,-0.49,1.3,10.28
49.223579,4.065388,12.39,-0.92,1.33,9.55
49.223579,4.065388,12.39,-0.63,1.61,9.41
49.223514,4.065527,12.06,-0.99,0.54,11.16
49.223514,4.065527,12.06,-0.64,0.98,9.68
49.223436,4.065654,11.94,-0.63,1.01,8.39
49.223436,4.065654,11.94,-0.97,0.72,10.78
49.223357,4.065774,11.66,-0.53,0.18,10.37
49.223357,4.065774,11.66,-0.56,0.7,9.74
49.223283,4.065887,11.05,-1.0,0.55,8.75
49.223283,4.065887,11.05,-0.22,0.51,10.29
49.223216,4.06599,10.42,0.16,0.8,9.5
49.223216,4.06599,10.42,-0.14,0.88,9.67
49.223157,4.066085,9.93,0.5,0.95,9.06
49.223157,4.066085,9.93,0.41,1.28,10.59
49.223093,4.066172,9.76,0.67,1.61,10.26
49.223093,4.066172,9.76,0.85,1.42,10.17
49.223025,4.066249,9.77,0.8,1.37,9.94
49.223025,4.066249,9.77,0.91,1.52,10.64
49.222946,4.066309,9.84,0.78,1.38,11.36
49.222946,4.066309,9.84,1.47,1.73,10.92
49.222862,4.066347,9.97,1.75,1.32,10.2
49.222862,4.066347,9.97,1.43,1.12,10.14
49.222771,4.066358,9.81,1.53,1.03,10.17
49.222681,4.066329,9.84,0.84,1.43,10.25
49.222681,4.066329,9.84,1.25,2.4,8.6
49.222596,4.066275,9.53,1.39,1.36,10.54
49.222596,4.066275,9.53,1.62,1.27,9.83
49.222518,4.066193,9.63,1.22,1.63,10.28
49.222518,4.066193,9.63,1.24,1.74,11.01
49.22245,4.066085,9.78,1.28,1.64,9.27
49.22245,4.066085,9.78,0.83,1.5,9.02
49.2224,4.065959,9.97,1.04,1.49,9.72
49.2224,4.065959,9.97,1.31,1.55,10.19
49.222367,4.065818,9.97,1.17,1.24,9.99
49.222367,4.065818,9.97,1.65,2.03,9.34
49.222356,4.065676,9.74,1.11,1.37,11.89
49.222356,4.065676,9.74,0.95,1.21,8.67
49.222365,4.065534,9.58,1.41,1.72,10.08
49.222365,4.065534,9.58,0.74,1.42,9.74
49.222392,4.0654,9.4,0.88,2.15,8.48
49.222392,4.0654,9.4,1.3,1.73,10.93
49.222439,4.065283,9.58,1.24,1.66,10.15
49.222439,4.065283,9.58,0.91,0.88,8.94
49.222502,4.065181,9.84,1.53,1.87,9.65
49.222502,4.065181,9.84,1.36,1.32,9.58
49.222579,4.065102,10.13,1.51,2.0,8.53
49.222579,4.065102,10.13,1.77,2.66,9.8
49.222668,4.065048,10.53,0.97,2.28,11.22
49.222668,4.065048,10.53,1.85,1.7,10.22
49.222768,4.065023,11.2,0.72,1.89,10.95
49.222768,4.065023,11.2,0.5,1.8,8.82
49.222877,4.065021,11.91,1.0,2.58,11.2
49.222877,4.065021,11.91,1.45,2.38,11.28
49.222994,4.065038,12.69,0.73,1.76,10.17
49.222994,4.065038,12.69,0.36,2.74,9.99
49.223116,4.065082,13.55,-0.71,2.11,9.93
49.223116,4.065082,13.55,-1.13,2.27,10.39
49.22324,4.065141,14.4,-0.31,2.49,10.08
49.22324,4.065141,14.4,-0.6,2.28,8.87
49.22337,4.065204,15.13,-0.75,1.51,11.19
49.22337,4.065204,15.13,-0.81,1.23,9.48
49.223505,4.065269,15.44,-0.86,1.47,8.55
49.223505,4.065269,15.44,-0.4,1.65,8.79
49.223638,4.065336,15.56,-0.49,1.54,10.82
49.223638,4.065336,15.56,-0.4,2.17,9.2
49.223774,4.065402,15.88,-0.89,1.63,8.91
49.223912,4.06547,16.48,-0.81,1.53,8.26
49.223912,4.06547,16.48,0.23,2.34,6.35
49.224056,4.065539,16.93,-0.37,1.71,8.22
49.224056,4.065539,16.93,-0.34,1.15,11.27
49.224205,4.065608,17.49,-1.02,2.0,9.13
49.224205,4.065608,17.49,-0.14,2.33,9.47
49.22436,4.065678,18.06,-0.41,1.24,9.01
49.22436,4.065678,18.06,-0.27,2.26,9.08
49.224521,4.065751,18.57,-0.72,1.55,9.05
49.224521,4.065751,18.57,-0.85,2.18,8.68
49.224682,4.065826,18.94,-0.35,1.7,10.15
49.224682,4.065826,18.94,-0.79,0.99,10.69
49.224845,4.065901,19.0,-0.58,0.88,8.74
49.224845,4.065901,19.0,-0.5,1.66,7.91
49.22501,4.065978,19.15,-0.9,1.94,10.35
49.22501,4.065978,19.15,-0.28,1.38,11.12
49.225178,4.066054,19.25,-0.83,1.27,8.84
49.225178,4.066054,19.25,-0.07,1.59,9.59
49.225345,4.066133,19.54,-0.21,1.01,9.82
49.225345,4.066133,19.54,0.04,1.66,5.22
49.225516,4.066212,19.74,0.31,1.56,12.46
49.225516,4.066212,19.74,-0.85,0.7,10.43
49.225688,4.06629,20.02,-0.53,1.58,10.12
49.225688,4.06629,20.02,-0.4,1.12,8.5
49.225863,4.066369,20.26,-1.55,1.31,9.95
49.225863,4.066369,20.26,-0.22,1.43,12.01
49.22604,4.066448,20.54,-0.76,0.87,10.18
49.22604,4.066448,20.54,-0.27,1.95,9.76
49.226218,4.066528,20.63,-0.98,0.31,9.84
49.226218,4.066528,20.63,-0.77,0.32,8.77
49.226395,4.066607,20.39,-0.93,0.72,10.98
49.226395,4.066607,20.39,-0.96,1.16,9.08
49.226569,4.066686,20.02,-1.18,1.37,10.13
49.226569,4.066686,20.02,-0.41,0.69,8.83
49.226741,4.066764,19.62,-0.58,1.53,9.07
49.226741,4.066764,19.62,-0.65,1.21,9.21
49.226909,4.066839,19.17,-0.51,0.91,7.65
49.226909,4.066839,19.17,-1.16,1.5,9.01
49.227072,4.066913,18.75,-1.52,0.77,11.89
49.227072,4.066913,18.75,-1.16,0.84,8.8
49.227231,4.066987,18.28,-1.1,0.46,8.84
49.227231,4.066987,18.28,-0.77,0.6,10.31
49.227386,4.067057,17.7,-0.63,0.78,10.43
49.227536,4.067125,17.18,-0.11,1.34,10.07
49.227536,4.067125,17.18,0.14,1.85,9.05
49.227683,4.067193,17.43,-0.65,2.01,9.47
49.227683,4.067193,17.43,0.03,1.37,9.73
49.227833,4.067268,17.75,-0.59,1.21,10.91
49.227833,4.067268,17.75,-0.95,2.15,9.17
49.227985,4.067346,17.91,-0.68,2.04,9.83
49.227985,4.067346,17.91,-1.08,0.6,9.68
49.228139,4.067423,18.12,-0.86,0.64,10.49
49.228139,4.067423,18.12,-0.8,1.0,8.75
49.228291,4.067504,17.78,-0.89,1.15,9.71
49.228291,4.067504,17.78,-0.1,2.11,8.93
49.228443,4.067579,17.99,-0.51,2.04,8.62
49.228443,4.067579,17.99,-0.65,1.71,8.65
49.228597,4.067653,18.25,-0.24,1.68,9.5
49.228597,4.067653,18.25,0.73,2.01,10.77
49.228755,4.067726,18.47,-1.06,1.36,10.62
49.228755,4.067726,18.47,-0.3,1.94,9.5
49.228916,4.067803,18.87,-1.1,1.51,11.03
49.228916,4.067803,18.87,0.3,1.54,9.83
49.229082,4.067881,19.18,-0.12,1.42,7.53
49.229082,4.067881,19.18,0.01,1.87,9.09
49.22925,4.067968,19.18,-0.07,1.76,9.78
49.22925,4.067968,19.18,0.04,2.26,8.72
49.229413,4.068066,19.52,0.26,1.61,8.89
49.229413,4.068066,19.52,-0.23,2.26,8.34
49.229574,4.068176,19.87,0.2,2.08,13.18
49.229574,4.068176,19.87,0.82,1.85,11.16
49.229731,4.068302,20.22,0.61,1.95,7.75
49.229731,4.068302,20.22,0.73,1.22,9.92
49.229882,4.068451,20.5,0.51,1.19,10.91
49.229882,4.068451,20.5,0.57,1.31,7.74
49.230041,4.068605,20.47,0.45,1.49,8.24
49.230041,4.068605,20.47,0.9,0.54,10.47
49.230193,4.068771,20.58,1.07,1.01,8.84
49.230193,4.068771,20.58,-0.02,1.19,9.19
49.23034,4.068949,20.13,-0.2,0.49,10.64
49.23034,4.068949,20.13,0.13,1.59,8.94
49.230482,4.06913,19.81,1.11,1.76,10.07
49.230482,4.06913,19.81,0.73,0.45,9.89
49.230615,4.069319,19.79,0.62,1.74,8.39
49.230737,4.069524,19.85,0.66,-0.23,8.98
49.230737,4.069524,19.85,0.42,1.25,7.58
49.230851,4.069729,20.1,0.58,1.0,7.24
49.230851,4.069729,20.1,0.18,1.22,7.39
49.230962,4.069956,20.63,-0.29,1.61,10.11
49.230962,4.069956,20.63,-0.43,1.17,8.83
49.231068,4.070188,20.77,-0.65,1.37,11.09
49.231068,4.070188,20.77,-0.82,1.78,10.34
49.231171,4.070428,21.05,-0.96,0.86,11.22
49.231171,4.070428,21.05,-0.56,1.7,10.53
49.231277,4.070667,21.36,-0.48,2.06,11.3
49.231277,4.070667,21.36,-0.42,1.27,9.27
49.231384,4.070912,21.36,-1.42,0.12,10.16
49.231384,4.070912,21.36,-0.33,1.5,9.03
49.231493,4.071153,21.18,-0.53,0.74,9.51
49.231493,4.071153,21.18,-1.37,0.73,9.89
49.231599,4.071392,20.92,-1.16,1.18,9.65
49.231599,4.071392,20.92,-1.65,1.16,11.63
49.231701,4.071628,20.86,-1.15,1.82,10.45
49.231701,4.071628,20.86,-1.96,1.11,9.95
49.23181,4.071857,20.95,-2.03,1.02,9.14
49.23181,4.071857,20.95,-1.4,1.04,10.14
49.231925,4.072085,21.25,-1.5,1.07,8.74
49.231925,4.072085,21.25,-1.47,1.28,10.28
49.232058,4.072304,21.41,-1.58,0.99,9.96
49.232058,4.072304,21.41,-1.52,1.24,10.06
49.232194,4.072516,21.43,-1.98,1.69,9.09
49.232194,4.072516,21.43,-2.01,1.57,9.11
49.232337,4.072716,21.57,-1.3,1.93,10.84
49.232337,4.072716,21.57,-1.5,1.58,9.08
49.23249,4.072902,21.65,-1.63,1.67,9.52
49.23249,4.072902,21.65,-1.77,1.07,11.74
49.232645,4.073083,21.8,-1.48,1.81,8.99
49.232645,4.073083,21.8,-1.55,0.67,9.86
49.232805,4.073249,21.88,-1.59,0.96,10.27
49.232805,4.073249,21.88,-1.05,2.0,9.72
49.232973,4.073412,21.85,-0.71,1.88,9.99
49.232973,4.073412,21.85,-0.58,1.31,10.29
49.233142,4.073568,21.82,-0.8,1.32,8.88
49.233142,4.073568,21.82,-0.81,1.25,8.78
49.233315,4.073715,21.85,-0.52,1.26,10.69
49.233315,4.073715,21.85,-1.0,0.62,11.95
49.233487,4.07386,21.82,-0.36,0.86,11.62
49.233653,4.074004,21.29,0.36,0.64,10.35
49.233653,4.074004,21.29,-0.46,1.21,10.37
49.233815,4.074145,20.47,-0.4,1.17,9.82
49.233815,4.074145,20.47,-0.52,1.0,9.87
49.233969,4.074282,19.5,-0.63,0.59,10.23
49.233969,4.074282,19.5,-1.38,0.6,10.84
49.234117,4.074414,18.8,-1.28,0.31,6.7
49.234117,4.074414,18.8,-0.73,1.11,9.79
49.234256,4.074544,18.2,-0.87,0.53,10.72
49.234256,4.074544,18.2,-0.3,0.73,7.66
49.234391,4.074663,17.21,-0.98,0.16,10.19
49.234391,4.074663,17.21,-1.01,0.05,11.57
49.234519,4.074778,16.1,-0.33,0.09,9.0
49.234519,4.074778,16.1,0.92,0.13,9.46
49.234636,4.074885,14.42,0.83,-0.03,10.71
49.234636,4.074885,14.42,1.67,0.07,9.39
49.234741,4.074998,13.13,2.02,0.31,9.31
49.234741,4.074998,13.13,2.6,0.79,10.73
49.234829,4.075121,12.3,2.6,1.17,8.47
49.234829,4.075121,12.3,2.48,1.21,9.37
49.234882,4.075265,11.97,2.83,1.48,10.68
49.234882,4.075265,11.97,2.02,1.24,8.92
49.234901,4.075425,11.95,1.83,2.04,9.45
49.234901,4.075425,11.95,1.92,2.01,10.06
49.234893,4.075588,12.13,2.62,2.79,9.28
49.234893,4.075588,12.13,1.1,2.66,9.71
49.234865,4.075755,12.98,0.6,2.55,9.83
49.234865,4.075755,12.98,-0.14,3.28,9.29
49.234815,4.075933,14.48,-0.12,3.21,9.82
49.234815,4.075933,14.48,-0.97,2.73,9.74
49.234751,4.076121,15.83,-0.38,2.65,10.64
49.234751,4.076121,15.83,-0.76,3.38,9.62
49.234679,4.076326,16.98,-1.23,3.11,9.61
49.234679,4.076326,16.98,-1.3,2.6,9.9
49.23461,4.076545,18.07,-1.08,3.02,8.93
49.23461,4.076545,18.07,-1.52,2.29,11.13
49.234543,4.076781,19.17,-0.1,2.26,8.52
49.234543,4.076781,19.17,-0.38,1.76,8.03
49.234478,4.077029,20.07,-0.42,2.16,10.27
49.234478,4.077029,20.07,0.04,1.99,10.41
49.234402,4.07729,20.97,0.05,2.55,9.29
49.234319,4.07756,21.78,-0.75,2.53,10.18
49.234319,4.07756,21.78,-1.06,1.57,8.72
49.234228,4.077838,22.46,-1.0,2.77,9.59
49.234228,4.077838,22.46,-0.14,1.63,9.59
49.234139,4.078124,23.07,-0.4,1.9,9.77
49.234139,4.078124,23.07,-1.13,1.8,10.79
49.234049,4.078416,23.48,-0.72,1.58,8.15
49.234049,4.078416,23.48,-1.13,1.76,10.4
49.233958,4.07871,23.95,-0.96,1.71,9.86
49.233958,4.07871,23.95,-0.57,1.21,9.98
49.233866,4.07901,24.13,-0.93,1.15,9.34
49.233866,4.07901,24.13,-1.12,0.77,8.68
49.233774,4.079311,24.46,-0.79,0.68,6.82
49.233774,4.079311,24.46,-0.02,1.67,10.72
49.233683,4.079615,24.73,-1.83,1.26,9.26
49.233683,4.079615,24.73,-1.23,0.98,11.29
49.233592,4.079925,25.06,-0.77,1.94,9.05
49.233592,4.079925,25.06,-0.29,0.35,10.27
49.233504,4.080242,25.23,-1.09,0.2,10.04
49.233504,4.080242,25.23,-0.5,1.17,9.07
49.233415,4.080557,25.09,0.14,1.81,11.72
49.233415,4.080557,25.09,-0.3,1.15,9.99
49.233325,4.080872,25.16,-0.54,1.58,9.33
49.233325,4.080872,25.16,-0.82,0.6,10.44
49.233232,4.081185,25.24,0.35,1.51,10.39
49.233232,4.081185,25.24,-0.58,1.53,10.63
49.233139,4.081501,25.33,-0.42,2.35,16.88
49.233139,4.081501,25.33,-0.48,1.46,7.81
49.233043,4.081817,25.37,-0.83,0.92,10.74
49.233043,4.081817,25.37,-1.35,0.87,9.47
49.232946,4.082137,25.43,-1.04,0.22,11.43
49.232946,4.082137,25.43,-0.98,1.07,8.04
49.23285,4.082452,25.23,-0.27,1.41,12.12
49.23285,4.082452,25.23,-0.61,0.89,8.52
49.232753,4.082766,25.06,0.1,1.0,11.15
49.232753,4.082766,25.06,-0.12,1.65,7.44
49.232658,4.083079,25.05,-1.13,1.25,12.9
49.232658,4.083079,25.05,-1.38,0.82,9.61
49.232562,4.08339,24.96,-1.08,1.26,10.32
49.232469,4.0837,24.93,-0.59,0.55,11.93
49.232469,4.0837,24.93,-0.36,1.25,9.51
49.232375,4.084011,24.95,-0.55,1.93,6.96
49.232375,4.084011,24.95,-0.5,1.03,11.73
49.232281,4.084323,24.96,-1.19,1.11,9.53
49.232281,4.084323,24.96,-0.97,1.04,13.39
49.232192,4.084636,24.79,-0.86,1.33,10.18
49.232192,4.084636,24.79,0.16,2.02,9.26
49.2321,4.084947,24.85,0.34,1.72,10.53
49.2321,4.084947,24.85,-0.14,0.88,9.93
49.232006,4.085256,24.8,-0.03,0.99,8.25
49.232006,4.085256,24.8,-0.84,0.88,10.73
49.231912,4.085564,24.8,-0.19,0.36,10.88
49.231912,4.085564,24.8,-1.37,0.86,12.65
49.231817,4.085872,24.62,-1.37,1.27,11.73
49.231817,4.085872,24.62,0.04,2.1,10.68
49.231723,4.086179,24.58,-0.29,2.05,7.79
49.231723,4.086179,24.58,0.0,1.76,8.7
49.23163,4.086489,24.61,-0.1,1.75,11.95
49.23163,4.086489,24.61,-0.55,1.56,10.01
49.231537,4.086793,24.68,-0.86,1.94,10.67
49.231537,4.086793,24.68,1.21,1.47,9.72
49.231441,4.087102,24.66,-0.14,1.02,11.3
49.231441,4.087102,24.66,-0.28,1.46,12.18
49.231344,4.087407,24.59,-0.25,1.47,13.24
49.231344,4.087407,24.59,-0.85,1.3,8.08
49.231245,4.08771,24.68,-0.73,1.18,9.42
49.231245,4.08771,24.68,-0.83,0.71,10.37
49.231142,4.088011,24.72,-0.3,0.86,13.95
49.231142,4.088011,24.72,-0.74,2.12,7.5
49.231046,4.088314,24.78,0.17,1.53,6.41
49.231046,4.088314,24.78,-0.61,1.8,11.36
49.230952,4.088618,24.74,-0.09,1.32,10.42
49.230952,4.088618,24.74,-0.41,1.07,9.4
49.230855,4.088923,24.73,-1.06,1.75,7.43
49.230855,4.088923,24.73,-0.46,-1.36,8.3
49.230756,4.089235,24.71,-1.8,0.29,12.0
49.230756,4.089235,24.71,-0.78,0.78,9.77
49.230662,4.089542,24.71,-0.17,1.24,9.16
49.230662,4.089542,24.71,-0.77,1.05,8.49
49.230567,4.089848,24.64,-0.72,0.32,9.68
49.230567,4.089848,24.64,-0.71,0.36,5.41
49.230473,4.090151,24.36,0.25,1.72,9.97
49.230382,4.090447,24.29,-0.97,0.51,12.01
49.230382,4.090447,24.29,-0.83,0.91,11.6
49.230288,4.090746,24.32,-0.2,0.89,11.16
49.230288,4.090746,24.32,0.01,1.39,1.91
49.230197,4.091047,24.39,-1.33,0.03,10.33
49.230197,4.091047,24.39,0.17,-0.05,10.09
49.230103,4.09135,24.31,0.08,1.11,9.37
49.230103,4.09135,24.31,-0.13,1.75,11.23
49.230009,4.091649,24.38,-0.88,0.91,11.98
49.230009,4.091649,24.38,-0.31,1.31,11.35
49.229913,4.091951,24.55,-0.84,0.89,10.06
49.229913,4.091951,24.55,-0.55,0.53,7.52
49.229818,4.092254,24.5,-0.86,0.56,9.91
49.229818,4.092254,24.5,-0.63,0.54,8.02
49.229727,4.092554,24.23,-0.65,1.58,7.35
49.229727,4.092554,24.23,-0.02,1.28,9.79
49.229637,4.092852,24.03,-0.88,0.53,9.65
49.229637,4.092852,24.03,-0.38,0.69,8.15
49.229545,4.093152,23.84,0.01,0.71,11.58
49.229545,4.093152,23.84,-0.3,0.81,10.05
49.229453,4.093446,23.52,-0.91,-0.22,11.22
49.229453,4.093446,23.52,-0.76,-0.0,9.68
49.229362,4.093735,22.77,-0.8,0.47,9.18
49.229362,4.093735,22.77,-1.09,0.39,12.19
49.229273,4.094013,21.91,-0.74,0.12,10.51
49.229273,4.094013,21.91,-0.49,0.46,12.27
49.229189,4.094277,21.07,-0.91,-0.01,11.82
49.229189,4.094277,21.07,-0.72,-0.51,8.09
49.229108,4.094534,20.4,-0.57,-0.01,9.0
49.229108,4.094534,20.4,-0.96,0.56,8.49
49.229027,4.094784,19.92,0.37,1.08,9.04
49.229027,4.094784,19.92,-0.34,0.78,10.69
49.228951,4.095026,19.28,-1.32,0.09,10.87
49.228951,4.095026,19.28,0.26,0.2,9.55
49.228876,4.09526,18.73,0.02,0.77,11.18
49.228876,4.09526,18.73,-0.49,0.38,9.19
49.228802,4.095486,18.26,-1.51,-0.08,10.44
49.228802,4.095486,18.26,-0.51,1.11,10.05
49.228733,4.095705,17.68,-1.0,1.18,10.33
49.228666,4.095916,17.06,-0.51,0.36,10.12
49.228666,4.095916,17.06,-0.09,-1.46,9.0
49.228594,4.096128,16.57,-0.61,0.13,11.58
49.228594,4.096128,16.57,-0.18,-1.13,6.79
49.228529,4.096328,15.65,-2.54,-0.66,9.78
49.228529,4.096328,15.65,-0.88,-0.3,9.79
49.228468,4.096514,14.48,-0.65,-0.53,9.7
49.228468,4.096514,14.48,-1.0,-0.83,10.06
49.228413,4.096682,13.18,-0.96,-1.26,10.63
49.228413,4.096682,13.18,-1.72,-0.29,9.91
49.228363,4.096838,12.2,-1.25,1.62,9.89
49.228363,4.096838,12.2,-1.05,1.27,9.75
49.22832,4.096989,12.19,-1.25,0.95,8.96
49.22832,4.096989,12.19,-0.79,0.32,8.83
49.228283,4.097137,11.47,0.3,0.59,11.73
49.228283,4.097137,11.47,0.41,1.33,12.59
49.228248,4.097279,11.62,0.78,1.7,8.54
49.228248,4.097279,11.62,-0.73,1.65,9.21
49.228206,4.097424,11.88,-0.98,1.8,10.52
49.228206,4.097424,11.88,-0.39,0.95,10.25
49.228159,4.097575,11.87,0.03,0.64,8.9
49.228159,4.097575,11.87,-0.48,0.34,9.55
49.22811,4.097724,11.6,-0.81,0.0,8.82
49.22811,4.097724,11.6,-0.6,0.17,9.6
49.228066,4.097864,10.28,-0.79,-0.61,10.86
49.228066,4.097864,10.28,-0.87,-0.59,10.07
49.228026,4.097982,8.26,-0.85,0.04,10.19
49.228026,4.097982,8.26,-0.66,0.51,10.04
49.227999,4.098077,7.56,-0.26,1.0,9.2
49.227999,4.098077,7.56,-0.23,0.37,10.25
49.227972,4.098165,6.74,-0.99,0.37,9.69
49.227972,4.098165,6.74,-0.79,0.34,9.83
49.227948,4.098245,5.9,-0.53,0.2,9.93
49.227948,4.098245,5.9,-0.83,0.17,10.1
49.22793,4.098307,4.94,-0.45,-0.33,9.64
49.22793,4.098307,4.94,-0.68,-0.71,9.82
49.227912,4.098363,3.56,-0.4,-0.1,9.55
49.227912,4.098363,3.56,-0.39,-0.09,10.22
49.227912,4.098363,0.0,-0.4,1.34,9.4
49.227912,4.098363,0.0,-0.58,2.74,9.28
49.227912,4.098363,0.0,-0.22,2.82,9.18
49.227912,4.098363,0.0,-0.45,1.9,10.19
49.227891,4.098439,2.84,-0.84,1.97,9.6
49.227883,4.098476,3.29,-0.73,0.97,10.45
49.227883,4.098476,3.29,-0.71,0.52,10.01
49.227869,4.09851,2.74,-0.78,0.13,9.58
49.227869,4.09851,2.74,-0.57,-0.61,10.02
49.227869,4.09851,0.0,-0.61,-0.09,10.27
49.227869,4.09851,0.0,-0.64,0.85,9.81
49.227869,4.09851,0.0,-0.62,1.24,9.77
49.227869,4.09851,0.0,-0.59,1.17,9.83
49.227869,4.09851,0.0,-0.63,1.07,9.88
49.227869,4.09851,0.0,-0.62,1.61,9.75
49.227869,4.09851,0.0,-0.62,1.98,9.69
49.227869,4.09851,0.0,-0.48,2.52,9.68
49.227869,4.09851,0.0,-0.55,3.09,9.73
49.227869,4.09851,0.0,-0.79,2.89,10.02
49.227843,4.098592,3.16,-0.57,3.88,8.98
49.227843,4.098592,3.16,-0.21,3.41,9.38
49.227827,4.098653,5.99,0.04,2.79,8.74
49.227827,4.098653,5.99,1.11,2.53,8.76
49.227804,4.098738,7.33,2.05,2.58,9.55
49.227804,4.098738,7.33,1.64,1.32,9.26
49.227766,4.098833,8.62,0.65,1.52,10.63
49.227766,4.098833,8.62,-1.57,1.84,9.67
49.227711,4.098915,9.17,-2.16,2.01,10.17
49.227711,4.098915,9.17,-3.88,1.27,9.67
49.227645,4.099005,9.9,-4.0,1.42,9.93
49.227645,4.099005,9.9,-4.31,1.83,9.51
49.227599,4.099124,10.11,-3.85,2.09,9.44
49.227599,4.099124,10.11,-2.36,2.24,9.62
49.22758,4.099267,11.04,1.01,1.8,9.71
49.22758,4.099267,11.04,2.51,1.94,8.98
49.227582,4.099421,11.11,2.85,2.72,8.89
49.227582,4.099421,11.11,1.03,3.02,10.97
49.227576,4.099579,11.91,0.56,3.29,9.2
49.227576,4.099579,11.91,0.77,2.87,9.73
49.227523,4.099743,13.83,-1.4,3.15,10.04
49.227523,4.099743,13.83,-1.59,2.29,10.83
49.227451,4.099922,15.34,-1.94,2.27,10.35
49.227451,4.099922,15.34,-1.78,2.48,10.2
49.227376,4.100116,16.55,-0.58,2.44,8.67
49.227302,4.100327,17.53,-0.4,2.24,10.42
49.227302,4.100327,17.53,-1.01,1.83,8.68
49.227228,4.100553,18.59,-0.31,2.29,10.22
49.227228,4.100553,18.59,0.09,1.93,8.43
49.227155,4.100791,19.44,-0.82,1.72,10.6
49.227155,4.100791,19.44,-0.82,1.83,7.16
49.227074,4.101041,20.18,-0.27,2.06,8.95
49.227074,4.101041,20.18,-0.23,1.5,10.46
49.226993,4.101297,21.03,-0.7,2.43,11.87
49.226993,4.101297,21.03,-0.64,1.15,10.33
49.22691,4.101562,21.64,-1.07,0.97,9.23
49.22691,4.101562,21.64,-0.66,1.5,8.76
49.226823,4.101835,22.12,-0.89,1.61,9.0
49.226823,4.101835,22.12,-0.89,1.91,9.66
49.226735,4.10211,22.56,-0.42,1.29,9.83
49.226735,4.10211,22.56,-0.41,1.65,9.95
49.226648,4.102397,23.03,-0.53,1.21,10.6
49.226648,4.102397,23.03,-0.55,1.3,9.77
49.226564,4.102686,23.44,-0.1,1.5,8.72
49.226564,4.102686,23.44,-0.91,1.74,7.96
49.226477,4.102983,24.02,-0.8,1.01,10.78
49.226477,4.102983,24.02,-0.39,1.02,11.07
49.226385,4.103282,24.5,-0.44,2.49,8.28
49.226385,4.103282,24.5,0.24,1.2,7.45
49.226292,4.103591,24.97,0.0,1.4,12.62
49.226292,4.103591,24.97,0.03,1.43,7.36
49.226195,4.103901,25.39,-1.99,0.83,11.46
49.226195,4.103901,25.39,-0.41,1.89,10.91
49.226091,4.104214,25.88,-0.84,1.3,11.29
49.226091,4.104214,25.88,-1.18,1.4,11.02
49.225985,4.104532,26.15,-1.01,1.43,10.33
49.225985,4.104532,26.15,-1.57,1.28,11.95
49.22588,4.10486,26.4,-0.92,2.66,12.88
49.22588,4.10486,26.4,-0.1,2.26,10.52
49.225773,4.105186,26.7,-0.9,1.29,8.58
49.225773,4.105186,26.7,-0.59,1.52,9.69
49.225666,4.105517,26.86,-0.64,1.61,10.57
49.225666,4.105517,26.86,-0.71,1.25,10.06
49.225561,4.105854,27.0,-0.95,1.85,12.25
49.225561,4.105854,27.0,0.11,1.95,11.2
49.225454,4.106195,27.37,-0.4,1.73,9.53
49.225348,4.10654,27.66,-1.47,1.87,8.03
49.225348,4.10654,27.66,-0.66,1.75,8.83
49.225238,4.106883,27.93,-0.78,1.09,7.91
49.225238,4.106883,27.93,-0.39,1.06,10.31
49.225128,4.107228,28.02,-0.46,1.61,10.21
49.225128,4.107228,28.02,0.5,2.2,9.31
49.225017,4.107577,28.23,-1.39,1.95,9.29
49.225017,4.107577,28.23,-0.55,1.86,9.16
49.224906,4.107931,28.36,-0.93,1.56,12.06
49.224906,4.107931,28.36,-0.72,1.43,9.75
49.224798,4.108277,28.46,-1.28,1.04,9.64
49.224798,4.108277,28.46,-1.34,1.96,8.25
49.224689,4.108627,28.63,0.09,2.18,8.84
49.224689,4.108627,28.63,-0.99,1.43,10.32
49.224581,4.108981,28.7,-1.28,1.18,10.29
49.224581,4.108981,28.7,-0.57,1.08,8.39
49.22447,4.109342,28.94,-1.05,2.05,9.32
49.22447,4.109342,28.94,-1.09,1.42,11.0
49.224359,4.109704,29.14,-0.12,1.5,9.95
49.224359,4.109704,29.14,-0.77,1.17,10.97
49.224245,4.110068,29.29,0.03,1.68,9.85
49.224245,4.110068,29.29,-1.46,1.43,10.22
49.224132,4.11043,29.5,0.71,1.75,9.65
49.224132,4.11043,29.5,-0.84,1.27,9.88
49.224017,4.110799,29.71,-0.79,1.49,9.62
49.224017,4.110799,29.71,-0.06,1.78,10.02
49.2239,4.111171,29.9,0.08,0.97,9.23
49.2239,4.111171,29.9,-1.3,1.3,8.57
49.223785,4.111543,29.89,0.03,1.26,9.46
49.223785,4.111543,29.89,-0.38,1.54,10.51
49.22367,4.111918,29.99,-0.34,1.58,8.68
49.22367,4.111918,29.99,-0.4,1.88,8.08
49.223556,4.112289,30.1,-0.82,1.51,7.57
49.223556,4.112289,30.1,-0.83,1.72,11.11
49.223442,4.112663,30.16,-1.2,2.22,12.08
49.223442,4.112663,30.16,-0.4,1.25,9.03
49.223326,4.113036,30.22,-1.29,1.8,11.21
49.223326,4.113036,30.22,-1.42,1.06,8.44
49.223209,4.113409,30.12,-1.09,0.99,12.33
49.223093,4.113792,30.14,-1.25,0.85,11.37
49.223093,4.113792,30.14,-1.22,0.95,9.35
49.222979,4.114168,30.22,-0.88,2.19,10.34
49.222979,4.114168,30.22,-0.63,0.78,10.75
49.222865,4.114544,30.19,-0.85,0.93,8.52
49.222865,4.114544,30.19,-1.12,1.27,9.59
49.222753,4.114918,30.24,-1.58,1.18,9.01
49.222753,4.114918,30.24,0.51,1.13,10.46
49.222643,4.115294,30.25,-0.7,1.07,8.71
49.222643,4.115294,30.25,-0.97,1.75,11.94
49.222531,4.115672,30.32,-0.57,1.58,7.13
49.222531,4.115672,30.32,-0.32,1.45,8.5
49.222417,4.116049,30.3,-0.23,1.32,9.99
49.222417,4.116049,30.3,-0.45,0.53,9.6
49.222304,4.116427,30.33,-0.87,0.95,11.0
49.222304,4.116427,30.33,0.04,1.02,9.86
49.222188,4.116806,30.26,0.33,1.71,9.17
49.222188,4.116806,30.26,-0.48,1.04,10.33
49.222071,4.117185,30.26,-1.1,1.81,9.19
49.222071,4.117185,30.26,-1.37,0.21,8.68
49.221954,4.117562,30.26,-0.79,1.0,9.74
49.221954,4.117562,30.26,-0.16,1.16,9.82
49.221837,4.117937,30.2,-0.69,1.44,12.22
49.221837,4.117937,30.2,-0.64,1.23,8.67
49.221728,4.118307,30.04,-0.59,1.67,10.58
49.221728,4.118307,30.04,-0.65,1.46,11.76
49.221616,4.11868,29.83,-0.36,0.83,9.15
49.221616,4.11868,29.83,-0.31,-0.45,8.19
49.221502,4.119051,29.84,-0.48,1.18,8.97
49.221502,4.119051,29.84,-1.14,1.33,8.15
49.221391,4.119425,29.62,-0.59,1.47,10.47
49.221391,4.119425,29.62,-0.73,1.19,8.8
49.221276,4.119785,29.54,-0.57,1.51,11.44
49.221276,4.119785,29.54,-0.74,1.46,9.09
49.221163,4.120149,29.43,-0.06,1.09,10.05
49.221163,4.120149,29.43,-0.34,1.3,10.49
49.221048,4.120516,29.37,-0.81,1.4,12.16
49.221048,4.120516,29.37,-0.79,0.43,7.56
49.220934,4.120878,29.25,-0.98,0.5,11.18
49.220934,4.120878,29.25,-1.21,0.35,9.57
49.220822,4.121245,29.21,-1.05,1.12,9.26
49.220709,4.121612,29.11,-0.03,1.47,11.12
49.220709,4.121612,29.11,-0.44,1.45,10.0
49.220599,4.12197,29.03,-0.32,2.24,10.09
49.220599,4.12197,29.03,-0.49,2.7,11.1
49.220488,4.122329,29.01,-1.04,0.92,9.18
49.220488,4.122329,29.01,-1.24,1.53,10.1
49.220377,4.122687,28.95,0.18,1.35,9.58
49.220377,4.122687,28.95,-0.86,1.57,10.02
49.220269,4.123048,28.74,-0.92,1.35,10.51
49.220269,4.123048,28.74,-0.76,1.62,7.56
49.220161,4.123406,28.67,-0.96,0.89,9.78
49.220161,4.123406,28.67,0.4,1.0,9.77
49.220048,4.123759,28.76,-0.67,1.04,10.1
49.220048,4.123759,28.76,-1.19,2.15,10.87
49.219939,4.124115,28.88,-2.22,1.37,10.75
49.219939,4.124115,28.88,0.02,1.24,8.17
49.219827,4.124475,28.86,-0.64,1.53,10.51
49.219827,4.124475,28.86,-0.91,1.71,8.03
49.219715,4.124832,28.94,-0.91,1.06,10.72
49.219715,4.124832,28.94,0.29,2.25,9.77
49.219605,4.12519,28.9,-0.07,1.54,9.44
49.219605,4.12519,28.9,-0.38,1.11,9.69
49.21949,4.12555,28.84,-0.77,1.83,10.14
49.21949,4.12555,28.84,-1.31,1.1,11.64
49.219377,4.125902,28.84,-0.27,1.17,9.08
49.219377,4.125902,28.84,-0.46,1.03,6.61
49.219262,4.126255,28.84,-1.66,2.16,9.17
49.219262,4.126255,28.84,-0.31,1.19,7.86
49.219148,4.126607,28.82,-0.76,1.95,9.66
49.219148,4.126607,28.82,-1.11,2.11,8.49
49.219033,4.126962,28.75,-0.94,1.68,9.42
49.219033,4.126962,28.75,-0.16,1.01,8.63
49.218919,4.127315,28.78,-0.91,1.68,7.99
49.218919,4.127315,28.78,-0.21,1.58,9.09
49.218803,4.127675,28.81,-1.34,1.5,9.32
49.218803,4.127675,28.81,-0.68,0.95,7.65
49.218687,4.128036,28.76,-0.8,1.47,10.9
49.218687,4.128036,28.76,-1.78,0.83,9.35
49.218576,4.128388,28.74,-1.38,1.39,10.07
49.218576,4.128388,28.74,0.28,1.21,10.07
49.218465,4.128743,28.73,-0.73,2.14,11.19
49.218354,4.129098,28.66,-0.92,1.18,10.52
49.218354,4.129098,28.66,-1.35,2.53,9.4
49.218245,4.12945,28.42,-0.58,1.46,7.76
49.218245,4.12945,28.42,-0.29,1.8,9.97
49.218135,4.1298,28.21,-0.9,1.69,9.85
49.218135,4.1298,28.21,-0.22,1.5,9.2
49.218025,4.130153,28.18,0.12,1.79,7.83
49.218025,4.130153,28.18,-0.61,1.75,10.8
49.217913,4.130502,28.18,0.26,2.35,12.49
49.217913,4.130502,28.18,-0.17,2.03,10.12
49.217799,4.130852,28.2,-0.75,1.22,10.02
49.217799,4.130852,28.2,0.07,1.79,8.9
49.217682,4.131194,28.2,-0.44,1.27,9.12
49.217682,4.131194,28.2,0.07,1.26,8.15
49.217568,4.131528,28.19,-0.67,1.28,7.51
49.217568,4.131528,28.19,-1.08,1.61,7.71
49.21745,4.131853,28.28,0.01,1.57,8.47
49.21745,4.131853,28.28,0.87,1.52,10.01
49.217325,4.132173,28.29,0.45,1.31,12.36
49.217325,4.132173,28.29,1.45,1.69,10.27
49.217191,4.132495,28.38,1.12,1.42,9.42
49.217191,4.132495,28.38,0.83,1.69,10.45
49.217045,4.132817,28.48,0.19,0.91,11.25
49.217045,4.132817,28.48,-0.09,2.12,8.27
49.216892,4.133135,28.74,-0.26,1.71,8.29
49.216892,4.133135,28.74,0.73,1.21,9.36
49.216736,4.133452,29.07,-0.17,0.45,8.2
49.216736,4.133452,29.07,0.01,2.45,11.64
49.216571,4.133768,29.32,0.6,0.73,8.04
49.216571,4.133768,29.32,-0.71,0.91,8.67
49.216402,4.13408,29.58,0.8,1.22,11.64
49.216402,4.13408,29.58,-0.1,1.07,8.21
49.21623,4.134394,29.99,0.55,0.73,9.83
49.21623,4.134394,29.99,-0.7,1.93,11.02
49.216051,4.134703,30.45,-1.03,1.57,9.82
49.216051,4.134703,30.45,-0.03,1.47,7.92
49.215861,4.135011,30.77,0.19,0.6,10.88
49.215861,4.135011,30.77,-0.38,1.9,5.97
49.215666,4.135318,31.11,-0.69,1.24,10.36
49.215666,4.135318,31.11,-0.54,0.67,11.2
49.215467,4.135615,31.18,-0.7,1.24,10.6
49.215467,4.135615,31.18,-0.9,0.68,10.07
49.215269,4.135921,31.19,-1.15,0.49,8.51
49.215073,4.136227,31.2,-0.2,0.71,8.45
49.215073,4.136227,31.2,-0.57,0.21,10.19
49.214876,4.136529,30.95,-1.0,1.2,11.04
49.214876,4.136529,30.95,-1.28,0.6,7.61
49.214686,4.136835,30.87,-2.3,0.06,8.95
49.214686,4.136835,30.87,-0.91,0.07,9.15
49.214493,4.137137,30.57,0.29,0.35,7.5
49.214493,4.137137,30.57,-1.44,0.56,7.74
49.214302,4.137434,30.18,-0.17,0.8,11.31
49.214302,4.137434,30.18,-0.83,0.76,12.15
49.214115,4.137731,29.97,-2.1,0.53,10.91
49.214115,4.137731,29.97,-0.95,0.42,9.9
49.213931,4.138025,29.44,-0.75,0.24,10.1
49.213931,4.138025,29.44,0.12,1.06,9.8
49.213749,4.138319,29.14,0.34,0.62,8.85
49.213749,4.138319,29.14,-0.43,-0.08,10.44
49.213565,4.138602,28.71,-1.07,0.45,9.15
49.213565,4.138602,28.71,-0.77,0.63,8.63
49.213381,4.138876,28.56,-0.14,0.91,10.19
49.213381,4.138876,28.56,-1.01,1.22,12.07
49.213201,4.139153,28.14,-1.16,0.0,9.11
49.213201,4.139153,28.14,-0.83,1.76,10.76
49.213023,4.139428,27.75,-1.34,0.76,13.04
49.213023,4.139428,27.75,-0.36,0.76,9.98
49.212849,4.139702,27.68,0.69,1.54,10.38
49.212849,4.139702,27.68,-0.88,0.37,11.2
49.212675,4.139973,27.52,0.09,0.35,8.97
49.212675,4.139973,27.52,-0.04,1.43,10.34
49.212501,4.14024,27.3,-0.94,0.9,8.85
49.212501,4.14024,27.3,-0.7,-0.12,10.03
49.212331,4.140507,26.93,-0.24,0.85,8.01
49.212331,4.140507,26.93,-1.18,0.89,11.29
49.212162,4.140767,26.45,-0.35,1.05,11.2
49.212162,4.140767,26.45,-1.12,0.17,9.88
49.211993,4.141022,25.98,-1.6,1.3,13.22
49.211993,4.141022,25.98,-0.17,1.0,8.29
49.211829,4.141272,25.41,-1.75,-0.36,10.05
49.211829,4.141272,25.41,-1.21,0.88,8.05
49.211671,4.141516,24.79,-0.56,1.13,8.56
49.211671,4.141516,24.79,-0.93,0.43,9.83
49.211516,4.141757,24.23,-0.9,0.78,8.98
49.211516,4.141757,24.23,-0.54,0.25,9.74
49.211364,4.141989,23.28,-0.29,-0.56,9.53
49.21122,4.142209,22.44,-0.89,-0.08,9.95
49.21122,4.142209,22.44,-0.76,-0.49,9.88
49.211081,4.142422,21.69,-0.91,0.82,10.14
49.211081,4.142422,21.69,-0.22,0.35,10.93
49.210945,4.142628,20.91,0.81,0.35,10.21
49.210945,4.142628,20.91,-0.68,-1.93,14.72
49.210816,4.142823,20.2,-1.82,0.89,11.05
49.210816,4.142823,20.2,-0.81,0.9,7.66
49.21069,4.143014,19.35,-1.13,0.91,10.14
49.21069,4.143014,19.35,-0.35,-0.02,9.7
49.21057,4.143198,18.52,-0.97,0.08,11.25
49.21057,4.143198,18.52,-0.97,0.59,10.63
49.210456,4.143375,17.75,-0.34,0.61,9.33
49.210456,4.143375,17.75,-1.04,0.92,10.4
49.210344,4.143545,16.98,0.98,1.5,10.63
49.210344,4.143545,16.98,0.44,0.8,6.91
49.210239,4.143707,16.54,0.57,-0.28,10.22
49.210239,4.143707,16.54,-0.54,0.39,9.17
49.210136,4.143864,15.58,-0.16,0.4,10.52
49.210136,4.143864,15.58,-0.19,0.51,10.29
49.21004,4.144012,14.86,-0.27,-0.04,9.97
49.21004,4.144012,14.86,-0.75,-0.26,10.27
49.209949,4.144148,13.86,-0.88,0.28,9.78
49.209949,4.144148,13.86,0.13,0.38,9.29
49.209864,4.144271,12.45,-0.61,-0.68,9.88
49.209864,4.144271,12.45,0.65,0.09,8.48
49.20979,4.144375,10.66,-0.59,-1.43,8.49
49.20979,4.144375,10.66,-0.04,-0.52,10.34
49.209725,4.144458,8.83,-0.29,-0.8,9.33
49.209725,4.144458,8.83,-0.05,-0.68,10.0
49.209673,4.144523,7.04,0.51,0.56,9.52
49.209673,4.144523,7.04,0.51,1.1,8.65
49.20962,4.144563,5.99,0.64,2.32,10.28
49.20962,4.144563,5.99,1.61,2.58,9.61
49.209554,4.144595,6.72,1.74,1.63,11.24
49.209554,4.144595,6.72,1.05,2.53,10.27
49.209488,4.144614,7.69,-0.54,2.04,9.7
49.209488,4.144614,7.69,0.06,2.26,9.98
49.209404,4.144612,9.08,-2.43,1.51,10.25
49.209404,4.144612,9.08,-3.44,0.26,10.92
49.209311,4.144598,9.86,-3.24,1.12,9.3
49.209311,4.144598,9.86,-3.7,1.79,10.43
49.209219,4.144609,9.58,-3.31,0.89,8.83
49.209145,4.144662,9.55,-3.69,0.48,10.11
49.209145,4.144662,9.55,-3.35,-0.22,8.97
49.20909,4.144764,8.79,-2.75,0.68,9.84
49.20909,4.144764,8.79,-3.1,0.4,8.39
49.209055,4.144873,8.87,-3.21,0.91,10.34
49.209055,4.144873,8.87,-2.84,0.26,10.08
49.209037,4.144984,8.42,-2.17,0.77,9.34
49.209037,4.144984,8.42,-1.78,1.24,8.83
49.20903,4.145097,8.56,-1.74,1.18,8.98
49.20903,4.145097,8.56,-0.1,1.93,10.61
49.209029,4.145214,8.85,1.13,1.53,9.73
49.209029,4.145214,8.85,0.48,1.49,9.59
49.20903,4.145334,9.16,1.3,0.98,10.18
49.20903,4.145334,9.16,1.45,2.03,10.55
49.20902,4.145457,9.66,1.07,1.92,9.87
49.20902,4.145457,9.66,1.36,1.89,10.03
49.208989,4.145581,10.3,0.79,1.39,10.02
49.208989,4.145581,10.3,0.77,2.25,9.96
49.208934,4.1457,11.0,0.16,2.44,9.68
49.208934,4.1457,11.0,-0.26,2.0,8.04
49.208865,4.145819,11.96,-0.97,1.92,9.5
49.208865,4.145819,11.96,-0.44,2.27,9.88
49.208776,4.145948,12.74,-1.78,1.31,9.08
49.208776,4.145948,12.74,-0.23,1.94,9.69
49.208687,4.146078,13.6,-0.05,1.5,10.63
49.208687,4.146078,13.6,-1.01,0.92,10.7
49.2086,4.146217,13.99,0.07,1.66,11.32
49.2086,4.146217,13.99,-0.39,1.74,11.41
49.208511,4.146359,14.34,-0.71,2.08,8.29
49.208511,4.146359,14.34,-0.66,1.24,8.99
49.208419,4.146506,14.86,-1.54,1.83,7.94
49.208419,4.146506,14.86,-0.1,1.45,12.04
49.208324,4.146655,15.45,-0.85,1.85,10.75
49.208324,4.146655,15.45,0.12,2.34,9.51
49.208224,4.146808,16.0,-0.48,0.75,9.92
49.208224,4.146808,16.0,-0.59,1.39,10.08
49.208122,4.146966,16.15,0.0,1.28,9.3
49.208122,4.146966,16.15,-1.15,0.82,10.48
49.20802,4.147124,15.89,-1.12,1.58,8.58
49.207918,4.147278,15.98,-0.34,0.95,9.83
49.207918,4.147278,15.98,-0.25,1.78,9.93
49.207815,4.147434,16.26,-1.22,1.15,10.2
49.207815,4.147434,16.26,-1.19,0.92,10.28
49.207708,4.147594,16.7,-0.67,1.24,7.01
49.207708,4.147594,16.7,-0.64,1.35,9.57
49.2076,4.14776,17.19,-0.8,1.34,11.17
49.2076,4.14776,17.19,-0.26,1.84,9.48
49.207488,4.14793,17.68,-1.2,2.08,9.68
49.207488,4.14793,17.68,-0.19,1.74,9.03
49.207374,4.148104,18.12,-0.83,1.9,9.15
49.207374,4.148104,18.12,-0.7,0.91,9.65
49.207257,4.148284,18.61,-0.79,0.55,9.52
49.207257,4.148284,18.61,-0.57,1.52,9.46
49.207138,4.148468,19.12,-0.78,1.32,9.34
49.207138,4.148468,19.12,-0.67,1.14,9.56
49.207016,4.148653,19.28,-0.58,1.16,8.83
49.207016,4.148653,19.28,-0.76,0.36,12.37
49.206894,4.148837,19.0,-0.49,1.45,9.51
49.206894,4.148837,19.0,-0.34,0.83,7.56
49.206772,4.149021,19.05,-0.2,0.92,11.31
49.206772,4.149021,19.05,0.09,1.15,9.44
49.206648,4.149203,19.17,-0.77,1.57,10.05
49.206648,4.149203,19.17,0.38,1.58,13.68
49.206522,4.149383,19.33,-0.95,0.74,9.24
49.206522,4.149383,19.33,-0.46,1.41,10.07
49.206392,4.149561,19.58,-0.26,1.48,9.96
49.206392,4.149561,19.58,-0.75,1.71,9.9
49.206258,4.149737,19.86,-0.37,1.55,8.02
49.206258,4.149737,19.86,-1.56,0.64,10.16
49.206123,4.149914,20.04,0.1,1.7,9.42
49.206123,4.149914,20.04,0.37,1.86,10.78
49.205983,4.150092,20.34,0.08,1.45,9.73
49.205983,4.150092,20.34,-0.61,1.54,10.06
49.20584,4.150273,20.59,-0.13,1.7,10.49
49.20584,4.150273,20.59,-0.38,1.54,10.32
49.205685,4.150445,20.77,0.66,1.45,10.61
49.205685,4.150445,20.77,-0.25,1.04,9.39
49.205527,4.150608,20.85,-0.81,0.42,11.01
49.205527,4.150608,20.85,-0.31,0.03,10.19
49.20537,4.150762,20.52,-1.04,0.32,9.41
49.205216,4.150906,19.95,-0.41,0.54,10.52
49.205216,4.150906,19.95,-0.66,0.57,8.95
49.205066,4.151041,19.16,-1.02,0.05,11.52
49.205066,4.151041,19.16,-0.42,0.39,10.85
49.204919,4.15117,18.39,-0.96,0.67,8.72
49.204919,4.15117,18.39,-0.37,1.28,9.45
49.204772,4.151285,18.01,-0.64,1.34,9.52
49.204772,4.151285,18.01,-0.2,2.39,8.61
49.204628,4.151402,18.26,-0.98,0.43,11.5
49.204628,4.151402,18.26,-0.83,1.77,7.63
49.20448,4.151517,18.47,-0.29,2.03,8.01
49.20448,4.151517,18.47,-0.67,1.13,10.39
49.20433,4.151631,18.65,-0.32,2.11,9.3
49.20433,4.151631,18.65,0.68,1.8,10.46
49.204178,4.151742,18.95,-0.34,1.76,9.9
49.204178,4.151742,18.95,-0.38,1.96,8.12
49.204022,4.151848,19.21,-1.16,0.76,9.86
49.204022,4.151848,19.21,-0.83,0.86,9.28
49.20386,4.15195,19.55,0.54,1.06,8.48
49.20386,4.15195,19.55,-0.68,1.66,9.69
49.203696,4.152052,19.82,-0.53,1.88,9.33
49.203696,4.152052,19.82,-0.94,2.22,7.47
49.203526,4.152147,20.19,-0.92,0.22,8.89
49.203526,4.152147,20.19,-0.71,1.25,9.45
49.203349,4.152239,20.58,-0.84,1.96,7.89
49.203349,4.152239,20.58,0.09,2.04,10.85
49.20317,4.152329,20.92,-0.79,1.77,10.18
49.20317,4.152329,20.92,0.01,1.09,10.51
49.20299,4.152414,20.94,-0.45,1.96,8.88
49.20299,4.152414,20.94,-0.34,2.82,8.81
49.202811,4.152494,21.16,-0.77,0.9,8.92
49.202811,4.152494,21.16,-1.13,1.08,9.91
49.202628,4.152565,21.38,-0.23,1.32,8.97
49.202628,4.152565,21.38,0.15,0.95,12.39
49.202442,4.152633,21.77,-0.04,1.94,9.78
49.202442,4.152633,21.77,0.37,2.4,11.06
49.20225,4.152698,21.84,-0.98,0.72,10.11
49.20225,4.152698,21.84,-0.87,0.6,9.82
49.202058,4.152758,22.12,-0.1,0.75,9.73
49.202058,4.152758,22.12,-0.96,0.01,10.8
49.201864,4.152814,21.75,-2.65,-0.71,10.46
49.201864,4.152814,21.75,0.18,0.89,9.54
49.201671,4.152867,21.32,-0.74,1.4,8.94
49.201479,4.152911,21.12,-0.28,0.62,8.76
49.201479,4.152911,21.12,-1.01,1.44,8.64
49.201293,4.152955,20.8,-0.59,1.05,9.09
49.201293,4.152955,20.8,-0.32,1.58,10.29
49.201107,4.153,20.73,0.35,2.09,11.01
49.201107,4.153,20.73,-0.75,1.46,8.94
49.200923,4.153043,20.69,-0.36,1.42,10.01
49.200923,4.153043,20.69,-0.81,0.49,10.04
49.200739,4.15309,20.94,0.23,0.75,9.55
49.200739,4.15309,20.94,-0.78,1.77,9.31
49.200552,4.153135,21.14,-0.88,0.45,8.46
49.200552,4.153135,21.14,-0.51,1.36,10.74
49.200365,4.153187,20.7,-1.16,0.98,9.41
49.200365,4.153187,20.7,-0.33,-0.1,7.87
49.200182,4.153235,20.47,0.67,-1.24,8.53
49.200182,4.153235,20.47,-0.36,1.16,9.69
49.200002,4.153284,20.16,-2.22,0.85,9.28
49.200002,4.153284,20.16,-0.25,0.89,9.3
49.199825,4.15333,19.98,-0.84,0.38,11.78
49.199825,4.15333,19.98,-0.99,0.87,9.01
49.199649,4.153374,19.88,-0.96,1.39,9.58
49.199649,4.153374,19.88,-0.32,0.9,10.73
49.199474,4.153418,19.98,-0.47,1.98,11.55
49.199474,4.153418,19.98,-0.45,1.22,10.8
49.199296,4.153464,20.27,-0.87,1.61,11.09
49.199296,4.153464,20.27,-0.8,2.22,11.22
49.199113,4.153512,20.62,-0.91,1.32,9.01
49.199113,4.153512,20.62,-0.5,1.57,8.97
49.19893,4.15356,20.5,-0.49,0.34,8.71
49.19893,4.15356,20.5,-0.43,1.92,7.65
49.198746,4.1536,20.46,-0.52,2.76,8.14
49.198746,4.1536,20.46,-0.4,0.74,11.5
49.198562,4.153643,20.56,-0.58,0.94,8.73
49.198562,4.153643,20.56,-0.73,0.81,8.0
49.198378,4.153696,20.72,-0.75,1.64,11.49
49.198378,4.153696,20.72,-0.83,1.03,11.8
49.198194,4.153743,21.0,0.14,1.32,11.32
49.198194,4.153743,21.0,-0.4,1.32,9.22
49.198009,4.15379,21.23,-0.05,2.0,10.63
49.198009,4.15379,21.23,0.34,2.6,9.04
49.197819,4.153835,21.53,-1.69,1.12,9.67
49.197627,4.153882,21.74,-1.06,0.3,9.62
49.197627,4.153882,21.74,-0.33,0.42,11.22
49.197431,4.15393,21.9,-1.09,0.41,7.92
49.197431,4.15393,21.9,-0.45,1.46,9.67
49.197233,4.153979,22.06,-0.28,1.72,8.56
49.197233,4.153979,22.06,0.34,1.17,10.67
49.197035,4.154034,22.04,-0.73,0.9,9.46
49.197035,4.154034,22.04,-0.41,1.8,10.43
49.196839,4.154088,22.21,-0.46,1.95,11.04
49.196839,4.154088,22.21,-0.44,1.91,10.96
49.196642,4.154134,22.23,-1.33,1.27,10.91
49.196642,4.154134,22.23,0.37,1.76,7.78
49.196445,4.154183,22.34,-2.29,0.36,10.03
49.196445,4.154183,22.34,-0.15,0.39,8.67
49.196245,4.154231,22.35,-0.83,0.66,10.24
49.196245,4.154231,22.35,-0.18,1.02,11.12
49.196044,4.154283,22.5,-1.01,0.83,10.13
49.196044,4.154283,22.5,-0.57,2.51,7.22
49.195844,4.154334,22.63,-0.55,-0.05,10.38
49.195844,4.154334,22.63,-0.71,2.12,10.75
49.195644,4.154388,22.35,-1.06,-0.72,9.04
49.195644,4.154388,22.35,0.03,0.84,7.47
49.195447,4.154439,21.96,-0.71,0.49,7.3
49.195447,4.154439,21.96,-0.63,1.04,11.37
49.195255,4.154489,21.58,-1.02,1.69,8.48
49.195255,4.154489,21.58,0.18,0.34,9.21
49.195067,4.154537,21.37,-1.58,0.64,9.28
49.195067,4.154537,21.37,-0.13,0.78,10.25
49.194878,4.154584,21.31,0.4,0.91,10.73
49.194878,4.154584,21.31,-0.8,2.32,12.49
49.194691,4.154632,21.31,-0.48,0.89,8.14
49.194691,4.154632,21.31,-0.71,1.11,8.05
49.194504,4.154677,21.0,-0.95,2.22,9.25
49.194504,4.154677,21.0,-0.55,1.19,10.14
49.194321,4.154724,21.18,-0.61,0.58,9.8
49.194321,4.154724,21.18,-0.87,1.92,10.48
49.194131,4.154778,21.27,-0.89,2.38,9.38
49.194131,4.154778,21.27,-0.23,1.02,10.38
49.193942,4.154834,21.45,-0.0,2.06,10.34
49.19375,4.154884,21.62,-0.02,0.48,12.36
49.19375,4.154884,21.62,-0.65,1.84,9.0
49.193559,4.154932,21.62,-0.77,1.34,8.33
49.193559,4.154932,21.62,-0.71,-0.0,11.56
49.193365,4.154973,21.72,-0.67,0.89,8.99
49.193365,4.154973,21.72,0.54,2.9,10.42
49.193173,4.155025,21.78,-0.76,1.32,10.44
49.193173,4.155025,21.78,-1.52,1.61,8.92
49.192981,4.155079,21.94,-0.71,1.13,9.34
49.192981,4.155079,21.94,-0.59,1.82,9.75
49.192781,4.155118,21.99,-0.35,2.51,10.41
49.192781,4.155118,21.99,-0.61,1.66,9.65
49.192579,4.155161,21.98,-2.62,1.1,6.54
49.192579,4.155161,21.98,-1.69,0.88,9.47
49.192384,4.155217,22.04,-1.12,2.22,9.46
49.192384,4.155217,22.04,-1.24,1.61,10.41
49.19219,4.155273,22.16,-1.11,1.41,9.56
49.19219,4.155273,22.16,-0.18,1.1,9.31
49.191996,4.155325,22.21,-1.17,1.43,10.22
49.191996,4.155325,22.21,-0.2,1.41,9.26
49.191801,4.155374,21.99,-0.54,0.96,8.08
49.191801,4.155374,21.99,-0.65,0.55,10.77
49.191606,4.155421,21.32,-0.68,0.5,9.05
49.191606,4.155421,21.32,-1.34,0.03,9.62
49.191416,4.155465,21.0,-0.83,-1.85,9.31
49.191416,4.155465,21.0,-0.37,1.01,8.32
49.19123,4.155508,20.54,-0.32,0.81,10.19
49.19123,4.155508,20.54,-0.27,0.81,9.54
49.19105,4.155547,20.21,-1.0,0.84,10.99
49.19105,4.155547,20.21,-0.13,0.65,9.47
49.190874,4.155592,19.62,-0.39,0.72,9.52
49.190874,4.155592,19.62,-0.11,0.88,9.21
49.190705,4.155635,19.38,-0.18,2.68,9.74
49.190705,4.155635,19.38,-0.52,1.62,9.37
49.190537,4.15568,19.51,-0.6,1.28,9.42
49.190537,4.15568,19.51,-1.23,1.17,8.35
49.190366,4.155725,19.76,-0.72,1.38,9.6
49.190366,4.155725,19.76,-1.52,1.73,8.87
49.190195,4.155781,19.94,-0.98,1.93,10.39
49.190195,4.155781,19.94,-0.47,1.87,9.18
49.190024,4.155852,20.19,-0.53,1.71,11.17
49.189847,4.155935,20.51,0.31,1.67,8.2
49.189847,4.155935,20.51,0.36,1.47,10.68
49.189658,4.156021,20.87,-0.59,1.65,11.19
49.189658,4.156021,20.87,-0.09,1.65,9.71
49.189472,4.156118,21.08,-0.54,1.66,9.32
49.189472,4.156118,21.08,-0.21,1.75,7.69
49.189284,4.156208,21.23,-0.13,1.33,9.46
49.189284,4.156208,21.23,-0.33,1.53,8.98
49.189099,4.156303,21.47,-0.56,2.21,9.54
49.189099,4.156303,21.47,-0.53,2.05,11.66
49.18892,4.15641,21.72,-1.01,2.36,7.75
49.18892,4.15641,21.72,-0.56,1.16,9.14
49.188741,4.156528,22.0,-0.34,1.56,10.71
49.188741,4.156528,22.0,-0.96,1.47,8.57
49.188564,4.156654,22.06,-0.24,0.72,10.07
49.188564,4.156654,22.06,-1.08,1.23,10.29
49.188387,4.156786,22.04,-0.22,0.93,9.53
49.188387,4.156786,22.04,-1.27,0.73,11.07
49.188211,4.156927,21.66,-0.24,0.82,9.22
49.188211,4.156927,21.66,-0.38,1.52,10.11
49.188044,4.157068,21.42,-0.67,1.09,9.54
49.188044,4.157068,21.42,-0.8,0.7,9.43
49.187879,4.157215,21.37,0.26,1.09,8.91
49.187879,4.157215,21.37,0.03,1.99,10.47
49.18771,4.157366,21.44,-0.2,1.43,10.19
49.18771,4.157366,21.44,-0.02,2.03,8.92
49.187544,4.157518,21.39,-0.29,1.89,9.17
49.187544,4.157518,21.39,-0.77,1.27,11.54
49.187384,4.157676,21.48,-0.9,1.39,9.18
49.187384,4.157676,21.48,-0.75,1.58,9.12
49.187224,4.157842,21.55,-0.71,0.9,9.63
49.187224,4.157842,21.55,-1.47,1.7,11.12
49.187067,4.158017,21.47,0.1,1.64,9.82
49.187067,4.158017,21.47,-0.13,1.15,10.95
49.186909,4.158193,21.53,0.07,0.75,8.5
49.186909,4.158193,21.53,-1.47,-0.09,9.33
49.186755,4.158375,21.3,-0.91,1.41,10.0
49.186755,4.158375,21.3,-0.71,1.73,7.82
49.186601,4.158553,21.29,0.19,1.16,11.21
49.186601,4.158553,21.29,0.29,1.45,11.21
49.186447,4.158733,21.27,-1.28,0.99,11.46
49.186447,4.158733,21.27,-0.88,2.01,10.96
49.186299,4.158921,21.16,0.23,1.78,10.18
49.186299,4.158921,21.16,0.17,1.92,11.21
49.186156,4.15912,21.09,-0.54,1.31,9.34
49.186021,4.159318,21.05,-1.08,1.24,9.31
49.186021,4.159318,21.05,0.17,1.55,10.46
49.185887,4.159524,21.06,-0.34,0.68,10.6
49.185887,4.159524,21.06,-0.45,2.15,10.97
49.185755,4.15973,21.09,-0.1,2.09,8.5
49.185755,4.15973,21.09,-0.13,0.34,9.44
49.185629,4.159939,20.98,-0.86,0.98,10.41
49.185629,4.159939,20.98,-1.19,0.37,11.34
49.185508,4.160148,20.56,-0.61,0.9,8.51
49.185508,4.160148,20.56,-0.7,1.44,10.44
49.185391,4.160356,20.45,-0.68,0.79,9.39
49.185391,4.160356,20.45,-0.62,0.67,10.49
49.185278,4.160564,20.0,-0.82,0.67,10.96
49.185278,4.160564,20.0,0.32,0.85,11.11
49.185169,4.160779,19.6,-0.48,1.12,9.22
49.185169,4.160779,19.6,-0.78,0.65,9.78
49.185062,4.160985,19.26,-0.47,1.04,11.04
49.185062,4.160985,19.26,0.25,1.45,9.13
49.184957,4.161186,19.0,1.07,1.14,9.35
49.184957,4.161186,19.0,-0.29,0.73,10.29
49.18485,4.16139,18.61,0.33,0.8,7.3
49.18485,4.16139,18.61,-0.84,0.19,8.94
49.184753,4.161584,18.22,0.03,0.11,8.6
49.184753,4.161584,18.22,-0.66,1.07,10.6
49.184657,4.161771,17.56,-0.45,0.07,11.1
49.184657,4.161771,17.56,-0.27,0.79,10.96
49.184562,4.161954,16.88,-0.39,0.68,9.56
49.184562,4.161954,16.88,-0.73,0.21,10.34
49.184469,4.162134,16.52,-0.92,-0.31,11.51
49.184469,4.162134,16.52,-1.5,-0.84,8.71
49.184376,4.162305,15.74,-0.97,-0.05,8.72
49.184376,4.162305,15.74,-0.64,0.8,9.42
49.184289,4.162472,14.94,-1.38,0.26,11.81
49.184289,4.162472,14.94,-1.2,-0.16,9.06
49.184207,4.162629,14.25,-0.59,0.94,9.24
49.184207,4.162629,14.25,0.23,0.16,10.65
49.184132,4.162781,13.59,0.06,0.76,9.33
49.184058,4.16293,13.42,-0.13,1.31,8.8
49.184058,4.16293,13.42,-0.52,1.09,10.69
49.183984,4.163076,13.47,-0.63,1.42,10.14
49.183984,4.163076,13.47,-0.63,1.19,9.78
49.183909,4.163222,13.61,-0.53,1.11,8.85
49.183909,4.163222,13.61,-0.66,1.07,10.26
49.183835,4.163372,13.8,-0.45,1.35,11.02
49.183835,4.163372,13.8,-0.09,1.01,9.35
49.183759,4.163524,13.97,-0.43,1.7,10.86
49.183759,4.163524,13.97,-0.69,0.9,9.31
49.183682,4.163677,14.22,-0.03,1.15,9.01
49.183682,4.163677,14.22,-0.86,1.06,9.05
49.183604,4.163833,14.48,-0.73,0.98,10.18
49.183604,4.163833,14.48,-1.27,0.75,10.66
49.183524,4.163992,14.71,-0.24,2.37,8.69
49.183524,4.163992,14.71,-0.03,1.01,10.07
49.183445,4.164156,14.94,-0.51,1.02,9.39
49.183445,4.164156,14.94,-0.12,1.22,9.95
49.183362,4.16432,15.2,-0.46,0.91,11.31
49.183362,4.16432,15.2,-0.4,1.05,8.92
49.183279,4.164487,15.39,-0.66,0.72,10.51
49.183279,4.164487,15.39,-0.88,0.71,10.04
49.183195,4.164653,15.2,-0.29,1.67,9.93
49.183195,4.164653,15.2,-0.17,0.93,10.22
49.183109,4.164813,14.95,-0.23,0.87,8.75
49.183109,4.164813,14.95,-0.79,0.32,10.7
49.183027,4.164974,14.63,-0.32,0.92,9.27
49.183027,4.164974,14.63,-0.31,0.83,10.65
49.182951,4.165136,14.36,-1.7,0.49,8.67
49.182951,4.165136,14.36,-0.3,0.29,9.23
49.182876,4.165293,14.08,-0.6,0.1,10.03
49.182876,4.165293,14.08,-0.83,-0.04,10.38
49.182802,4.165441,13.08,-0.03,0.38,10.33
49.182802,4.165441,13.08,-1.47,-0.28,8.66
49.182732,4.165582,12.28,-0.4,0.01,8.75
49.182732,4.165582,12.28,-1.94,0.42,7.56
49.182664,4.165709,11.5,-0.02,0.55,10.67
49.182664,4.165709,11.5,-0.59,0.18,7.89
49.182601,4.165828,10.66,-0.6,-0.09,9.62
49.182601,4.165828,10.66,0.2,0.68,10.54
49.182544,4.16594,9.89,-0.11,0.99,9.28
49.182544,4.16594,9.89,0.98,0.54,9.09
49.182491,4.166039,9.08,2.06,0.84,8.79
49.182431,4.166122,8.53,2.0,0.63,9.25
49.182431,4.166122,8.53,2.58,1.19,9.51
49.182365,4.166177,8.18,0.74,1.87,9.29
49.182365,4.166177,8.18,-0.36,1.49,10.38
49.18229,4.166202,8.8,-1.21,1.51,9.2
49.18229,4.166202,8.8,-1.52,1.64,9.61
49.182213,4.166235,9.2,-1.88,1.13,9.23
49.182213,4.166235,9.2,-1.44,2.02,10.25
49.182125,4.166276,9.64,-0.73,1.73,9.99
49.182125,4.166276,9.64,0.4,1.49,9.24
49.182042,4.166327,9.72,1.5,1.81,10.39
49.182042,4.166327,9.72,1.42,1.5,11.21
49.181956,4.166369,10.08,1.51,1.62,9.28
49.181956,4.166369,10.08,0.56,1.0,7.93
49.181861,4.166384,10.79,0.06,2.23,8.91
49.181861,4.166384,10.79,1.14,1.31,8.8
49.181761,4.166367,11.69,-0.0,1.76,9.9
49.181761,4.166367,11.69,-0.56,2.02,9.92
49.181652,4.166336,12.63,0.29,2.12,9.12
49.181652,4.166336,12.63,0.16,1.75,10.7
49.181532,4.166305,13.4,0.55,2.19,10.22
49.181532,4.166305,13.4,-0.49,1.76,7.78
49.181411,4.166269,14.05,0.27,2.38,11.07
49.181411,4.166269,14.05,-1.09,1.2,8.51
49.181279,4.166236,14.76,-0.39,2.36,11.25
49.181279,4.166236,14.76,-0.78,1.01,9.06
49.181145,4.166202,15.51,-0.76,1.1,9.31
49.181145,4.166202,15.51,-0.43,1.32,12.37
49.181006,4.166165,15.96,-0.61,1.95,9.54
49.181006,4.166165,15.96,-0.08,1.49,11.6
49.180864,4.166126,16.4,-0.63,1.74,7.95
49.180864,4.166126,16.4,0.07,0.6,10.13
49.180715,4.166081,16.78,-0.48,0.71,9.6
49.180715,4.166081,16.78,-0.77,1.61,10.29
49.180569,4.16604,16.75,-0.62,1.6,9.19
49.180569,4.16604,16.75,-0.68,0.95,8.55
49.180423,4.166001,16.8,-0.52,0.5,11.25
49.180423,4.166001,16.8,-0.33,0.67,9.91
49.180275,4.165956,16.89,-0.57,1.34,9.89
49.180275,4.165956,16.89,-0.58,1.63,11.11
49.180127,4.165908,16.73,-0.86,1.06,10.18
49.179978,4.165862,16.83,-1.12,1.47,9.7
49.179978,4.165862,16.83,-0.99,1.68,7.99
49.179828,4.165817,16.97,-0.79,1.6,11.14
49.179828,4.165817,16.97,-1.29,1.53,9.92
49.179677,4.165775,17.22,-0.1,2.15,9.93
49.179677,4.165775,17.22,-0.63,2.15,8.08
49.179523,4.165733,17.51,0.64,1.61,8.05
49.179523,4.165733,17.51,0.12,1.6,9.01
49.179364,4.165692,17.75,-0.47,1.9,9.24
49.179364,4.165692,17.75,-1.02,1.81,9.32
49.179206,4.165649,18.02,-0.88,2.62,12.49
49.179206,4.165649,18.02,-0.68,1.26,8.94
49.179042,4.165608,18.38,-0.96,0.82,8.35
49.179042,4.165608,18.38,0.11,2.72,11.93
49.178877,4.165577,18.79,-0.7,2.04,10.72
49.178877,4.165577,18.79,-1.05,1.75,10.92
49.178709,4.165551,19.12,-1.29,1.06,8.19
49.178709,4.165551,19.12,-0.53,1.85,8.9
49.178537,4.16553,19.46,-0.48,1.76,9.87
49.178537,4.16553,19.46,-0.78,1.42,9.84
49.178363,4.165518,19.64,-0.99,0.83,12.65
49.178363,4.165518,19.64,-1.26,1.29,10.75
49.178183,4.165515,19.83,-0.86,1.57,9.37
49.178183,4.165515,19.83,-1.3,1.3,8.97
49.178001,4.165519,19.92,-0.51,1.56,10.18
49.178001,4.165519,19.92,-0.56,0.98,9.72
49.177818,4.165532,20.18,0.02,1.19,10.3
49.177818,4.165532,20.18,-1.65,0.7,10.27
49.17764,4.165558,19.91,-0.5,1.74,10.03
49.17764,4.165558,19.91,-1.09,1.63,9.0
49.177463,4.16559,19.98,-0.95,1.73,10.5
49.177463,4.16559,19.98,-0.67,1.26,9.51
49.177287,4.165631,20.1,-1.3,1.11,9.95
49.177287,4.165631,20.1,-0.56,1.57,8.43
49.17711,4.165678,20.21,-0.76,1.12,9.75
49.17711,4.165678,20.21,-1.18,1.98,9.51
49.176935,4.165741,20.14,-1.08,0.68,11.74
49.176935,4.165741,20.14,-0.81,1.08,11.68
49.176766,4.165809,19.85,-0.86,1.09,10.07
49.176766,4.165809,19.85,-1.18,1.08,10.05
49.176592,4.165894,20.19,-0.82,1.19,8.88
49.176416,4.165991,20.03,-0.76,1.2,9.02
49.176416,4.165991,20.03,-1.41,0.6,10.69
49.176248,4.166093,19.62,-0.36,1.98,11.06
49.176248,4.166093,19.62,-0.55,1.14,10.03
49.176081,4.166213,19.56,-0.52,1.22,9.9
49.176081,4.166213,19.56,-1.52,0.76,11.12
49.175925,4.166336,19.26,-1.04,0.95,8.84
49.175925,4.166336,19.26,-1.17,1.02,10.58
49.175777,4.166463,18.83,-0.42,1.38,8.97
49.175777,4.166463,18.83,-0.07,0.92,9.64
49.17563,4.166588,18.63,-0.7,1.83,9.33
49.17563,4.166588,18.63,-0.79,1.04,10.92
49.175488,4.166719,18.67,-0.95,1.88,10.12
49.175488,4.166719,18.67,-0.16,1.93,8.69
49.175348,4.166859,18.91,-0.4,1.87,10.59
49.175348,4.166859,18.91,-0.72,1.94,8.08
49.175207,4.167006,19.14,-1.17,1.63,9.25
49.175207,4.167006,19.14,-0.84,1.66,10.76
49.175063,4.16716,19.44,-0.42,0.99,10.87
49.175063,4.16716,19.44,-1.42,1.56,9.24
49.174919,4.167328,19.72,-0.91,1.0,8.58
49.174919,4.167328,19.72,-1.47,1.32,9.52
49.174779,4.167512,20.08,-0.12,1.67,8.64
49.174779,4.167512,20.08,-1.04,1.96,10.55
49.174641,4.167705,20.32,0.36,1.81,8.19
49.174641,4.167705,20.32,-0.68,1.04,11.87
49.17451,4.167901,20.78,-0.53,1.08,8.41
49.17451,4.167901,20.78,-0.55,1.51,10.35
49.174382,4.168105,21.06,-1.42,1.41,10.11
49.174382,4.168105,21.06,-0.37,1.84,10.15
49.174257,4.168317,21.42,-1.02,2.08,9.75
49.174257,4.168317,21.42,-1.09,0.1,10.18
49.174139,4.168541,21.7,-0.62,1.28,10.34
49.174139,4.168541,21.7,-1.42,0.6,10.27
49.174027,4.168771,21.4,-1.28,1.54,9.65
49.174027,4.168771,21.4,-0.27,1.48,9.25
49.173919,4.169011,21.38,-0.33,1.09,8.26
49.173919,4.169011,21.38,0.19,1.54,8.2
49.173817,4.16926,21.69,-1.1,0.83,9.6
49.173817,4.16926,21.69,-0.88,0.63,10.71
49.173718,4.169512,21.74,-0.86,0.07,8.6
49.173718,4.169512,21.74,-0.55,0.79,9.4
49.17362,4.169765,21.37,-1.53,0.73,9.82
49.173522,4.170018,20.94,-0.91,1.07,11.69
49.173522,4.170018,20.94,-0.21,1.22,8.91
49.173425,4.170271,20.75,0.15,1.1,9.05
49.173425,4.170271,20.75,-0.31,0.99,9.01
49.173329,4.170518,20.65,-0.89,0.49,8.95
49.173329,4.170518,20.65,-0.06,1.1,10.05
49.173235,4.170764,20.79,-0.62,1.61,9.58
49.173235,4.170764,20.79,-0.57,1.21,10.83
49.173142,4.171011,20.93,-0.17,1.71,10.37
49.173142,4.171011,20.93,0.1,1.26,9.15
49.173048,4.171256,21.11,-1.11,0.67,8.75
49.173048,4.171256,21.11,-1.61,0.96,8.47
49.17295,4.171505,21.22,-0.58,1.41,10.11
49.17295,4.171505,21.22,-0.23,1.73,8.39
49.172852,4.171753,21.3,-0.69,1.35,10.13
49.172852,4.171753,21.3,-0.36,0.77,11.45
49.172753,4.172005,21.39,-1.07,1.13,10.03
49.172753,4.172005,21.39,-1.08,1.13,9.58
49.172654,4.172261,21.49,-0.83,0.35,10.91
49.172654,4.172261,21.49,-1.14,1.11,9.25
49.172555,4.172519,21.55,-0.96,1.03,10.26
49.172555,4.172519,21.55,0.03,2.06,9.33
49.172457,4.172772,21.69,-1.19,1.07,9.86
49.172457,4.172772,21.69,0.11,1.14,9.12
49.172356,4.173028,21.78,-0.38,1.07,9.8
49.172356,4.173028,21.78,-0.68,0.57,9.76
49.172254,4.173285,21.64,-0.42,1.63,8.65
49.172254,4.173285,21.64,-0.99,0.79,9.69
49.172153,4.17354,21.6,-0.45,0.8,10.19
49.172153,4.17354,21.6,-0.28,1.07,9.83
49.172054,4.173794,21.59,-0.32,1.65,10.06
49.172054,4.173794,21.59,-1.09,0.54,11.28
49.171956,4.174045,21.57,-0.73,0.82,7.58
49.171956,4.174045,21.57,-0.62,1.22,10.14
49.171857,4.174294,21.27,-0.55,1.11,11.09
49.171857,4.174294,21.27,-0.51,1.08,9.34
49.171758,4.174542,21.01,-1.14,1.04,8.33
49.171758,4.174542,21.01,-0.77,1.46,9.73
49.171662,4.17479,20.92,-0.46,1.24,10.02
49.171662,4.17479,20.92,-0.67,1.58,8.43
49.171567,4.175037,21.01,-0.35,2.09,8.55
49.171468,4.175284,21.12,-0.68,0.95,7.43
49.171468,4.175284,21.12,-0.78,1.92,7.92
49.171369,4.175532,21.19,-0.26,1.47,10.31
49.171369,4.175532,21.19,-0.34,1.7,10.59
49.171271,4.17578,21.38,-0.18,1.12,9.54
49.171271,4.17578,21.38,0.09,1.73,7.95
49.17117,4.176036,21.43,-1.8,1.49,9.77
49.17117,4.176036,21.43,0.25,2.13,10.06
49.17107,4.176291,21.57,-0.62,1.46,9.2
49.17107,4.176291,21.57,-0.89,1.24,8.78
49.170968,4.176544,21.5,-0.6,1.94,10.59
49.170968,4.176544,21.5,0.22,1.82,9.06
49.170865,4.176795,21.46,-0.67,0.99,9.85
49.170865,4.176795,21.46,-0.59,1.11,8.02
49.170758,4.177042,21.52,0.73,1.42,8.85
49.170758,4.177042,21.52,-0.57,1.56,9.62
49.170652,4.177284,21.57,0.3,1.79,9.32
49.170652,4.177284,21.57,-0.53,1.47,7.3
49.170543,4.177527,21.54,0.05,1.67,10.01
49.170543,4.177527,21.54,0.16,1.33,9.15
49.170434,4.177771,21.77,-0.45,1.38,9.19
49.170434,4.177771,21.77,-1.15,1.29,9.15
49.170323,4.178019,21.86,-0.93,1.03,12.21
49.170323,4.178019,21.86,-0.13,2.03,11.51
49.170207,4.178261,21.94,-1.17,1.39,11.33
49.170207,4.178261,21.94,-0.93,1.24,9.42
49.170088,4.178504,22.13,-0.05,1.58,8.76
49.170088,4.178504,22.13,-0.68,1.1,10.52
49.169968,4.178743,22.18,-0.96,1.58,10.1
49.169968,4.178743,22.18,-0.47,1.65,9.76
49.169846,4.178983,22.27,-1.39,1.36,10.14
49.169846,4.178983,22.27,-0.46,1.55,8.79
49.169727,4.179227,22.39,-0.63,1.21,8.36
49.169727,4.179227,22.39,-0.6,0.37,10.64
49.169608,4.179476,22.51,-0.34,0.79,11.4
49.169608,4.179476,22.51,-1.07,1.24,10.62
49.169488,4.179727,22.6,-0.23,0.67,8.87
49.169488,4.179727,22.6,-1.04,0.41,10.02
49.169369,4.179979,22.44,-1.33,0.51,8.93
49.169369,4.179979,22.44,-0.47,0.94,9.95
49.169252,4.180227,22.1,-0.99,0.24,10.17
49.169142,4.180478,21.72,-0.69,1.6,10.0
49.169142,4.180478,21.72,-0.45,1.84,9.09
49.169037,4.180723,21.72,-0.6,0.95,10.28
49.169037,4.180723,21.72,-1.93,0.95,9.61
49.168936,4.180986,21.82,-0.58,1.66,10.58
49.168936,4.180986,21.82,-1.36,1.44,12.07
49.168843,4.181262,22.08,-1.21,1.32,11.51
49.168843,4.181262,22.08,-1.92,0.91,7.51
49.16876,4.181546,22.08,-1.99,0.6,9.01
49.16876,4.181546,22.08,0.41,1.95,8.84
49.168692,4.181833,22.25,-0.32,1.95,11.05
49.168692,4.181833,22.25,-1.36,0.78,8.98
49.168632,4.182117,21.86,-1.35,0.36,11.18
49.168632,4.182117,21.86,-0.87,1.51,11.65
49.168582,4.182402,21.68,-1.31,1.6,9.93
49.168582,4.182402,21.68,-1.05,1.45,10.25
49.16854,4.182688,21.7,-0.65,1.57,9.79
49.16854,4.182688,21.7,-1.49,1.28,10.69
49.168506,4.18298,21.77,-1.7,0.44,10.01
49.168506,4.18298,21.77,-1.08,1.24,8.94
49.168484,4.183274,21.88,-1.21,1.1,9.11
49.168484,4.183274,21.88,-1.29,1.38,11.47
49.168474,4.183578,22.08,-1.46,1.17,9.65
49.168474,4.183578,22.08,-1.43,1.35,10.67
49.168466,4.183887,22.25,-1.19,1.71,10.84
49.168466,4.183887,22.25,-1.03,0.92,9.31
49.168472,4.184192,22.49,-0.89,1.5,10.66
49.168472,4.184192,22.49,-1.38,1.49,9.91
49.168489,4.184499,22.67,-1.07,1.39,11.77
49.168489,4.184499,22.67,-1.28,0.69,9.04
49.168511,4.184811,22.83,0.02,0.79,9.92
49.168511,4.184811,22.83,-0.38,1.77,9.56
49.168545,4.185121,23.18,-0.85,1.64,9.63
49.168545,4.185121,23.18,-0.32,2.32,12.1
49.168588,4.185438,23.54,-0.93,2.16,11.78
49.168588,4.185438,23.54,-0.09,1.84,12.39
49.168625,4.185755,23.71,-0.24,0.35,7.51
49.168625,4.185755,23.71,-0.55,1.95,8.87
49.168661,4.186075,23.97,-1.07,0.64,7.69
49.168661,4.186075,23.97,-0.93,1.36,7.82
49.1687,4.186401,24.03,-1.36,1.13,9.81
49.168738,4.186724,24.01,-0.17,0.99,10.91
49.168738,4.186724,24.01,-0.79,0.91,10.35
49.168773,4.187048,23.75,-0.31,1.4,7.16
49.168773,4.187048,23.75,0.06,0.51,10.01
49.168804,4.187367,23.37,0.67,0.89,11.39
49.168804,4.187367,23.37,0.7,0.49,8.32
49.168829,4.187679,23.18,1.03,0.93,10.95
49.168829,4.187679,23.18,0.16,0.87,10.85
49.168847,4.187996,23.02,0.47,1.57,9.12
49.168847,4.187996,23.02,-0.03,0.77,11.45
49.168859,4.18832,23.02,-0.19,0.96,9.87
49.168859,4.18832,23.02,0.87,1.6,8.33
49.168852,4.188633,23.06,0.21,1.16,10.36
49.168852,4.188633,23.06,0.12,0.95,9.63
49.168831,4.188948,23.21,-0.57,1.33,10.45
49.168831,4.188948,23.21,-0.19,1.18,9.73
49.168798,4.189265,23.21,0.62,1.16,9.68
49.168798,4.189265,23.21,-0.05,1.38,8.26
49.168761,4.189572,23.36,-0.13,0.97,8.9
49.168761,4.189572,23.36,-0.26,1.08,7.23
49.16872,4.189875,23.38,0.88,1.57,12.25
49.16872,4.189875,23.38,0.86,1.42,9.58
49.168662,4.190174,23.23,1.04,0.47,7.78
49.168662,4.190174,23.23,0.06,0.86,12.48
49.168592,4.190475,23.15,1.21,1.24,11.66
49.168592,4.190475,23.15,1.23,1.52,10.63
49.168511,4.190771,23.0,0.58,1.68,11.84
49.168511,4.190771,23.0,0.9,1.65,8.95
49.16842,4.191054,23.0,-0.39,1.18,8.63
49.16842,4.191054,23.0,0.57,1.52,9.81
49.168315,4.191344,23.06,0.11,1.11,12.89
49.168315,4.191344,23.06,0.15,1.48,11.26
49.168202,4.191633,23.0,0.56,1.22,9.97
49.168202,4.191633,23.0,1.97,1.77,9.2
49.16808,4.191898,22.94,-0.22,1.17,11.18
49.16808,4.191898,22.94,0.89,0.72,9.45
49.167953,4.192153,22.82,0.34,1.47,10.85
49.167953,4.192153,22.82,0.75,1.78,7.63
49.167817,4.192391,22.76,1.04,1.59,9.6
49.167817,4.192391,22.76,0.52,1.09,10.52
49.167673,4.19261,22.76,0.4,0.62,8.27
49.167524,4.192822,22.91,0.91,1.83,10.41
49.167524,4.192822,22.91,0.44,1.39,10.05
49.167367,4.193022,23.01,0.29,1.07,9.38
49.167367,4.193022,23.01,-0.25,1.46,9.8
49.167203,4.193221,23.23,-0.6,1.44,9.16
49.167203,4.193221,23.23,-1.67,1.03,10.03
49.167035,4.193425,23.44,-0.91,1.18,8.26
49.167035,4.193425,23.44,-0.51,0.77,9.76
49.166865,4.193627,23.49,-0.39,0.99,8.2
49.166865,4.193627,23.49,-0.89,1.46,11.49
49.166694,4.193822,23.48,-0.99,1.14,11.57
49.166694,4.193822,23.48,-0.44,1.5,8.79
49.166524,4.194012,23.52,-0.21,1.01,9.87
49.166524,4.194012,23.52,-0.92,1.91,8.95
49.166353,4.194204,23.46,-0.07,1.65,8.63
49.166353,4.194204,23.46,-0.32,1.47,8.45
49.166186,4.194395,23.37,-0.57,0.88,11.92
49.166186,4.194395,23.37,-1.13,0.68,9.7
49.166017,4.194584,23.3,-1.01,1.57,11.52
49.166017,4.194584,23.3,-0.04,1.15,9.48
49.165851,4.194775,23.27,-0.85,0.82,10.4
49.165851,4.194775,23.27,-0.41,1.42,7.99
49.165689,4.194974,23.2,-1.5,0.51,9.67
49.165689,4.194974,23.2,-0.7,1.46,11.53
49.165525,4.195169,23.23,-0.12,1.24,10.85
49.165525,4.195169,23.23,-1.62,0.57,10.79
49.165357,4.195361,23.15,0.5,1.14,8.3
49.165357,4.195361,23.15,-0.24,1.34,12.16
49.165194,4.195554,23.13,-0.86,0.52,9.82
49.165194,4.195554,23.13,-1.16,0.02,10.65
49.165027,4.195741,22.96,-0.35,1.1,11.07
49.165027,4.195741,22.96,0.13,1.42,10.08
49.164863,4.195924,22.61,-0.17,1.68,9.78
49.164863,4.195924,22.61,-0.26,1.39,9.47
49.164698,4.196106,22.63,-1.48,1.18,10.34
49.164698,4.196106,22.63,-0.23,0.88,10.04
49.164536,4.196293,22.59,-0.8,1.46,8.38
49.164536,4.196293,22.59,-0.52,1.47,10.53
49.164372,4.196474,22.65,-1.29,1.42,10.84
49.164372,4.196474,22.65,-1.15,1.34,10.67
49.16421,4.19666,22.76,-0.23,1.59,10.65
49.164046,4.196844,22.76,-0.32,1.23,8.73
49.164046,4.196844,22.76,-0.62,1.2,9.58
49.163879,4.197031,22.7,-0.28,1.3,10.1
49.163879,4.197031,22.7,-0.65,0.97,10.26
49.163712,4.197213,22.66,-0.9,1.28,9.62
49.163712,4.197213,22.66,-0.92,1.51,8.55
49.16355,4.197394,22.41,-1.66,0.84,9.11
49.16355,4.197394,22.41,0.11,0.78,10.77
49.163389,4.197582,22.01,0.11,0.91,8.36
49.163389,4.197582,22.01,-1.27,1.3,10.41
49.163229,4.19776,21.89,-0.56,1.27,8.18
49.163229,4.19776,21.89,-0.3,1.3,9.76
49.163071,4.197941,21.86,-0.45,2.24,9.84
49.163071,4.197941,21.86,-0.0,1.75,9.67
49.162915,4.198127,21.81,0.03,1.41,10.74
49.162915,4.198127,21.81,-0.23,1.59,10.28
49.162759,4.19831,21.82,-0.32,1.58,10.33
49.162759,4.19831,21.82,-0.34,1.28,9.14
49.162602,4.198491,21.8,-0.8,1.86,11.97
49.162602,4.198491,21.8,-0.97,2.08,10.69
49.162445,4.19867,21.82,-0.78,1.73,8.48
49.162445,4.19867,21.82,-0.93,1.43,9.67
49.162287,4.19885,21.83,-0.08,1.27,10.27
49.162287,4.19885,21.83,0.34,1.0,9.79
49.162131,4.19903,21.76,0.28,1.14,8.24
49.162131,4.19903,21.76,-0.17,1.37,8.26
49.161973,4.199213,21.47,-0.64,1.2,11.22
49.161973,4.199213,21.47,-0.86,0.58,10.78
49.16182,4.199377,21.0,-0.41,0.89,11.82
49.16182,4.199377,21.0,-0.72,0.97,9.64
49.16167,4.199547,20.83,-0.16,1.42,8.71
49.16167,4.199547,20.83,-0.57,1.15,10.69
49.161522,4.199715,20.8,-0.76,1.41,9.39
49.161522,4.199715,20.8,-0.79,1.0,9.11
49.161371,4.199888,20.83,-0.06,0.84,10.33
49.161371,4.199888,20.83,-0.89,1.53,9.67
49.161218,4.20007,20.98,-0.32,1.46,7.83
49.161218,4.20007,20.98,-1.13,1.06,10.48
49.161066,4.200243,21.07,-0.45,0.74,11.58
49.161066,4.200243,21.07,-0.29,1.73,10.14
49.160913,4.200415,21.18,-0.84,2.06,8.27
49.160757,4.200587,21.32,0.73,2.55,10.57
49.160757,4.200587,21.32,-1.28,0.34,10.2
49.160603,4.200757,21.25,-0.95,1.34,9.55
49.160603,4.200757,21.25,0.47,1.5,9.81
49.160449,4.200926,21.31,-0.72,2.23,9.16
49.160449,4.200926,21.31,-1.02,1.41,9.04
49.160295,4.201093,21.25,-0.12,1.65,9.24
49.160295,4.201093,21.25,0.32,0.71,9.96
49.160144,4.201263,21.23,-0.84,0.91,7.98
49.160144,4.201263,21.23,-0.08,1.47,8.56
49.159994,4.201436,21.21,-0.54,2.25,10.44
49.159994,4.201436,21.21,-0.47,1.32,9.47
49.159838,4.201606,21.22,-0.65,0.72,9.87
49.159838,4.201606,21.22,-1.6,0.93,7.45
49.159681,4.201783,21.28,-1.0,0.64,9.48
49.159681,4.201783,21.28,0.52,1.06,7.68
49.159526,4.201959,21.35,-0.08,1.15,9.25
49.159526,4.201959,21.35,-0.94,1.15,8.28
49.159372,4.202126,21.45,-0.83,1.73,9.93
49.159372,4.202126,21.45,-0.08,1.38,10.08
49.159217,4.202297,21.48,-0.83,1.44,10.28
49.159217,4.202297,21.48,-1.49,0.57,8.06
49.159065,4.202471,21.47,0.6,1.57,8.8
49.159065,4.202471,21.47,-0.88,1.0,9.97
49.15891,4.202646,21.5,-0.26,1.08,9.82
49.15891,4.202646,21.5,-1.13,1.12,9.24
49.158755,4.202826,21.54,-0.8,0.67,9.17
49.158755,4.202826,21.54,0.4,1.31,7.52
49.158602,4.20301,21.5,-0.39,1.12,8.21
49.158602,4.20301,21.5,-1.33,1.66,10.7
49.158451,4.203191,21.63,-0.21,1.2,10.61
49.158451,4.203191,21.63,-1.45,0.37,10.14
49.158299,4.203371,21.68,-0.13,1.36,10.28
49.158299,4.203371,21.68,0.22,1.52,10.31
49.158144,4.203547,21.68,-1.83,1.02,9.46
49.158144,4.203547,21.68,-0.96,2.17,10.29
49.157991,4.203727,21.66,-0.26,1.85,10.48
49.157991,4.203727,21.66,-0.72,1.79,8.83
49.157836,4.203904,21.79,-0.83,1.34,10.46
49.157836,4.203904,21.79,-0.23,1.58,10.05
49.157678,4.204087,21.89,-0.5,1.05,8.75
49.15752,4.204264,22.03,-0.81,1.3,9.77
49.15752,4.204264,22.03,-1.16,1.5,10.84
49.157359,4.204448,22.1,-1.0,0.81,10.14
49.157359,4.204448,22.1,-1.36,1.41,9.64
49.157201,4.204629,21.77,-0.89,0.7,11.04
49.157201,4.204629,21.77,-1.16,0.27,10.07
49.157046,4.204812,21.39,-1.09,0.21,10.84
49.157046,4.204812,21.39,-0.57,1.43,8.12
49.156893,4.204995,21.29,-0.34,1.54,8.12
49.156893,4.204995,21.29,-1.05,0.41,11.75
49.156742,4.205178,21.18,-0.57,1.42,10.12
49.156742,4.205178,21.18,-0.59,1.41,7.6
49.15659,4.205356,21.02,-0.02,1.09,8.79
49.15659,4.205356,21.02,-0.73,0.44,10.76
49.156439,4.205532,20.96,-0.01,1.21,10.98
49.156439,4.205532,20.96,-0.05,1.82,8.24
49.156291,4.205705,21.02,-0.03,1.47,10.76
49.156291,4.205705,21.02,0.33,1.02,9.34
49.156143,4.20588,21.08,-0.02,1.64,10.18
49.156143,4.20588,21.08,-0.04,0.99,11.06
49.155992,4.206053,21.17,-1.08,0.44,8.51
49.155992,4.206053,21.17,-1.02,1.02,9.93
49.155845,4.206232,21.32,0.23,1.43,7.53
49.155845,4.206232,21.32,-0.13,1.58,9.28
49.155693,4.206406,21.44,-1.21,1.14,8.82
49.155693,4.206406,21.44,0.19,1.3,8.83
49.155541,4.206585,21.77,-1.07,1.39,10.38
49.155541,4.206585,21.77,0.08,1.34,9.63
49.155389,4.20677,21.93,-0.79,1.27,10.29
49.155389,4.20677,21.93,0.14,1.11,8.92
49.155231,4.206953,22.14,-1.59,1.03,9.9
49.155231,4.206953,22.14,-0.4,0.79,10.89
49.155073,4.207139,22.41,-0.79,1.6,8.46
49.155073,4.207139,22.41,-0.34,1.97,8.96
49.154912,4.207325,22.42,-0.08,0.9,10.12
49.154912,4.207325,22.42,-0.86,1.28,7.74
49.154755,4.207513,22.13,-1.07,0.81,9.98
49.154755,4.207513,22.13,-0.45,1.58,8.76
49.154597,4.207694,21.96,0.15,1.21,9.21
49.154597,4.207694,21.96,-1.0,1.23,10.92
49.154438,4.20787,21.7,-0.08,0.87,10.67
49.154282,4.208047,21.55,-0.22,0.69,8.09
49.154282,4.208047,21.55,-0.42,0.58,11.47
49.15413,4.208228,21.33,-0.15,1.5,9.52
49.15413,4.208228,21.33,-0.51,1.4,10.07
49.153971,4.208415,21.38,-0.72,1.51,9.91
49.153971,4.208415,21.38,-1.02,0.53,10.7
49.153813,4.2086,21.39,-0.47,1.86,8.7
49.153813,4.2086,21.39,-0.77,1.05,8.77
49.153657,4.208779,21.43,0.22,0.75,9.95
49.153657,4.208779,21.43,0.45,1.49,9.27
49.153501,4.208955,21.55,-0.53,1.02,10.35
49.153501,4.208955,21.55,-0.56,1.93,9.75
49.153349,4.209119,21.6,-0.15,1.11,8.33
49.153349,4.209119,21.6,-0.37,1.17,8.06
49.153195,4.209292,21.71,0.12,1.13,9.1
49.153195,4.209292,21.71,-0.62,0.81,10.94
49.15304,4.209472,21.76,-0.3,1.6,10.99
49.15304,4.209472,21.76,-0.84,0.91,10.1
49.152886,4.209653,21.82,0.28,1.03,9.68
49.152886,4.209653,21.82,-1.0,1.26,8.88
49.152733,4.209833,21.64,-0.9,0.82,9.09
49.152733,4.209833,21.64,-0.71,0.27,8.11
49.152581,4.210013,21.48,0.28,0.62,10.47
49.152581,4.210013,21.48,0.73,1.24,9.7
49.152427,4.210185,21.37,-0.9,1.96,12.33
49.152427,4.210185,21.37,-1.17,0.89,10.11
49.152275,4.21036,21.39,-0.7,1.52,11.82
49.152275,4.21036,21.39,-0.41,1.42,10.5
49.15212,4.210532,21.47,-0.93,1.58,9.01
49.15212,4.210532,21.47,-0.76,1.24,8.8
49.151966,4.210709,21.49,-0.45,1.81,11.92
49.151966,4.210709,21.49,-0.34,1.28,9.58
49.151811,4.210888,21.54,-0.05,1.38,8.85
49.151811,4.210888,21.54,-0.12,1.64,10.98
49.151655,4.211069,21.49,-0.33,1.32,8.46
49.151655,4.211069,21.49,0.35,2.17,10.8
49.151501,4.211247,21.52,-0.71,1.75,9.74
49.151501,4.211247,21.52,-1.34,1.37,9.73
49.151342,4.211422,21.62,-0.13,1.6,9.54
49.151342,4.211422,21.62,-0.62,1.69,9.66
49.151183,4.211598,21.81,-0.66,0.94,10.14
49.151183,4.211598,21.81,-1.18,1.31,9.79
49.151025,4.211777,21.82,-1.25,0.83,10.22
49.150869,4.211955,21.69,-1.81,0.83,10.81
49.150869,4.211955,21.69,-0.56,1.76,9.91
49.150713,4.212136,21.56,-1.22,1.19,10.09
49.150713,4.212136,21.56,-0.71,1.59,9.42
49.150557,4.212316,21.51,0.61,1.81,9.12
49.150557,4.212316,21.51,-0.52,1.35,8.52
49.150402,4.212492,21.37,-0.86,1.17,9.29
49.150402,4.212492,21.37,-1.1,1.62,11.16
49.150251,4.212665,21.31,-0.86,1.28,8.55
49.150251,4.212665,21.31,-0.59,1.22,8.42
49.150098,4.21284,21.35,-0.68,1.34,10.89
49.150098,4.21284,21.35,-0.54,1.43,11.01
49.149943,4.213011,21.38,-0.17,1.77,9.63
49.149943,4.213011,21.38,-0.63,0.8,11.7
49.149782,4.21319,21.5,-0.37,2.21,8.4
49.149782,4.21319,21.5,-0.66,1.94,8.9
49.149626,4.213368,21.56,0.26,2.23,9.35
49.149626,4.213368,21.56,0.08,1.75,10.6
49.149474,4.213548,21.52,-1.49,1.05,10.02
49.149474,4.213548,21.52,0.03,1.66,9.04
49.14932,4.213726,21.46,-0.28,1.46,9.61
49.14932,4.213726,21.46,-0.82,1.18,11.0
49.149166,4.213898,21.46,-0.98,1.72,10.5
49.149166,4.213898,21.46,-0.91,1.58,10.15
49.149014,4.214075,21.54,-0.41,0.98,11.06
49.149014,4.214075,21.54,-0.46,2.08,8.93
49.148857,4.21425,21.61,-0.48,1.13,8.92
49.148857,4.21425,21.61,0.65,1.24,10.49
49.1487,4.214427,21.64,-0.7,1.12,9.54
49.1487,4.214427,21.64,-1.22,0.82,10.43
49.148543,4.214608,21.62,-0.76,1.92,8.49
49.148543,4.214608,21.62,-0.73,0.79,9.16
49.148386,4.214787,21.57,-1.45,1.29,11.64
49.148386,4.214787,21.57,-0.35,1.24,9.67
49.148231,4.214965,21.49,-0.52,1.37,9.26
49.148231,4.214965,21.49,-1.07,1.55,10.25
49.148077,4.215139,21.46,-0.67,1.23,10.55
49.148077,4.215139,21.46,-0.78,0.52,9.84
49.147921,4.215312,21.43,-0.52,1.77,9.06
49.147921,4.215312,21.43,-0.77,2.18,9.78
49.147762,4.215483,21.33,-0.97,1.57,10.73
49.147762,4.215483,21.33,0.08,1.51,9.63
49.14761,4.215659,21.12,-0.34,0.77,11.28
49.147457,4.215835,21.09,-0.47,1.53,11.18
49.147457,4.215835,21.09,-0.68,1.32,8.19
49.147302,4.216003,21.0,-0.21,1.67,10.4
49.147302,4.216003,21.0,0.57,1.25,13.3
49.14715,4.216174,20.97,-0.7,1.5,9.92
49.14715,4.216174,20.97,-0.87,2.14,9.9
49.146994,4.216348,20.96,-0.29,1.11,10.65
49.146994,4.216348,20.96,-1.29,1.62,10.92
49.146842,4.216516,20.84,-1.01,1.82,10.56
49.146842,4.216516,20.84,0.11,1.83,8.94
49.146695,4.216684,20.69,-0.96,1.53,9.12
49.146695,4.216684,20.69,-0.68,1.54,12.41
49.146545,4.216851,20.65,-0.09,1.24,11.62
49.146545,4.216851,20.65,-0.55,1.75,10.67
49.146395,4.217022,20.62,-0.77,1.33,9.32
49.146395,4.217022,20.62,-0.4,1.26,10.65
49.146248,4.217195,20.64,0.51,1.81,9.69
49.146248,4.217195,20.64,-0.11,2.73,10.08
49.146098,4.217368,20.72,-0.18,0.76,8.9
49.146098,4.217368,20.72,-0.34,1.71,8.65
49.145948,4.217537,20.76,-0.14,1.34,8.22
49.145948,4.217537,20.76,0.37,1.03,10.9
49.145802,4.217708,20.88,-1.2,2.2,11.26
49.145802,4.217708,20.88,-1.28,1.92,10.56
49.145651,4.217876,21.11,-0.4,2.47,8.74
49.145651,4.217876,21.11,-0.67,2.59,10.07
49.145499,4.218048,21.29,-0.68,1.58,10.31
49.145499,4.218048,21.29,-0.48,1.39,10.67
49.145344,4.218222,21.67,-0.44,1.26,11.34
49.145344,4.218222,21.67,-1.31,1.64,7.71
49.145189,4.218393,21.85,0.38,2.13,12.41
49.145189,4.218393,21.85,-1.17,1.53,8.92
49.145029,4.218571,22.01,-0.73,0.91,8.22
49.145029,4.218571,22.01,-0.73,2.03,7.68
49.144873,4.218756,22.24,-0.99,0.91,10.84
49.144873,4.218756,22.24,-0.05,1.55,7.58
49.14472,4.218943,22.38,-0.91,0.38,7.5
49.14472,4.218943,22.38,-0.89,0.32,12.16
49.144562,4.21912,22.4,-0.91,0.07,10.47
49.144406,4.219296,22.1,-0.85,0.72,12.03
49.144406,4.219296,22.1,-0.36,1.47,12.58
49.144247,4.219472,22.09,-0.06,0.51,8.16
49.144247,4.219472,22.09,-0.24,1.11,9.64
49.14409,4.219651,22.03,-1.25,0.79,8.92
49.14409,4.219651,22.03,-0.45,-0.14,10.98
49.143932,4.219833,21.89,-0.83,1.05,10.22
49.143932,4.219833,21.89,-0.57,0.7,8.91
49.143774,4.220015,21.75,-0.67,0.92,10.03
49.143774,4.220015,21.75,-1.38,-0.07,10.2
49.143619,4.220204,21.57,-0.57,0.61,9.43
49.143619,4.220204,21.57,-0.37,0.92,9.05
49.143466,4.220403,21.66,-0.81,0.24,10.49
49.143466,4.220403,21.66,-0.59,1.25,10.91
49.143311,4.220598,21.76,-1.12,1.09,10.9
49.143311,4.220598,21.76,-1.94,1.09,10.21
49.14316,4.220801,21.94,-1.61,0.19,10.27
49.14316,4.220801,21.94,-0.99,0.58,9.49
49.143014,4.221005,22.2,0.44,2.01,10.81
49.143014,4.221005,22.2,-1.35,0.13,10.3
49.142869,4.22122,22.3,0.4,0.83,9.08
49.142869,4.22122,22.3,-0.3,0.23,8.21
49.142728,4.221438,22.08,-0.72,0.92,9.19
49.142728,4.221438,22.08,-0.36,1.27,10.7
49.142591,4.221657,21.8,-0.63,0.43,9.2
49.142591,4.221657,21.8,0.01,0.94,11.2
49.142462,4.22188,21.61,-0.38,0.83,10.43
49.142462,4.22188,21.61,-0.29,0.84,10.52
49.142339,4.2221,21.56,-0.64,0.85,9.49
49.142339,4.2221,21.56,-0.73,0.17,9.49
49.142216,4.222324,21.48,-1.43,0.67,9.11
49.142216,4.222324,21.48,-0.76,1.45,9.33
49.14209,4.222548,21.51,-1.44,1.09,11.06
49.14209,4.222548,21.51,-0.92,1.72,10.17
49.141971,4.222777,21.65,-0.62,1.35,8.82
49.141971,4.222777,21.65,-0.11,1.38,10.8
49.141855,4.223006,21.72,-0.38,0.82,9.62
49.141855,4.223006,21.72,-0.23,0.38,7.16
49.141743,4.223243,21.56,0.09,0.62,8.37
49.141743,4.223243,21.56,-0.32,1.65,10.52
49.141626,4.223474,21.43,0.01,1.49,10.46
49.14151,4.223705,21.38,-0.27,1.0,9.7
49.14151,4.223705,21.38,-0.45,1.84,8.64
49.141394,4.223939,21.19,-0.66,1.65,9.56
49.141394,4.223939,21.19,-1.42,0.95,10.37
49.141279,4.224171,21.22,-0.46,1.94,9.52
49.141279,4.224171,21.22,0.28,1.62,9.27
49.141164,4.224404,21.29,-1.18,1.88,7.6
49.141164,4.224404,21.29,0.06,1.09,10.35
49.141048,4.224642,21.76,-0.55,1.52,9.17
49.141048,4.224642,21.76,0.02,1.75,7.94
49.140928,4.224875,21.8,-1.13,1.61,8.75
49.140928,4.224875,21.8,-1.06,1.52,9.41
49.140805,4.225112,22.0,-0.32,1.6,10.24
49.140805,4.225112,22.0,-0.76,1.81,9.98
49.140675,4.225346,22.27,-0.18,1.38,11.44
49.140675,4.225346,22.27,-0.72,1.36,9.06
49.140543,4.225581,22.43,-0.93,1.48,8.25
49.140543,4.225581,22.43,-0.94,1.29,9.04
49.140411,4.225813,22.33,-0.14,0.94,10.75
49.140411,4.225813,22.33,0.3,1.5,9.46
49.140277,4.226045,22.17,-0.16,0.81,8.88
49.140277,4.226045,22.17,-0.16,1.62,9.28
49.140144,4.226268,22.01,-0.88,0.82,12.05
49.140144,4.226268,22.01,0.03,0.79,9.77
49.140006,4.226492,22.02,0.05,1.75,9.28
49.140006,4.226492,22.02,-0.16,1.44,9.87
49.139867,4.226712,21.96,-0.1,1.06,10.23
49.139867,4.226712,21.96,0.18,0.71,11.23
49.139729,4.226926,22.09,0.55,1.46,10.98
49.139729,4.226926,22.09,-0.03,1.81,10.31
49.139584,4.227138,22.29,0.51,1.14,7.65
49.139584,4.227138,22.29,-0.27,1.8,10.83
49.139437,4.227346,22.45,-0.07,1.87,7.85
49.139437,4.227346,22.45,0.51,1.58,10.12
49.139288,4.227553,22.56,0.1,1.78,9.53
49.139288,4.227553,22.56,0.68,0.8,8.81
49.139132,4.22776,22.75,-0.3,2.01,11.37
49.139132,4.22776,22.75,-0.86,1.78,8.19
49.138971,4.227965,22.85,0.05,1.1,8.64
49.138971,4.227965,22.85,-0.13,1.18,9.06
49.138808,4.228163,23.08,-0.91,1.45,9.36
49.138808,4.228163,23.08,0.21,0.93,9.31
49.138646,4.228356,23.25,0.23,1.59,10.71
49.138488,4.228549,23.35,-0.16,0.98,9.32
49.138488,4.228549,23.35,-0.39,1.61,10.94
49.138319,4.228733,23.49,-1.13,1.88,11.72
49.138319,4.228733,23.49,-1.22,1.57,10.05
49.138149,4.22892,23.66,-0.75,0.62,8.42
49.138149,4.22892,23.66,-0.57,0.85,8.58
49.137975,4.229106,23.76,0.37,1.5,10.62
49.137975,4.229106,23.76,-0.46,1.66,7.89
49.137795,4.229293,23.8,0.1,1.1,9.38
49.137795,4.229293,23.8,-0.97,1.24,10.42
49.137616,4.229473,23.74,-0.07,1.21,10.63
49.137616,4.229473,23.74,-0.51,1.48,9.35
49.137436,4.229648,23.67,-0.83,0.93,9.69
49.137436,4.229648,23.67,-0.58,0.76,9.66
49.137256,4.229817,23.4,0.12,0.57,8.35
49.137256,4.229817,23.4,1.19,1.94,10.02
49.137075,4.229977,23.26,-0.98,0.83,9.0
49.137075,4.229977,23.26,-0.11,0.84,9.62
49.136892,4.230131,23.05,-0.58,1.0,10.54
49.136892,4.230131,23.05,-0.02,1.0,7.45
49.136711,4.230282,22.61,-0.33,0.68,10.45
49.136711,4.230282,22.61,-1.38,0.86,9.47
49.136532,4.230427,22.45,-0.29,0.89,11.71
49.136532,4.230427,22.45,-0.41,1.86,10.62
49.136354,4.230573,22.48,-0.27,1.39,8.98
49.136354,4.230573,22.48,-0.24,1.3,8.65
49.13617,4.230716,22.45,-0.57,2.53,8.94
49.13617,4.230716,22.45,-0.51,0.79,11.0
49.13599,4.230849,22.48,-0.09,1.16,10.11
49.13599,4.230849,22.48,-1.25,0.95,7.76
49.135804,4.230977,22.53,-1.19,1.81,12.11
49.135804,4.230977,22.53,0.0,1.47,9.37
49.135617,4.2311,22.47,-0.65,1.58,9.24
49.135617,4.2311,22.47,-1.73,1.58,9.32
49.13543,4.231219,22.51,-0.59,1.63,11.68
49.13543,4.231219,22.51,-0.67,1.27,9.76
49.13524,4.231332,22.54,-1.03,1.33,11.3
49.13505,4.231442,22.57,-1.18,1.05,10.49
49.13505,4.231442,22.57,-0.79,0.98,10.48
49.134862,4.231549,22.46,-0.58,1.13,9.51
49.134862,4.231549,22.46,-0.25,1.46,9.74
49.134678,4.231655,21.95,-0.37,1.28,10.82
49.134678,4.231655,21.95,-0.97,1.06,10.22
49.134496,4.231761,21.35,-0.6,0.83,9.93
49.134496,4.231761,21.35,-0.96,1.36,9.59
49.134316,4.231862,21.22,-0.94,1.05,9.6
49.134316,4.231862,21.22,-0.28,1.79,9.5
49.134137,4.231963,21.17,-1.08,1.78,11.6
49.134137,4.231963,21.17,-0.67,0.89,10.72
49.13396,4.232064,21.16,-0.03,0.78,10.36
49.13396,4.232064,21.16,-1.25,1.24,10.56
49.133782,4.232167,21.16,-0.93,1.7,10.23
49.133782,4.232167,21.16,-0.63,1.92,9.44
49.133602,4.23228,21.15,-1.24,2.09,10.57
49.133602,4.23228,21.15,-0.04,2.05,10.86
49.133429,4.2324,21.24,-0.76,1.74,8.29
49.133429,4.2324,21.24,-0.57,1.6,9.04
49.133258,4.232522,21.32,-1.36,1.31,8.28
49.133258,4.232522,21.32,-0.34,1.49,10.67
49.133089,4.232649,21.54,-0.44,0.96,8.57
49.133089,4.232649,21.54,-0.37,1.31,9.72
49.13292,4.232782,21.66,-0.91,1.0,9.52
49.13292,4.232782,21.66,-0.09,1.67,10.0
49.132752,4.232924,21.74,0.02,1.28,10.1
49.132752,4.232924,21.74,-1.2,1.13,12.45
49.132587,4.233063,21.8,-0.69,1.87,8.98
49.132587,4.233063,21.8,-0.67,1.91,9.13
49.132421,4.233211,21.73,-0.22,0.89,10.01
49.132421,4.233211,21.73,0.21,1.51,11.02
49.132256,4.233363,21.68,0.38,1.28,9.85
49.132256,4.233363,21.68,-0.86,1.82,9.05
49.132088,4.233521,21.52,0.15,2.38,8.68
49.132088,4.233521,21.52,-0.85,1.81,7.49
49.131923,4.23368,21.41,-1.01,0.95,9.09
49.131923,4.23368,21.41,-0.52,0.99,8.86
49.131761,4.233843,21.26,-1.21,0.86,7.95
49.131761,4.233843,21.26,0.06,1.26,9.97
49.131606,4.234014,21.23,-0.94,1.13,7.95
49.131455,4.234192,21.15,-1.15,0.87,10.06
49.131455,4.234192,21.15,0.17,2.02,9.67
49.131302,4.234366,21.15,-0.58,0.88,10.32
49.131302,4.234366,21.15,-0.06,0.84,8.74
49.131153,4.234543,21.3,-0.23,1.27,6.92
49.131153,4.234543,21.3,-1.08,1.37,9.84
49.131001,4.234718,21.34,-1.02,1.44,7.35
49.131001,4.234718,21.34,-1.7,0.45,10.41
49.130848,4.234895,21.51,-1.34,0.62,9.79
49.130848,4.234895,21.51,-1.32,1.3,8.41
49.130693,4.235076,21.69,-0.89,1.5,8.68
49.130693,4.235076,21.69,-0.67,1.07,9.05
49.130538,4.235261,21.79,-0.79,0.23,9.8
49.130538,4.235261,21.79,-0.97,0.57,10.98
49.130385,4.235445,21.54,-1.47,1.15,8.92
49.130385,4.235445,21.54,0.38,1.38,10.05
49.13023,4.235627,21.6,-0.64,1.13,10.55
49.13023,4.235627,21.6,0.21,1.73,7.76
49.130076,4.235808,21.67,0.06,1.31,10.51
49.130076,4.235808,21.67,0.58,1.35,9.2
49.129921,4.235994,21.89,-0.31,1.27,11.57
49.129921,4.235994,21.89,0.13,1.38,10.08
49.129766,4.236177,22.06,-0.0,1.29,7.54
49.129766,4.236177,22.06,-0.31,1.92,8.03
49.129612,4.236361,22.25,-0.59,0.83,9.71
49.129612,4.236361,22.25,-0.8,0.79,12.78
49.129456,4.236545,22.29,-1.14,1.2,11.01
49.129456,4.236545,22.29,-0.87,0.59,10.68
49.129301,4.23673,22.15,-0.92,1.14,9.32
49.129301,4.23673,22.15,-0.94,1.09,10.12
49.129142,4.23691,22.08,-1.45,1.05,8.75
49.129142,4.23691,22.08,-0.54,0.86,10.66
49.128985,4.237091,21.76,0.05,1.24,10.04
49.128985,4.237091,21.76,-0.32,1.69,9.51
49.128831,4.237273,21.61,-0.69,1.0,9.03
49.128831,4.237273,21.61,-0.61,0.59,9.58
49.128677,4.237453,21.28,-0.81,1.36,10.66
49.128677,4.237453,21.28,0.01,0.98,9.56
49.128527,4.237631,21.11,-0.53,2.13,11.34
49.128379,4.237808,20.97,-0.79,0.54,11.76
49.128379,4.237808,20.97,-1.78,0.26,10.18
49.128229,4.237983,21.17,-0.69,1.78,10.02
49.128229,4.237983,21.17,-0.83,0.82,9.2
49.128076,4.23816,21.33,-0.79,1.84,12.41
49.128076,4.23816,21.33,-0.76,0.91,10.88
49.12792,4.238337,21.51,-0.96,0.67,10.43
49.12792,4.238337,21.51,-0.91,1.38,10.5
49.127767,4.238516,21.33,-0.11,0.55,10.75
49.127767,4.238516,21.33,-1.35,0.86,11.17
49.127617,4.238695,21.32,-0.77,1.07,10.97
49.127617,4.238695,21.32,-0.96,1.16,10.81
49.127463,4.238872,21.39,-0.68,2.12,10.41
49.127463,4.238872,21.39,-0.59,0.4,12.06
49.127314,4.239054,21.36,-0.12,1.24,9.98
49.127314,4.239054,21.36,-0.75,0.55,8.15
49.127166,4.239235,21.11,-0.48,0.22,9.84
49.127166,4.239235,21.11,-1.52,0.66,9.48
49.127015,4.239411,21.03,-1.0,0.93,9.46
49.127015,4.239411,21.03,-1.02,1.41,10.12
49.126864,4.239586,21.04,-1.44,1.48,9.78
49.126864,4.239586,21.04,-1.44,1.47,8.3
49.126712,4.239761,21.2,-0.06,0.99,8.78
49.126712,4.239761,21.2,-0.99,0.91,9.03
49.126561,4.239935,21.3,-1.24,1.38,10.38
49.126561,4.239935,21.3,-0.34,1.39,10.81
49.126409,4.240114,21.56,-0.01,1.25,10.73
49.126409,4.240114,21.56,-0.81,1.24,10.1
49.126254,4.240294,21.81,-0.92,1.65,9.06
49.126254,4.240294,21.81,-0.21,1.07,10.54
49.126097,4.240472,22.11,-0.47,1.66,8.65
49.126097,4.240472,22.11,-0.02,0.57,9.88
49.12594,4.240656,22.31,-1.02,1.13,10.59
49.12594,4.240656,22.31,-0.77,1.62,9.02
49.125776,4.240839,22.38,0.17,1.93,8.39
49.125776,4.240839,22.38,-0.81,1.79,8.62
49.125613,4.241025,22.65,-0.75,1.74,14.0
49.125613,4.241025,22.65,-0.69,1.46,8.25
49.125453,4.241216,22.95,-0.57,2.03,11.43
49.125453,4.241216,22.95,0.22,2.11,8.27
49.125291,4.241411,23.3,0.05,2.39,9.88
49.125291,4.241411,23.3,-0.57,2.27,7.95
49.125126,4.241611,23.66,-1.4,0.96,10.01
49.124959,4.241815,24.04,-0.23,2.35,7.12
49.124959,4.241815,24.04,-0.52,1.96,9.08
49.124787,4.242017,24.38,0.01,1.63,9.45
49.124787,4.242017,24.38,-0.47,1.92,12.23
49.12461,4.242217,24.71,-0.06,1.4,9.96
49.12461,4.242217,24.71,-0.65,2.35,10.08
49.124431,4.242421,25.09,-0.36,1.52,6.66
49.124431,4.242421,25.09,-0.66,1.16,9.77
49.124251,4.242633,25.26,-0.62,0.89,11.0
49.124251,4.242633,25.26,-1.25,1.36,7.36
49.12407,4.242846,25.38,-0.13,0.78,9.8
49.12407,4.242846,25.38,-0.57,1.89,8.97
49.123883,4.243058,25.63,0.25,1.81,9.54
49.123883,4.243058,25.63,0.16,2.38,12.76
49.123696,4.243272,25.68,-1.25,2.83,7.97
49.123696,4.243272,25.68,-0.58,2.08,7.84
49.123506,4.243482,25.8,-0.13,1.94,8.82
49.123506,4.243482,25.8,-0.16,1.85,11.19
49.123319,4.243698,25.8,-0.76,1.28,9.76
49.123319,4.243698,25.8,-1.18,1.64,11.93
49.123133,4.243913,25.73,-0.84,1.8,9.26
49.123133,4.243913,25.73,-1.01,0.5,7.59
49.122951,4.24413,25.43,-1.14,2.41,11.09
49.122951,4.24413,25.43,-0.78,1.72,7.32
49.122772,4.244344,25.22,-0.92,1.53,10.07
49.122772,4.244344,25.22,-0.52,1.29,8.17
49.122594,4.244554,25.12,-0.07,1.47,9.08
49.122594,4.244554,25.12,-0.92,1.64,8.89
49.122412,4.244757,24.96,-0.3,1.49,8.91
49.122412,4.244757,24.96,-1.2,1.17,11.24
49.12223,4.244958,24.94,0.04,2.18,8.4
49.12223,4.244958,24.94,-0.17,2.17,9.92
49.122052,4.24516,24.97,0.33,1.61,10.57
49.122052,4.24516,24.97,-0.04,1.11,8.57
49.121871,4.245363,25.09,-1.41,1.59,12.19
49.121871,4.245363,25.09,-0.82,1.05,6.12
49.12169,4.245566,25.15,-0.98,1.57,8.83
49.12169,4.245566,25.15,-0.89,2.42,6.03
49.121506,4.245769,25.28,-0.91,1.28,10.88
49.121506,4.245769,25.28,0.06,1.45,9.96
49.121328,4.245976,25.43,-1.7,1.34,11.15
49.121144,4.246174,25.73,-1.95,0.77,10.38
49.121144,4.246174,25.73,-0.46,0.53,12.28
49.120961,4.246378,25.86,-1.03,1.47,9.44
49.120961,4.246378,25.86,0.08,1.89,6.65
49.120772,4.246586,26.02,-0.9,2.03,9.17
49.120772,4.246586,26.02,0.5,2.4,11.98
49.120582,4.246799,26.06,-0.67,1.04,8.46
49.120582,4.246799,26.06,0.79,1.74,9.31
49.120393,4.247012,26.17,-1.1,1.1,8.37
49.120393,4.247012,26.17,-0.47,1.3,12.64
49.120201,4.247225,26.11,0.05,2.23,8.74
49.120201,4.247225,26.11,-0.71,0.76,8.01
49.120011,4.247443,26.1,-0.85,1.42,11.47
49.120011,4.247443,26.1,-0.67,1.52,9.45
49.11982,4.247654,26.22,-0.08,1.43,6.68
49.11982,4.247654,26.22,0.1,2.01,7.83
49.119623,4.247861,26.26,-0.76,0.97,10.41
49.119623,4.247861,26.26,-0.39,0.9,10.56
49.119428,4.248067,26.3,-1.03,0.95,10.06
49.119428,4.248067,26.3,-0.5,0.85,11.42
49.119234,4.248269,26.03,-0.58,0.54,10.3
49.119234,4.248269,26.03,0.05,1.31,9.62
49.119047,4.248476,25.64,-0.97,1.24,7.03
49.119047,4.248476,25.64,-0.94,1.33,9.43
49.118864,4.248683,25.63,-0.8,1.09,9.84
49.118864,4.248683,25.63,0.06,1.85,7.45
49.118681,4.248891,25.62,-0.44,1.04,10.28
49.118681,4.248891,25.62,-0.36,1.07,11.05
49.118494,4.2491,25.56,-0.35,0.51,12.21
49.118494,4.2491,25.56,-0.71,2.18,9.3
49.118307,4.249308,25.46,-0.81,1.48,11.94
49.118307,4.249308,25.46,-1.43,0.64,11.92
49.118121,4.249516,25.23,-1.12,1.02,11.0
49.118121,4.249516,25.23,-0.68,2.11,10.72
49.117938,4.249724,25.13,1.0,1.88,8.03
49.117938,4.249724,25.13,-0.79,1.27,7.96
49.117758,4.249928,24.94,0.78,1.04,11.71
49.117758,4.249928,24.94,0.6,1.03,9.37
49.11758,4.250131,24.74,-0.75,1.45,8.64
49.11758,4.250131,24.74,0.11,1.48,8.39
49.117396,4.250323,24.61,0.84,1.38,7.35
49.11721,4.250505,24.56,0.02,0.96,9.27
49.11721,4.250505,24.56,-1.47,1.3,7.95
49.117023,4.250677,24.6,-0.74,0.57,9.8
49.117023,4.250677,24.6,0.33,1.45,9.05
49.116833,4.250849,24.75,-1.1,1.65,9.91
49.116833,4.250849,24.75,-0.17,1.01,9.76
49.116643,4.251026,24.98,-0.69,1.84,9.99
49.116643,4.251026,24.98,0.02,1.37,7.13
49.116453,4.251205,25.18,0.65,1.4,12.71
49.116453,4.251205,25.18,-0.3,1.99,8.54
49.11626,4.25138,25.29,-0.57,1.16,8.15
49.11626,4.25138,25.29,-0.28,0.85,10.58
49.116072,4.251554,25.47,-0.36,1.59,9.29
49.116072,4.251554,25.47,-0.76,0.33,10.86
49.115881,4.251734,25.53,-0.94,1.61,11.64
49.115881,4.251734,25.53,-0.62,0.9,10.16
49.115689,4.251913,25.64,0.49,1.69,7.64
49.115689,4.251913,25.64,0.93,0.54,13.6
49.115495,4.25209,25.67,-0.03,0.59,10.63
49.115495,4.25209,25.67,0.03,1.32,9.05
49.115299,4.252265,25.66,-0.74,0.93,11.74
49.115299,4.252265,25.66,-0.87,0.45,11.36
49.1151,4.252441,25.36,-1.11,0.86,9.64
49.1151,4.252441,25.36,-0.19,0.7,11.77
49.114903,4.252618,25.31,-0.65,0.12,7.13
49.114903,4.252618,25.31,-0.83,1.3,8.63
49.114706,4.252794,25.28,0.31,1.04,9.26
49.114706,4.252794,25.28,-0.11,1.14,11.1
49.114511,4.252971,25.22,0.04,1.52,9.06
49.114511,4.252971,25.22,0.57,1.21,8.17
49.114314,4.253141,25.05,-1.42,2.67,9.32
49.114314,4.253141,25.05,-1.05,1.96,10.31
49.114118,4.253314,25.02,-1.32,1.6,5.53
49.114118,4.253314,25.02,-0.26,0.93,7.87
49.113914,4.253493,24.94,-0.6,0.77,13.55
49.113914,4.253493,24.94,0.34,1.47,8.81
49.113715,4.253666,24.8,-1.01,0.9,10.12
49.113715,4.253666,24.8,-0.05,0.65,12.22
49.113517,4.253836,24.76,-0.16,1.06,9.71
49.113322,4.254004,24.71,-1.03,1.68,9.05
49.113322,4.254004,24.71,-0.4,1.45,9.58
49.113129,4.254175,24.65,-1.25,1.29,9.57
49.113129,4.254175,24.65,-0.79,1.09,12.92
49.112936,4.254345,24.63,-0.74,1.03,13.43
49.112936,4.254345,24.63,-0.44,1.84,7.94
49.112744,4.254513,24.64,-0.5,0.88,8.76
49.112744,4.254513,24.64,-0.64,1.07,10.59
49.112552,4.254682,24.7,-0.87,1.59,11.01
49.112552,4.254682,24.7,-1.13,1.7,9.27
49.11236,4.25485,24.73,-0.77,0.66,11.45
49.11236,4.25485,24.73,-1.37,0.97,9.74
49.112166,4.255018,24.76,-1.09,1.33,12.41
49.112166,4.255018,24.76,-1.2,1.08,11.69
49.111971,4.255187,24.78,-0.06,1.46,7.3
49.111971,4.255187,24.78,-1.22,-0.21,12.12
49.111778,4.255358,24.87,-0.65,1.1,13.1
49.111778,4.255358,24.87,0.15,1.21,8.77
49.111587,4.255532,24.84,-0.82,1.57,9.31
49.111587,4.255532,24.84,0.09,0.7,9.91
49.111396,4.255705,24.89,-1.2,1.13,8.26
49.111396,4.255705,24.89,-0.54,2.07,10.03
49.111205,4.255879,24.81,-0.31,1.6,8.53
49.111205,4.255879,24.81,-0.71,1.29,11.32
49.11101,4.256049,24.85,-0.95,1.25,8.08
49.11101,4.256049,24.85,-0.91,1.39,7.12
49.110818,4.25622,24.86,-1.26,0.62,11.33
49.110818,4.25622,24.86,-0.6,1.12,10.84
49.110624,4.25639,24.9,-1.42,1.13,7.98
49.110624,4.25639,24.9,-0.34,1.13,11.75
49.110432,4.256559,24.92,-0.38,1.0,8.71
49.110432,4.256559,24.92,-0.63,1.32,9.69
49.110251,4.256726,24.52,-1.36,0.19,10.11
49.110251,4.256726,24.52,-0.36,1.83,7.19
49.110067,4.256907,24.95,-0.34,0.56,10.84
49.110067,4.256907,24.95,-0.53,1.9,9.4
49.109868,4.257079,24.64,-0.51,2.33,8.07
49.109868,4.257079,24.64,-1.0,1.03,11.09
49.109667,4.257247,24.95,-0.67,1.28,11.48
49.109667,4.257247,24.95,-0.33,0.29,9.61
49.109463,4.25741,24.94,-0.83,0.59,11.1
49.109463,4.25741,24.94,-0.57,0.43,12.03
49.10926,4.257577,24.97,-0.66,0.99,9.36
49.109064,4.257752,25.01,0.42,0.91,8.98
49.109064,4.257752,25.01,-0.68,0.43,8.31
49.10887,4.257926,25.06,-0.09,1.65,9.7
49.10887,4.257926,25.06,-0.73,0.99,9.34
49.108676,4.258101,25.04,-0.92,-0.09,8.52
49.108676,4.258101,25.04,-0.05,2.92,9.23
49.108482,4.258276,25.1,-1.01,2.3,7.39
49.108482,4.258276,25.1,-0.49,1.38,8.93
49.108288,4.258448,25.04,-0.13,1.52,9.12
49.108288,4.258448,25.04,-0.69,1.13,10.54
49.108095,4.258621,25.03,0.02,0.94,12.48
49.108095,4.258621,25.03,-1.46,1.03,10.0
49.107902,4.258792,25.01,-1.38,0.57,13.54
49.107902,4.258792,25.01,-1.1,1.23,10.0
49.107707,4.258964,25.04,-1.11,1.81,8.87
49.107707,4.258964,25.04,-1.38,-0.58,11.33
49.107513,4.259134,24.99,0.31,2.55,9.78
49.107513,4.259134,24.99,0.12,1.17,9.05
49.10732,4.259304,24.99,-0.14,0.8,10.88
49.10732,4.259304,24.99,-1.12,0.97,8.27
49.107126,4.259475,24.98,-0.68,1.37,7.91
49.107126,4.259475,24.98,-0.42,1.93,9.95
49.106931,4.259646,24.95,-0.06,2.8,9.56
49.106931,4.259646,24.95,0.56,0.85,9.44
49.106737,4.259816,24.96,-1.67,0.69,8.67
49.106737,4.259816,24.96,-0.07,1.24,6.31
49.106544,4.259985,24.95,-0.19,1.21,12.48
49.106544,4.259985,24.95,-0.25,1.53,10.78
49.10635,4.260154,24.98,-0.79,0.61,9.56
49.10635,4.260154,24.98,0.16,1.64,10.68
49.106155,4.260323,25.04,0.06,0.72,9.75
49.106155,4.260323,25.04,-0.89,1.94,8.99
49.105961,4.260494,25.01,-0.92,1.25,10.03
49.105961,4.260494,25.01,-0.07,0.97,9.16
49.105766,4.260665,25.0,-0.46,1.31,10.2
49.105766,4.260665,25.0,-0.25,1.63,6.53
49.105571,4.260836,24.98,-0.34,1.6,8.93
49.105571,4.260836,24.98,-0.18,0.57,9.83
49.105378,4.261012,24.84,-0.47,0.93,6.49
49.105186,4.261185,24.73,0.58,1.37,7.9
49.105186,4.261185,24.73,-1.04,1.08,9.35
49.104995,4.261356,24.71,-0.12,1.37,11.2
49.104995,4.261356,24.71,-0.66,0.99,8.77
49.104802,4.261525,24.73,-1.13,1.09,8.26
49.104802,4.261525,24.73,-0.14,0.48,13.37
49.104608,4.261696,24.71,-0.5,1.23,10.8
49.104608,4.261696,24.71,-0.78,1.22,8.93
49.104414,4.261866,24.71,-0.3,1.71,8.41
49.104414,4.261866,24.71,0.02,1.34,9.79
49.104222,4.262034,24.72,-0.83,1.27,10.07
49.104222,4.262034,24.72,-0.18,2.11,11.65
49.104029,4.262202,24.69,-1.18,1.44,12.27
49.104029,4.262202,24.69,-2.11,0.45,11.7
49.103836,4.262369,24.67,-1.18,1.29,11.67
49.103836,4.262369,24.67,-1.33,0.85,8.99
49.103644,4.262539,24.66,-0.34,1.81,11.67
49.103644,4.262539,24.66,-0.72,0.88,8.56
49.103454,4.262706,24.61,-1.05,1.49,10.3
49.103454,4.262706,24.61,-0.39,1.54,8.94
49.103262,4.262874,24.6,0.14,1.11,10.81
49.103262,4.262874,24.6,-0.78,1.38,12.26
49.103068,4.263042,24.53,-1.06,1.13,11.45
49.103068,4.263042,24.53,-0.65,0.88,10.27
49.10288,4.26321,24.38,-1.65,0.44,11.31
49.10288,4.26321,24.38,-0.49,0.86,9.62
49.10269,4.263373,24.26,-0.74,1.19,9.77
49.10269,4.263373,24.26,-0.88,1.43,9.08
49.102501,4.263539,24.25,-0.71,1.01,13.03
49.102501,4.263539,24.25,-0.25,1.63,9.28
49.102313,4.263704,24.18,-0.58,1.49,10.79
49.102313,4.263704,24.18,-1.36,1.13,10.68
49.102126,4.26387,24.09,0.04,0.92,7.81
49.102126,4.26387,24.09,-0.42,1.28,8.97
49.101938,4.264036,24.14,-1.32,1.86,10.54
49.101938,4.264036,24.14,-1.52,0.72,9.4
49.101749,4.264204,24.18,0.37,2.0,9.88
49.101749,4.264204,24.18,-0.9,0.99,7.4
49.101561,4.26437,24.11,-1.15,1.23,10.18
49.101561,4.26437,24.11,-1.17,1.07,10.58
49.101373,4.264535,23.87,-0.4,0.75,6.98
49.101187,4.264698,23.57,-0.79,1.02,7.7
49.101187,4.264698,23.57,-0.7,1.16,11.36
49.101003,4.264858,23.32,-1.16,1.91,11.69
49.101003,4.264858,23.32,-0.68,0.91,10.14
49.100822,4.265016,23.06,-0.69,0.17,11.49
49.100822,4.265016,23.06,0.05,1.05,9.94
49.100647,4.265171,22.25,-0.45,1.02,8.09
49.100647,4.265171,22.25,-0.27,0.68,11.0
49.100474,4.265318,21.57,-0.23,1.31,10.46
49.100474,4.265318,21.57,-0.21,1.14,11.08
49.100308,4.265455,20.23,-0.24,0.31,11.28
49.100308,4.265455,20.23,-0.63,0.22,11.05
49.100151,4.265585,19.19,-0.57,0.58,8.71
49.100151,4.265585,19.19,-0.97,0.86,9.51
49.100005,4.265709,18.15,-0.76,0.26,10.76
49.100005,4.265709,18.15,-0.9,0.89,11.86
49.099867,4.265828,17.01,-0.54,-0.23,11.33
49.099867,4.265828,17.01,-0.66,0.11,11.26
49.09974,4.265942,15.85,-0.57,1.24,9.73
49.09974,4.265942,15.85,-0.11,0.25,10.19
49.099621,4.266044,14.93,-0.77,-0.07,8.77
49.099621,4.266044,14.93,-0.9,0.5,11.31
49.099509,4.26614,13.84,-0.77,0.73,10.17
49.099509,4.26614,13.84,-0.61,0.75,10.54
49.099407,4.266229,12.53,-0.82,0.34,11.31
49.099407,4.266229,12.53,-0.32,0.86,9.67
49.099311,4.266309,11.94,0.2,0.63,10.18
49.099311,4.266309,11.94,-0.11,0.78,10.24
49.099222,4.266384,10.9,1.39,1.12,9.43
49.099222,4.266384,10.9,1.37,0.7,10.07
49.09913,4.26645,10.34,1.34,0.28,10.4
49.09913,4.26645,10.34,1.96,0.5,10.59
49.099042,4.266484,10.02,1.3,0.83,9.48
49.099042,4.266484,10.02,0.4,0.89,8.71
49.098956,4.266478,9.29,-1.82,0.89,10.55
49.098956,4.266478,9.29,-3.08,0.76,9.88
49.098875,4.266461,8.83,-2.83,0.83,9.17
49.098875,4.266461,8.83,-3.39,0.87,9.67
49.098799,4.266461,8.1,-3.61,1.09,8.1
49.098799,4.266461,8.1,-3.51,1.24,9.57
49.098738,4.266529,8.25,-3.15,1.55,8.68
49.098738,4.266529,8.25,-2.47,1.58,8.61
49.098687,4.266626,8.26,-0.64,1.59,10.03
49.098653,4.266729,8.65,0.52,1.73,9.79
49.098653,4.266729,8.65,2.36,1.44,10.1
49.098622,4.266836,9.13,2.1,2.32,9.73
49.098622,4.266836,9.13,1.86,1.72,9.01
49.098567,4.266943,10.48,1.28,2.49,9.28
49.098567,4.266943,10.48,0.68,2.5,9.14
49.098482,4.267029,11.62,-0.48,2.06,9.69
49.098482,4.267029,11.62,-1.06,2.15,9.11
49.098391,4.26711,12.81,-0.67,2.42,11.25
49.098391,4.26711,12.81,-1.05,1.99,9.99
49.098289,4.267198,13.78,-0.34,2.72,10.95
49.098289,4.267198,13.78,-0.49,2.04,9.47
49.098179,4.2673,14.68,-0.26,1.87,8.96
49.098179,4.2673,14.68,-0.48,1.31,9.19
49.098063,4.267411,15.73,-0.29,1.84,9.73
49.098063,4.267411,15.73,-0.46,2.49,10.37
49.097935,4.267524,16.88,-0.78,1.48,9.32
49.097935,4.267524,16.88,-1.29,2.38,9.19
49.0978,4.267647,17.87,0.02,2.09,8.82
49.0978,4.267647,17.87,-0.02,2.21,9.51
49.097657,4.267775,18.75,-1.58,1.64,8.75
49.097657,4.267775,18.75,-0.17,1.66,9.87
49.097509,4.267907,19.47,0.04,1.66,9.81
49.097509,4.267907,19.47,-0.12,1.3,8.96
49.097355,4.268044,20.22,-0.67,1.28,8.42
49.097355,4.268044,20.22,-0.61,1.58,10.29
49.097192,4.268187,21.06,-0.66,1.39,10.54
49.097192,4.268187,21.06,-0.98,1.31,9.0
49.097025,4.268335,21.77,-0.11,1.27,7.29
49.097025,4.268335,21.77,-0.36,1.92,8.7
49.096853,4.268486,22.5,-0.63,1.32,11.71
49.096853,4.268486,22.5,-0.86,2.26,8.97
49.096674,4.268642,23.21,-0.88,1.41,10.77
49.096674,4.268642,23.21,-1.3,0.71,10.1
49.09649,4.268804,23.63,-0.66,0.89,7.17
49.09649,4.268804,23.63,-0.91,2.43,9.03
49.096301,4.268966,24.02,-0.38,1.24,9.72
49.096301,4.268966,24.02,-1.18,1.61,9.06
49.096112,4.269133,24.39,-0.61,2.27,8.89
49.096112,4.269133,24.39,-0.96,1.66,9.56
49.095918,4.269299,24.73,-1.19,1.87,9.35
49.095918,4.269299,24.73,-0.92,1.14,11.17
49.095723,4.269467,25.04,0.16,1.58,8.36
49.095528,4.26964,25.2,-1.33,1.48,13.01
49.095528,4.26964,25.2,-0.31,1.98,9.01
49.09533,4.269814,25.6,-0.45,0.91,6.46
49.09533,4.269814,25.6,-1.41,0.98,9.75
49.095129,4.269991,25.68,-0.06,1.04,8.28
49.095129,4.269991,25.68,-1.02,1.52,9.73
49.094928,4.270166,25.62,-0.04,1.06,8.9
49.094928,4.270166,25.62,-0.31,1.25,10.69
49.094729,4.270341,25.6,-0.39,1.07,10.56
49.094729,4.270341,25.6,-0.42,1.72,7.66
49.094526,4.270509,25.57,-1.22,0.14,12.55
49.094526,4.270509,25.57,-0.3,1.15,11.54
49.094325,4.270681,25.53,-0.87,0.43,9.06
49.094325,4.270681,25.53,-0.39,1.16,8.51
49.094126,4.270854,25.48,-0.66,0.94,10.64
49.094126,4.270854,25.48,-0.44,1.66,10.41
49.093929,4.271025,25.15,0.15,1.0,10.19
49.093929,4.271025,25.15,-0.34,1.33,8.6
49.093733,4.271196,24.97,-0.27,1.69,9.62
49.093733,4.271196,24.97,-1.35,0.92,13.16
49.093537,4.271366,25.0,-0.37,1.16,9.29
49.093537,4.271366,25.0,-0.47,1.06,9.41
49.093338,4.271534,25.08,-0.51,1.26,11.47
49.093338,4.271534,25.08,-0.33,0.43,9.46
49.093142,4.271702,25.07,-0.52,1.92,10.61
49.093142,4.271702,25.07,-0.46,1.64,8.28
49.092947,4.271873,25.04,-0.28,1.58,10.06
49.092947,4.271873,25.04,0.73,1.13,7.16
49.092751,4.272043,24.98,0.31,1.03,10.96
49.092751,4.272043,24.98,-1.35,0.59,11.15
49.092556,4.272215,24.89,0.32,1.53,10.76
49.092556,4.272215,24.89,-0.34,0.41,6.98
49.092361,4.272383,24.77,-0.57,1.04,10.41
49.092361,4.272383,24.77,0.08,1.31,11.15
49.092167,4.272551,24.67,-0.87,1.85,10.55
49.092167,4.272551,24.67,0.2,1.6,7.83
49.091975,4.272717,24.64,-0.25,0.6,9.35
49.091975,4.272717,24.64,-1.13,0.97,11.75
49.091784,4.272885,24.62,0.11,1.98,10.59
49.091591,4.273052,24.66,-0.24,1.91,11.14
49.091591,4.273052,24.66,-0.68,2.18,9.11
49.091398,4.273221,24.62,0.29,1.51,11.32
49.091398,4.273221,24.62,-0.95,1.3,12.96
49.091205,4.273389,24.71,-1.2,1.59,6.64
49.091205,4.273389,24.71,0.08,2.23,8.09
49.091012,4.273553,24.67,0.13,-0.4,7.26
49.091012,4.273553,24.67,-0.86,1.45,9.96
