Location-lat,Location-long,Speed,Accelerometer-X,Accelerometer-Y,Accelerometer-Z
49.91398,3.237308,33.82,-1.67,0.89,8.47
49.913724,3.237573,33.77,-2.15,1.9,9.05
49.913724,3.237573,33.77,-0.05,0.68,8.99
49.91347,3.237836,33.69,-2.05,2.33,10.27
49.91347,3.237836,33.69,-1.01,0.97,8.17
49.913223,3.238098,33.53,-0.95,1.39,8.95
49.913223,3.238098,33.53,-0.33,1.32,9.85
49.912978,3.238371,33.24,-0.16,0.87,9.96
49.912741,3.238639,33.16,-0.23,1.26,8.31
49.912741,3.238639,33.16,-1.2,1.92,9.07
49.912502,3.238897,33.02,-2.26,1.71,9.32
49.912502,3.238897,33.02,-0.44,2.59,10.57
49.912262,3.239154,32.91,-1.83,1.28,9.09
49.912262,3.239154,32.91,-0.97,1.68,9.27
49.912023,3.239419,32.86,-1.67,2.21,10.72
49.912023,3.239419,32.86,-1.89,1.29,9.17
49.911785,3.239686,32.75,1.64,1.13,10.92
49.911785,3.239686,32.75,-0.06,0.65,11.32
49.911546,3.239957,32.55,-1.24,1.84,11.44
49.911546,3.239957,32.55,0.43,1.43,9.9
49.911312,3.240229,32.48,-0.32,1.21,9.83
49.911312,3.240229,32.48,0.56,1.55,10.52
49.911081,3.2405,32.29,-0.48,2.11,10.23
49.911081,3.2405,32.29,1.51,0.66,10.74
49.910847,3.240771,32.24,-0.92,1.76,10.16
49.910847,3.240771,32.24,-1.79,1.15,8.22
49.910616,3.241036,32.03,0.02,1.26,9.24
49.910616,3.241036,32.03,-1.81,1.31,9.68
49.910388,3.241302,31.91,-0.34,1.45,9.65
49.910388,3.241302,31.91,0.28,1.56,11.51
49.910159,3.241568,31.87,-0.94,1.45,10.1
49.910159,3.241568,31.87,0.4,1.78,11.21
49.909933,3.24184,32.0,-0.11,1.46,8.93
49.909933,3.24184,32.0,-0.61,1.04,7.42
49.909713,3.242114,31.88,-0.85,1.23,8.65
49.909713,3.242114,31.88,-1.0,1.3,9.71
49.909491,3.242395,31.95,0.54,1.33,10.55
49.909491,3.242395,31.95,-1.93,1.35,7.98
49.909266,3.24267,32.01,-0.5,1.55,9.54
49.909266,3.24267,32.01,0.06,2.04,10.78
49.909043,3.242957,32.15,-0.67,2.13,9.93
49.909043,3.242957,32.15,-1.92,2.72,9.07
49.908816,3.243251,32.17,-0.84,1.62,9.89
49.908816,3.243251,32.17,-0.58,1.5,9.64
49.908591,3.243532,32.12,0.89,1.46,9.42
49.908591,3.243532,32.12,0.04,1.1,8.41
49.908363,3.243816,32.1,1.16,1.17,10.52
49.908363,3.243816,32.1,-0.08,1.71,10.67
49.908139,3.244101,32.09,-0.05,1.83,11.0
49.907916,3.244378,31.99,-1.8,1.97,10.87
49.907916,3.244378,31.99,0.44,1.47,10.07
49.907691,3.244655,31.93,-0.71,1.99,11.29
49.907691,3.244655,31.93,0.74,1.59,9.98
49.907467,3.244943,31.86,-0.6,1.77,9.16
49.907467,3.244943,31.86,-0.11,2.61,9.69
49.907249,3.245225,31.75,-0.19,1.7,11.39
49.907249,3.245225,31.75,-1.36,1.57,9.71
49.907029,3.245511,31.78,-1.77,2.01,9.73
49.907029,3.245511,31.78,-0.28,1.6,9.07
49.906811,3.245797,31.75,-0.72,2.02,10.0
49.906811,3.245797,31.75,-0.99,1.81,9.74
49.906591,3.246068,31.79,-0.14,1.53,10.43
49.906591,3.246068,31.79,0.11,2.46,12.02
49.906369,3.246347,31.72,0.29,0.92,11.21
49.906369,3.246347,31.72,-0.07,1.28,8.87
49.906149,3.246629,31.67,1.03,0.67,10.64
49.906149,3.246629,31.67,-1.01,1.2,10.92
49.90593,3.246904,31.72,-1.21,2.49,10.07
49.90593,3.246904,31.72,-0.14,1.65,8.75
49.905703,3.247184,31.74,-1.88,1.43,9.34
49.905703,3.247184,31.74,0.96,0.99,10.19
49.905478,3.247462,31.77,0.96,1.17,10.74
49.905478,3.247462,31.77,-0.65,1.69,10.45
49.905257,3.24773,31.71,0.12,1.28,9.64
49.905257,3.24773,31.71,0.43,0.44,9.7
49.905021,3.247998,31.93,0.32,2.12,10.63
49.905021,3.247998,31.93,-0.35,1.64,9.22
49.904786,3.248262,31.88,-0.52,2.01,10.38
49.904786,3.248262,31.88,-0.51,1.05,9.56
49.904555,3.248517,32.0,1.2,1.49,10.29
49.904555,3.248517,32.0,0.29,0.77,9.48
49.90432,3.248773,32.15,0.66,2.12,10.66
49.90432,3.248773,32.15,-0.77,1.58,10.28
49.904088,3.24904,32.16,0.55,2.36,9.51
49.904088,3.24904,32.16,-0.13,2.11,8.66
49.903848,3.249303,32.25,0.51,1.74,12.43
49.903848,3.249303,32.25,-0.01,1.7,8.94
49.90361,3.249554,32.42,0.35,1.04,11.53
49.90361,3.249554,32.42,0.2,1.48,10.28
49.90337,3.249799,32.43,-0.43,2.49,9.67
49.903128,3.250048,32.58,0.06,1.14,9.68
49.903128,3.250048,32.58,-0.15,1.47,11.23
49.902874,3.25029,32.88,0.1,1.96,10.73
49.902874,3.25029,32.88,0.06,0.76,8.31
49.902613,3.250527,33.15,0.2,1.04,8.43
49.902613,3.250527,33.15,-0.34,2.36,10.32
49.902349,3.250755,33.45,-0.71,1.95,7.94
49.902349,3.250755,33.45,0.8,1.35,11.05
49.902084,3.250986,33.21,0.85,1.45,11.86
49.902084,3.250986,33.21,-0.34,2.77,10.98
49.901818,3.251202,33.57,-0.02,0.93,9.04
49.901818,3.251202,33.57,-0.36,3.22,11.6
49.901554,3.25141,34.01,-0.91,2.15,9.41
49.901554,3.25141,34.01,0.68,1.39,9.97
49.901284,3.251622,34.25,-0.51,2.9,9.09
49.901284,3.251622,34.25,-1.86,2.04,11.34
49.901008,3.251834,34.35,-0.56,0.28,9.44
49.901008,3.251834,34.35,0.83,1.72,10.63
49.900751,3.252059,34.38,-0.46,2.18,10.74
49.900751,3.252059,34.38,0.33,1.69,9.62
49.900472,3.252255,34.58,-0.23,-0.1,9.03
49.900472,3.252255,34.58,-1.28,1.02,7.77
49.900184,3.252443,34.52,2.08,-0.1,11.11
49.900184,3.252443,34.52,-0.84,1.63,8.04
49.899894,3.252628,34.54,-1.08,0.25,9.5
49.899894,3.252628,34.54,0.47,0.05,9.4
49.899602,3.25281,33.95,-0.24,1.78,9.48
49.899602,3.25281,33.95,1.0,0.65,9.17
49.899315,3.252978,33.47,-0.87,1.99,10.63
49.899315,3.252978,33.47,-0.36,0.2,11.2
49.899035,3.253133,33.31,-0.78,2.44,10.5
49.899035,3.253133,33.31,1.21,1.01,9.01
49.898752,3.253276,33.19,1.88,0.11,10.02
49.898752,3.253276,33.19,-0.46,1.42,10.26
49.898468,3.253422,33.04,1.53,1.28,10.48
49.898468,3.253422,33.04,0.64,1.26,11.21
49.898182,3.25357,32.96,0.25,1.36,8.13
49.898182,3.25357,32.96,0.63,0.47,10.1
49.897899,3.253708,32.96,2.25,0.48,10.7
49.897899,3.253708,32.96,0.39,1.44,11.16
49.897617,3.253834,33.08,0.2,1.08,9.14
49.897328,3.253952,33.12,-1.23,1.26,9.71
49.897328,3.253952,33.12,0.63,1.12,7.66
49.89704,3.254063,33.15,-0.61,1.06,11.4
49.89704,3.254063,33.15,-0.82,2.45,10.75
49.896747,3.254171,33.1,-0.46,0.95,9.18
49.896747,3.254171,33.1,-0.61,2.04,9.97
49.896454,3.25428,33.24,0.7,1.73,9.13
49.896454,3.25428,33.24,0.6,0.91,12.13
49.896165,3.25438,33.32,-0.27,0.52,8.59
49.896165,3.25438,33.32,0.29,1.06,8.93
49.895871,3.254477,33.3,-1.97,2.11,9.13
49.895871,3.254477,33.3,-1.48,1.17,9.11
49.895576,3.254563,33.35,0.04,0.78,11.38
49.895576,3.254563,33.35,0.23,1.28,8.64
49.895275,3.254655,33.36,-1.27,1.48,10.18
49.895275,3.254655,33.36,0.41,2.32,10.42
49.894978,3.254738,33.28,0.29,1.08,9.45
49.894978,3.254738,33.28,-1.14,1.28,10.14
49.894684,3.25481,33.22,-0.25,1.24,8.25
49.894684,3.25481,33.22,-0.04,0.41,10.43
49.894388,3.254875,33.11,0.27,0.98,11.58
49.894388,3.254875,33.11,0.26,1.12,8.33
49.894097,3.25493,32.91,0.55,1.93,10.81
49.894097,3.25493,32.91,-1.18,1.23,9.85
49.893803,3.254982,32.82,0.52,1.03,9.61
49.893803,3.254982,32.82,-1.78,1.41,8.23
49.89351,3.255029,32.64,-1.96,1.47,8.26
49.89351,3.255029,32.64,-1.52,1.36,8.74
49.893214,3.255071,32.64,1.19,1.03,8.17
49.893214,3.255071,32.64,0.81,1.01,10.89
49.892922,3.255102,32.72,0.55,2.34,11.13
49.892922,3.255102,32.72,-1.42,2.36,9.17
49.892632,3.255125,32.72,0.12,1.83,9.19
49.892632,3.255125,32.72,1.16,1.37,10.92
49.892342,3.255144,32.76,-1.2,1.66,10.12
49.892342,3.255144,32.76,-1.24,0.74,8.69
49.892045,3.255163,32.94,0.34,1.31,9.69
49.892045,3.255163,32.94,0.54,1.75,9.98
49.891746,3.255179,33.02,-1.69,1.1,9.69
49.891746,3.255179,33.02,-0.46,1.42,8.72
49.891447,3.255183,33.14,-1.66,2.75,8.37
49.891447,3.255183,33.14,-0.94,1.7,7.46
49.891148,3.255174,33.27,0.58,2.82,11.18
49.890852,3.255155,33.4,0.06,1.3,9.8
49.890852,3.255155,33.4,-1.16,1.56,9.85
49.890555,3.255126,33.55,0.84,0.42,9.21
49.890555,3.255126,33.55,-2.04,2.26,10.26
49.890254,3.255103,33.62,-0.16,1.64,9.26
49.890254,3.255103,33.62,0.9,1.37,11.73
49.889952,3.255072,33.57,1.69,1.46,11.76
49.889952,3.255072,33.57,-0.67,2.67,9.28
49.889644,3.255041,34.0,0.73,1.21,10.3
49.889644,3.255041,34.0,-1.32,1.08,8.71
49.889336,3.255005,33.82,-0.22,0.94,10.42
49.889336,3.255005,33.82,-0.73,0.73,8.33
49.889028,3.254968,33.81,-0.33,1.81,9.25
49.889028,3.254968,33.81,-0.35,1.49,7.57
49.888722,3.25492,33.89,1.13,1.71,12.28
49.888722,3.25492,33.89,-0.51,2.68,10.62
49.888415,3.254863,33.91,0.82,1.37,10.98
49.888415,3.254863,33.91,-0.12,2.15,10.18
49.88811,3.254803,33.84,-1.46,1.53,11.0
49.88811,3.254803,33.84,0.4,1.13,8.45
49.887812,3.254727,33.88,-1.29,1.73,9.04
49.887812,3.254727,33.88,0.97,1.16,8.71
49.887517,3.25464,33.71,0.4,0.39,9.75
49.887517,3.25464,33.71,1.06,0.68,10.15
49.887227,3.254542,33.64,-0.05,1.09,9.32
49.887227,3.254542,33.64,-2.11,1.52,9.04
49.886937,3.254441,33.61,0.41,1.61,10.67
49.886937,3.254441,33.61,0.02,1.35,11.62
49.886645,3.254341,33.62,-1.82,0.55,7.39
49.886645,3.254341,33.62,0.94,1.25,11.71
49.886353,3.254235,33.58,0.79,0.71,9.84
49.886353,3.254235,33.58,-0.73,2.83,10.41
49.886063,3.254124,33.59,1.02,1.92,11.4
49.886063,3.254124,33.59,-0.59,2.21,9.73
49.885772,3.254014,33.65,1.7,0.98,8.25
49.885772,3.254014,33.65,1.3,0.87,13.33
49.885473,3.253897,33.61,-0.86,0.73,10.32
49.885473,3.253897,33.61,-0.57,2.39,9.85
49.885181,3.253775,33.36,0.19,1.51,11.96
49.885181,3.253775,33.36,-1.71,1.05,10.86
49.884892,3.253648,33.34,-0.33,0.73,9.17
49.884602,3.253522,33.19,-1.28,2.51,9.41
49.884602,3.253522,33.19,1.14,1.21,11.23
49.884308,3.253393,33.11,1.72,1.07,10.27
49.884308,3.253393,33.11,0.42,1.5,10.68
49.884023,3.253249,32.97,0.53,1.98,11.33
49.884023,3.253249,32.97,0.25,1.92,8.61
49.883743,3.253095,32.72,1.39,1.25,10.07
49.883743,3.253095,32.72,-1.5,2.44,8.45
49.883461,3.252941,32.53,0.75,1.47,9.03
49.883461,3.252941,32.53,0.03,1.64,9.77
49.883184,3.252781,32.36,-0.55,1.94,9.6
49.883184,3.252781,32.36,-1.11,1.92,11.05
49.882909,3.252614,32.15,0.39,1.81,9.4
49.882909,3.252614,32.15,1.07,1.27,12.77
49.88264,3.252446,31.95,-1.7,1.36,9.84
49.88264,3.252446,31.95,0.44,1.64,10.9
49.882374,3.252277,31.72,1.86,1.07,9.24
49.882374,3.252277,31.72,-0.5,0.91,11.73
49.882111,3.252104,31.62,0.2,1.01,11.2
49.882111,3.252104,31.62,0.64,0.98,10.4
49.881854,3.251919,31.42,-0.19,1.99,8.49
49.881854,3.251919,31.42,-1.05,1.83,8.37
49.881601,3.251727,31.3,-0.75,1.39,9.85
49.881601,3.251727,31.3,-0.26,1.33,10.53
49.881347,3.251532,31.15,1.4,0.98,11.33
49.881347,3.251532,31.15,1.35,1.91,10.29
49.881103,3.25133,31.05,0.72,1.36,8.53
49.881103,3.25133,31.05,0.76,1.73,9.49
49.880858,3.251135,30.99,0.07,0.82,9.93
49.880858,3.251135,30.99,1.35,1.03,10.61
49.880615,3.250927,30.89,-0.09,1.27,9.93
49.880615,3.250927,30.89,-0.06,1.78,10.23
49.880374,3.250707,30.8,-0.77,1.4,8.96
49.880374,3.250707,30.8,-0.31,1.73,9.8
49.88014,3.250479,30.78,-1.39,2.19,9.89
49.88014,3.250479,30.78,-1.19,2.07,11.67
49.879906,3.250251,30.75,-0.65,1.69,9.33
49.879906,3.250251,30.75,-0.89,1.25,10.56
49.879669,3.250029,30.81,-0.34,1.07,9.19
49.879425,3.249817,30.82,-0.28,1.3,10.22
49.879425,3.249817,30.82,-1.55,1.82,9.27
49.879188,3.249594,30.82,-1.1,1.05,9.28
49.879188,3.249594,30.82,-1.24,1.73,8.89
49.878956,3.249363,30.93,-1.86,1.51,9.73
49.878956,3.249363,30.93,-0.3,1.76,9.72
49.878714,3.249139,31.05,0.16,1.28,9.24
49.878714,3.249139,31.05,0.36,1.88,10.05
49.878482,3.248902,31.16,-0.23,2.42,10.11
49.878482,3.248902,31.16,-0.93,1.1,10.1
49.878251,3.248657,31.26,0.48,0.73,10.24
49.878251,3.248657,31.26,-1.58,1.84,11.2
49.878024,3.248398,31.3,-0.45,1.65,9.29
49.878024,3.248398,31.3,-0.97,1.4,9.72
49.877803,3.248131,31.39,-0.09,1.58,10.86
49.877803,3.248131,31.39,-1.02,1.47,12.66
49.877576,3.247875,31.51,-0.27,1.42,10.51
49.877576,3.247875,31.51,1.66,1.37,10.36
49.877344,3.247621,31.6,-0.99,2.03,9.1
49.877344,3.247621,31.6,-0.65,1.68,9.75
49.877109,3.247365,31.73,-0.66,1.59,9.47
49.877109,3.247365,31.73,-0.73,1.62,8.78
49.876875,3.247111,31.87,-0.03,2.13,9.16
49.876875,3.247111,31.87,-0.45,1.14,10.74
49.876638,3.246851,32.02,0.34,0.61,11.44
49.876638,3.246851,32.02,-0.27,1.23,10.9
49.876402,3.246586,32.17,-1.42,1.92,9.66
49.876402,3.246586,32.17,-0.15,2.11,10.06
49.876171,3.246322,32.36,-0.09,1.24,10.05
49.876171,3.246322,32.36,-0.62,0.82,9.61
49.875939,3.24605,32.58,0.73,1.4,10.09
49.875939,3.24605,32.58,-1.68,2.02,9.34
49.875709,3.245777,32.76,-1.24,2.16,8.01
49.875709,3.245777,32.76,-1.3,1.92,7.74
49.875468,3.24551,32.98,-0.44,1.45,11.18
49.875468,3.24551,32.98,-1.92,2.04,8.3
49.875225,3.245249,33.17,-0.04,1.07,9.22
49.875225,3.245249,33.17,-2.37,1.58,8.7
49.874978,3.244988,33.39,-1.69,1.04,7.94
49.874978,3.244988,33.39,-1.33,2.22,9.52
49.874724,3.244733,33.49,-0.37,0.6,9.62
49.874724,3.244733,33.49,-2.54,1.48,11.72
49.874472,3.244475,33.6,-1.69,1.16,8.83
49.874216,3.244217,33.64,-0.84,1.41,8.4
49.874216,3.244217,33.64,-1.64,0.1,8.99
49.873967,3.243961,33.1,-1.12,1.82,10.3
49.873967,3.243961,33.1,-1.52,0.88,9.02
49.87372,3.243709,32.94,-1.21,1.36,9.36
49.87372,3.243709,32.94,2.85,1.81,13.2
49.873476,3.243452,33.04,-1.7,1.5,8.82
49.873476,3.243452,33.04,-0.29,1.11,8.94
49.873231,3.243197,33.22,-1.62,2.56,9.23
49.873231,3.243197,33.22,0.2,0.89,10.39
49.872978,3.242951,33.32,0.14,0.96,11.75
49.872978,3.242951,33.32,-2.2,0.66,10.34
49.872725,3.242703,33.4,-2.1,1.93,11.02
49.872725,3.242703,33.4,-0.76,2.67,7.66
49.872468,3.242467,33.54,1.15,0.55,11.94
49.872468,3.242467,33.54,-0.31,1.3,9.88
49.872213,3.24223,33.37,-2.6,0.71,8.86
49.872213,3.24223,33.37,-2.74,1.46,9.61
49.87196,3.241998,33.35,-1.19,1.76,9.57
49.87196,3.241998,33.35,-1.2,1.88,8.96
49.871701,3.241771,33.35,-0.57,1.24,9.47
49.871701,3.241771,33.35,-1.78,1.7,9.07
49.871441,3.241549,33.34,-0.03,0.44,8.33
49.871441,3.241549,33.34,0.79,0.64,11.41
49.871181,3.241327,33.37,-0.4,0.11,9.11
49.871181,3.241327,33.37,-1.12,1.3,8.57
49.870918,3.241109,33.37,-1.27,0.9,8.49
49.870918,3.241109,33.37,0.54,1.54,10.99
49.870653,3.240897,33.31,0.1,1.03,8.9
49.870653,3.240897,33.31,0.24,0.55,9.59
49.870389,3.240691,33.25,-0.42,0.81,10.64
49.870389,3.240691,33.25,-0.89,0.62,9.5
49.870121,3.240484,33.23,-1.62,1.49,11.88
49.870121,3.240484,33.23,-2.1,2.29,9.53
49.869854,3.24027,33.14,-0.32,1.67,8.16
49.869854,3.24027,33.14,-1.77,3.01,10.33
49.869581,3.240069,33.11,-0.09,1.92,9.4
49.869581,3.240069,33.11,-0.36,1.39,10.37
49.869314,3.239875,33.05,-0.23,1.8,13.11
49.869046,3.239678,33.15,0.51,1.41,8.75
49.869046,3.239678,33.15,0.46,0.47,9.73
49.868777,3.239483,33.23,-1.37,1.08,9.53
49.868777,3.239483,33.23,-1.92,0.46,8.34
49.868506,3.239284,33.26,-1.13,1.44,10.66
49.868506,3.239284,33.26,-1.39,0.84,7.61
49.868232,3.239095,33.32,1.11,1.48,9.9
49.868232,3.239095,33.32,-1.1,1.75,8.87
49.867959,3.238906,33.29,-0.29,0.78,10.02
49.867959,3.238906,33.29,-2.94,1.86,10.51
49.867691,3.238716,33.42,-0.79,0.17,8.91
49.867691,3.238716,33.42,-0.7,1.87,9.4
49.86741,3.238549,33.42,-1.3,0.91,8.66
49.86741,3.238549,33.42,-0.56,2.45,9.65
49.867123,3.238393,33.51,-0.37,1.26,9.07
49.867123,3.238393,33.51,-0.3,1.35,12.33
49.866843,3.23823,33.56,-1.13,1.52,8.59
49.866843,3.23823,33.56,-0.71,2.31,9.8
49.866558,3.238063,33.66,-1.69,0.99,6.95
49.866558,3.238063,33.66,-0.08,1.64,10.76
49.866267,3.23791,33.79,-1.67,1.39,10.46
49.866267,3.23791,33.79,-0.5,1.5,9.39
49.865983,3.23775,33.9,-2.31,2.05,12.69
49.865983,3.23775,33.9,1.19,1.03,8.63
49.865693,3.237599,33.92,-1.89,0.67,8.44
49.865693,3.237599,33.92,-1.45,1.61,11.31
49.865401,3.237449,34.07,-0.3,1.26,8.71
49.865401,3.237449,34.07,-2.42,0.03,7.56
49.86511,3.237294,34.06,-0.95,1.58,10.1
49.86511,3.237294,34.06,-0.46,0.96,8.53
49.864819,3.237164,34.16,-2.65,0.69,8.34
49.864819,3.237164,34.16,-2.59,2.41,9.93
49.864528,3.237026,34.3,-1.03,1.3,11.35
49.864528,3.237026,34.3,0.86,1.06,11.51
49.864231,3.236888,34.34,0.11,2.44,11.36
49.864231,3.236888,34.34,-1.71,3.17,10.59
49.863931,3.236757,34.49,-2.06,2.23,8.73
49.863931,3.236757,34.49,-1.68,2.29,11.08
49.863633,3.236628,34.51,-1.24,0.11,7.51
49.863633,3.236628,34.51,-0.61,0.12,8.49
49.863342,3.236494,34.53,-1.95,1.78,8.91
49.863342,3.236494,34.53,-1.51,1.63,10.06
49.863041,3.236373,34.59,-1.36,1.12,10.47
49.862741,3.236256,34.55,-1.74,-0.87,10.02
49.862741,3.236256,34.55,0.4,1.19,9.65
49.862439,3.236141,34.5,-1.27,1.52,9.88
49.862439,3.236141,34.5,0.64,0.04,8.0
49.862142,3.23602,33.94,-1.18,-0.73,8.79
49.862142,3.23602,33.94,-2.19,1.28,8.27
49.861844,3.235914,33.6,-0.96,0.76,8.52
49.861844,3.235914,33.6,-1.45,2.49,10.82
49.86155,3.235813,33.54,-0.72,1.48,8.4
49.86155,3.235813,33.54,-1.58,2.84,8.69
49.861258,3.235719,33.64,0.47,1.05,10.78
49.861258,3.235719,33.64,-0.73,1.15,8.71
49.860967,3.235627,33.74,1.35,1.2,11.17
49.860967,3.235627,33.74,-0.86,0.71,9.0
49.860667,3.235539,33.87,-1.31,2.49,11.13
49.860667,3.235539,33.87,-0.57,1.42,11.18
49.860371,3.235447,33.88,-1.73,2.63,8.49
49.860371,3.235447,33.88,-0.52,2.46,11.81
49.860071,3.235361,33.82,-0.04,0.67,10.74
49.860071,3.235361,33.82,-1.17,2.52,10.67
49.859767,3.235281,33.92,-0.47,-0.28,5.71
49.859767,3.235281,33.92,-3.15,2.87,9.28
49.859465,3.235198,33.83,-0.32,1.41,10.44
49.859465,3.235198,33.83,-2.14,1.11,8.44
49.859159,3.235128,33.88,-2.46,1.21,10.14
49.859159,3.235128,33.88,-0.06,1.45,9.58
49.858861,3.23506,33.9,-1.89,0.86,8.91
49.858861,3.23506,33.9,0.33,1.37,11.64
49.858553,3.235005,33.81,-2.25,0.88,7.92
49.858553,3.235005,33.81,-1.4,2.24,9.25
49.858249,3.234945,33.78,-1.5,1.39,10.51
49.858249,3.234945,33.78,0.3,1.44,10.57
49.857947,3.234883,33.79,-1.96,1.41,11.82
49.857947,3.234883,33.79,0.89,1.11,9.99
49.857644,3.234822,33.68,1.14,2.25,15.34
49.857644,3.234822,33.68,-1.02,1.1,8.41
49.85734,3.234771,33.65,0.16,1.67,10.18
49.85734,3.234771,33.65,-1.6,1.21,11.01
49.857034,3.23473,33.69,-0.51,1.47,9.43
49.857034,3.23473,33.69,-0.59,1.24,11.16
49.856732,3.234687,33.57,-2.08,0.79,9.77
49.856732,3.234687,33.57,-0.45,1.71,11.27
49.856434,3.234642,33.57,-1.69,0.78,9.28
49.856136,3.234601,33.4,0.47,0.98,10.83
49.856136,3.234601,33.4,0.52,1.14,10.82
49.85584,3.23456,33.39,-0.05,0.3,10.33
49.85584,3.23456,33.39,-1.8,1.96,8.39
49.855543,3.234528,33.4,-0.76,0.97,9.41
49.855543,3.234528,33.4,-0.79,2.25,9.32
49.855239,3.234508,33.31,-0.69,1.42,8.4
49.855239,3.234508,33.31,-2.03,1.67,10.07
49.854935,3.234487,33.29,-1.45,0.86,8.68
49.854935,3.234487,33.29,-1.68,2.32,9.33
49.854639,3.234457,33.24,-0.8,2.09,8.61
49.854639,3.234457,33.24,-0.66,1.13,10.07
49.854346,3.234427,33.18,0.42,1.54,10.89
49.854346,3.234427,33.18,-0.55,0.51,8.73
49.854049,3.234416,33.21,-1.06,1.66,9.75
49.854049,3.234416,33.21,-1.6,1.26,9.72
49.853754,3.234409,33.19,-1.47,1.75,8.74
49.853754,3.234409,33.19,0.27,1.48,8.78
49.853461,3.234389,33.24,1.13,0.82,11.45
49.853461,3.234389,33.24,-1.22,2.32,9.3
49.853169,3.234368,33.28,-1.85,1.54,9.07
49.853169,3.234368,33.28,-1.74,2.19,11.7
49.852872,3.234357,33.26,-0.78,0.6,7.38
49.852872,3.234357,33.26,0.64,1.09,10.56
49.852573,3.23435,33.33,-0.54,2.12,9.98
49.852573,3.23435,33.33,-0.13,1.03,9.58
49.852272,3.234348,33.42,-2.28,2.73,9.7
49.852272,3.234348,33.42,-0.5,1.23,10.82
49.851972,3.23435,33.48,0.19,1.82,9.22
49.851972,3.23435,33.48,-1.51,1.18,7.9
49.851665,3.234365,33.46,-2.15,1.76,9.2
49.851665,3.234365,33.46,0.5,0.85,12.0
49.851357,3.234381,33.44,-1.46,1.6,6.53
49.851357,3.234381,33.44,-0.7,0.91,8.01
49.851056,3.23439,33.44,-0.91,2.63,10.98
49.851056,3.23439,33.44,0.55,0.85,9.11
49.850754,3.234401,33.45,-1.1,2.32,10.53
49.850754,3.234401,33.45,-1.29,0.5,8.56
49.85045,3.234423,33.39,-2.18,1.96,10.96
49.85045,3.234423,33.39,-0.48,2.53,9.04
49.850148,3.234447,33.3,-0.31,2.23,10.94
49.84985,3.234471,33.27,-0.87,1.36,9.05
49.84985,3.234471,33.27,-1.27,1.14,9.43
49.849553,3.234493,33.27,-0.57,2.26,10.32
49.849553,3.234493,33.27,-0.36,2.14,10.81
49.849252,3.23452,33.2,0.75,2.01,10.24
49.849252,3.23452,33.2,-0.28,2.12,9.19
49.848959,3.23455,33.23,0.02,1.0,8.5
49.848959,3.23455,33.23,-1.64,1.79,11.01
49.848666,3.234582,33.12,-1.99,1.12,7.51
49.848666,3.234582,33.12,-1.28,1.34,12.56
49.84837,3.23462,33.09,-1.77,1.13,11.82
49.84837,3.23462,33.09,-1.4,1.58,7.69
49.848076,3.23466,33.02,-2.47,1.98,11.91
49.848076,3.23466,33.02,-1.13,2.67,10.76
49.847778,3.234708,32.99,-0.65,1.09,7.77
49.847778,3.234708,32.99,-0.65,1.32,8.77
49.847484,3.23475,33.0,-2.28,0.92,9.49
49.847484,3.23475,33.0,-2.07,1.87,8.81
49.847189,3.234795,33.08,-1.38,1.95,11.33
49.847189,3.234795,33.08,-0.41,2.26,12.29
49.846889,3.234849,33.12,-0.17,1.02,9.54
49.846889,3.234849,33.12,-0.21,2.07,10.7
49.846592,3.234899,33.28,-1.93,0.65,10.12
49.846592,3.234899,33.28,-0.99,2.03,11.16
49.846294,3.234955,33.45,-2.12,0.44,7.6
49.846294,3.234955,33.45,0.56,1.76,12.38
49.845996,3.235019,33.61,-0.61,-0.1,10.07
49.845996,3.235019,33.61,-2.34,2.41,9.48
49.845696,3.235088,33.83,0.08,1.19,9.5
49.845696,3.235088,33.83,-1.19,2.35,10.53
49.845395,3.235159,33.64,0.03,0.43,7.82
49.845395,3.235159,33.64,-1.81,1.95,11.28
49.845096,3.235225,33.61,0.35,0.86,9.29
49.845096,3.235225,33.61,-2.6,1.94,9.86
49.844799,3.235284,33.59,-1.24,0.44,11.4
49.844799,3.235284,33.59,-1.02,1.76,10.66
49.844501,3.235356,33.54,-0.98,0.96,9.63
49.844501,3.235356,33.54,-1.02,2.14,10.03
49.844204,3.235432,33.53,0.57,1.06,8.76
49.844204,3.235432,33.53,-0.44,0.92,7.67
49.843907,3.235506,33.48,0.77,1.19,10.27
49.843907,3.235506,33.48,0.31,2.04,10.14
49.843611,3.235586,33.49,0.06,1.98,6.86
49.843611,3.235586,33.49,-2.33,2.33,8.83
49.843315,3.235664,33.5,0.57,0.43,9.01
49.843016,3.235752,33.39,-0.55,1.82,6.13
49.843016,3.235752,33.39,-1.16,1.08,5.87
49.842715,3.235841,33.26,-2.04,2.67,8.86
49.842715,3.235841,33.26,-0.89,1.55,11.28
49.842423,3.235918,33.38,1.0,0.86,9.85
49.842423,3.235918,33.38,-2.17,1.92,10.9
49.842124,3.236008,33.43,-1.64,0.35,6.72
49.842124,3.236008,33.43,-2.25,1.02,9.85
49.841826,3.236098,33.46,0.58,0.5,10.55
49.841826,3.236098,33.46,-2.05,2.37,11.17
49.84153,3.236197,33.54,1.29,1.82,10.83
49.84153,3.236197,33.54,-0.38,1.77,7.8
49.841232,3.236299,33.66,0.12,0.73,7.58
49.841232,3.236299,33.66,-0.16,1.59,10.08
49.840939,3.236392,33.78,-2.16,1.75,10.22
49.840939,3.236392,33.78,0.15,1.41,9.33
49.840645,3.236484,33.95,-1.23,2.33,9.96
49.840645,3.236484,33.95,1.05,0.37,10.89
49.840347,3.236579,34.01,-1.24,0.42,9.25
49.840347,3.236579,34.01,-1.94,2.22,9.89
49.840048,3.236677,34.22,-1.19,1.4,10.54
49.840048,3.236677,34.22,1.67,1.42,11.69
49.839753,3.236776,34.42,0.71,1.15,9.16
49.839753,3.236776,34.42,-1.51,3.0,10.85
49.839458,3.236882,34.52,-1.98,2.76,9.26
49.839458,3.236882,34.52,0.57,1.58,6.12
49.839162,3.236991,34.68,0.77,0.55,9.45
49.839162,3.236991,34.68,0.96,1.56,10.78
49.838867,3.237112,34.84,1.09,1.09,10.79
49.838867,3.237112,34.84,1.26,-0.05,8.84
49.838566,3.23724,34.89,0.16,0.59,9.58
49.838566,3.23724,34.89,-1.08,-0.05,11.66
49.838266,3.237372,35.0,-0.69,0.23,9.45
49.838266,3.237372,35.0,0.21,1.11,9.53
49.837962,3.237506,35.14,-0.36,0.47,9.6
49.837962,3.237506,35.14,-0.7,1.19,10.86
49.837658,3.237645,34.64,-0.58,-0.56,9.78
49.837658,3.237645,34.64,0.36,0.02,10.33
49.837365,3.237779,34.04,-0.05,1.57,10.05
49.837081,3.237913,33.5,-1.28,-0.1,10.41
49.837081,3.237913,33.5,-0.44,1.68,10.14
49.836799,3.238047,33.03,-0.33,-0.26,10.01
49.836799,3.238047,33.03,0.34,0.5,9.62
49.836517,3.23818,32.86,-2.59,1.66,8.2
49.836517,3.23818,32.86,-2.49,0.95,8.13
49.836231,3.23832,32.78,-1.21,0.78,6.95
49.836231,3.23832,32.78,-0.88,1.96,10.49
49.835948,3.238465,32.92,-1.62,1.04,9.19
49.835948,3.238465,32.92,-0.04,0.93,11.21
49.835668,3.238611,33.02,-0.65,1.8,10.84
49.835668,3.238611,33.02,-0.62,0.73,8.1
49.835387,3.238762,33.09,-0.02,0.94,8.72
49.835387,3.238762,33.09,-1.32,1.86,8.47
49.835101,3.23892,33.2,-0.03,0.54,10.61
49.835101,3.23892,33.2,-1.22,0.95,11.37
49.834818,3.23908,33.29,-1.27,0.51,8.54
49.834818,3.23908,33.29,-1.17,1.41,10.3
49.83454,3.239238,33.34,-1.79,1.84,10.62
49.83454,3.239238,33.34,0.21,1.22,10.24
49.834262,3.239408,33.36,-1.48,0.87,8.19
49.834262,3.239408,33.36,-1.69,0.73,9.86
49.833981,3.239584,33.25,-1.79,1.24,10.62
49.833981,3.239584,33.25,-1.39,0.8,9.89
49.833706,3.239762,33.3,-0.19,1.35,9.39
49.833706,3.239762,33.3,0.75,1.83,10.61
49.833428,3.239947,33.48,-0.31,1.13,10.32
49.833428,3.239947,33.48,-0.52,1.6,10.17
49.833148,3.240133,33.67,-1.35,1.04,11.55
49.833148,3.240133,33.67,0.28,1.18,8.09
49.83287,3.240321,34.0,0.86,0.56,11.72
49.83287,3.240321,34.0,0.22,1.7,10.45
49.83259,3.240516,34.25,0.76,1.33,9.99
49.83259,3.240516,34.25,-1.13,1.02,9.83
49.832313,3.240716,34.47,-0.93,2.79,10.03
49.832313,3.240716,34.47,-0.85,2.14,8.48
49.832042,3.240932,34.78,-1.26,2.89,8.45
49.832042,3.240932,34.78,0.65,1.49,11.16
49.831763,3.241152,34.96,-1.15,1.53,11.61
49.831763,3.241152,34.96,-0.86,2.12,8.38
49.831478,3.241386,35.36,0.09,1.33,11.18
49.831478,3.241386,35.36,-1.18,0.63,10.2
49.8312,3.241622,35.29,-0.68,0.98,8.01
49.830921,3.241868,34.71,0.09,1.17,11.19
49.830921,3.241868,34.71,0.19,0.81,10.27
49.830641,3.242099,34.59,-1.34,0.66,7.56
49.830641,3.242099,34.59,-0.55,1.61,10.41
49.830367,3.24234,34.48,-0.16,1.87,10.3
49.830367,3.24234,34.48,-0.1,0.94,10.86
49.830098,3.242593,34.36,0.19,1.09,8.61
49.830098,3.242593,34.36,0.43,1.84,10.5
49.829837,3.242853,34.43,-1.59,1.88,9.37
49.829837,3.242853,34.43,0.33,0.99,10.04
49.829578,3.243114,34.44,-1.15,0.73,9.93
49.829578,3.243114,34.44,-1.7,0.09,8.37
49.829318,3.243387,34.39,-1.13,1.6,11.53
49.829318,3.243387,34.39,1.1,1.01,10.19
49.829061,3.243666,34.34,0.04,0.68,8.84
49.829061,3.243666,34.34,-2.13,2.14,8.87
49.828813,3.243944,34.34,-1.02,2.13,9.99
49.828813,3.243944,34.34,-0.96,1.95,12.82
49.828575,3.244224,34.29,0.62,0.88,9.93
49.828575,3.244224,34.29,-0.48,2.61,11.39
49.828338,3.244514,34.38,-1.12,2.01,9.39
49.828338,3.244514,34.38,1.78,1.03,11.15
49.8281,3.244814,34.39,-1.49,0.23,9.11
49.8281,3.244814,34.39,-1.05,0.52,7.86
49.827867,3.24512,34.41,-0.74,0.71,11.22
49.827867,3.24512,34.41,-0.54,1.5,9.86
49.827658,3.245463,34.3,-1.13,0.97,9.57
49.827658,3.245463,34.3,-1.04,0.07,9.23
49.82744,3.245785,34.04,-1.66,1.56,10.48
49.82744,3.245785,34.04,0.5,0.9,9.29
49.827206,3.246104,33.97,-1.52,-0.01,8.21
49.827206,3.246104,33.97,-0.67,1.08,10.76
49.82698,3.246427,34.07,-0.52,1.21,10.37
49.82698,3.246427,34.07,0.08,1.32,8.39
49.826759,3.246753,33.94,-1.54,2.93,10.21
49.826759,3.246753,33.94,-2.07,0.53,10.08
49.826544,3.247086,33.87,-0.23,2.35,12.16
49.826544,3.247086,33.87,-1.29,1.64,10.25
49.826333,3.247428,33.82,-0.77,2.34,10.31
49.826333,3.247428,33.82,-1.29,1.05,11.06
49.826125,3.247784,33.83,0.79,0.69,10.16
49.826125,3.247784,33.83,-2.27,2.19,10.59
49.825927,3.248135,33.86,1.51,0.91,11.48
49.825732,3.248495,33.86,-1.48,2.49,9.17
49.825732,3.248495,33.86,0.4,1.39,10.93
49.825543,3.248855,33.81,-0.5,0.27,9.24
49.825543,3.248855,33.81,0.72,-0.03,10.17
49.825355,3.249225,33.86,-0.19,0.82,8.88
49.825355,3.249225,33.86,-0.25,1.57,9.36
49.825175,3.249594,33.81,-2.17,0.39,5.68
49.825175,3.249594,33.81,0.19,2.04,9.62
49.825002,3.249969,33.87,-1.92,1.48,10.44
49.825002,3.249969,33.87,-0.11,0.74,9.34
49.824833,3.250351,33.78,-1.73,2.26,8.26
49.824833,3.250351,33.78,1.18,1.41,10.41
49.824666,3.250729,33.74,1.24,1.36,10.54
49.824666,3.250729,33.74,0.23,1.31,8.57
49.824499,3.251106,33.65,1.05,2.26,9.73
49.824499,3.251106,33.65,-0.98,1.27,12.49
49.824337,3.251489,33.67,0.24,1.16,8.93
49.824337,3.251489,33.67,0.93,2.49,8.59
49.824178,3.251879,33.63,-1.22,0.22,8.75
49.824178,3.251879,33.63,1.1,1.04,9.48
49.824019,3.252274,33.6,-0.94,0.93,16.62
49.824019,3.252274,33.6,-0.09,0.6,1.02
49.823861,3.252669,33.46,2.44,0.58,11.43
49.823861,3.252669,33.46,-1.89,1.47,10.08
49.823709,3.253053,33.48,-1.92,0.95,8.16
49.823709,3.253053,33.48,1.93,3.03,12.33
49.823557,3.253452,33.52,-0.08,2.48,8.05
49.823557,3.253452,33.52,0.5,1.33,10.2
49.823406,3.253853,33.5,-0.81,-0.47,8.8
49.823406,3.253853,33.5,-2.01,2.05,10.72
49.823258,3.254256,33.33,-0.22,0.96,9.97
49.823258,3.254256,33.33,0.38,2.21,10.7
49.823109,3.254675,33.28,0.08,1.69,9.78
49.823109,3.254675,33.28,-1.29,1.26,7.21
49.82297,3.255082,33.24,-1.62,1.68,10.62
49.82297,3.255082,33.24,0.23,0.27,8.05
49.822831,3.255492,33.2,0.47,0.67,5.56
49.822831,3.255492,33.2,-0.27,1.29,8.51
49.822691,3.255904,33.26,-0.25,1.44,9.07
49.822691,3.255904,33.26,1.4,1.6,9.96
49.822549,3.256315,33.17,0.27,1.22,8.42
49.822416,3.256726,33.15,-0.72,0.55,9.11
49.822416,3.256726,33.15,-0.21,1.38,11.0
49.822287,3.257139,33.2,0.11,0.97,7.61
49.822287,3.257139,33.2,-0.68,0.65,10.41
49.822158,3.257556,33.18,0.38,2.0,9.0
49.822158,3.257556,33.18,1.62,0.55,10.4
49.82203,3.257979,33.13,-1.03,1.91,9.17
49.82203,3.257979,33.13,0.39,1.42,11.46
49.821904,3.258399,33.12,2.21,1.93,8.73
49.821904,3.258399,33.12,-0.85,1.24,11.3
49.821781,3.258822,33.02,-1.02,0.41,7.54
49.821781,3.258822,33.02,0.23,1.57,8.26
49.82166,3.25925,32.89,-2.0,1.9,8.12
49.82166,3.25925,32.89,-0.86,1.9,8.88
49.821543,3.259673,32.9,-0.17,1.66,8.25
49.821543,3.259673,32.9,-1.74,2.49,10.51
49.821426,3.260096,32.87,0.82,3.26,12.41
49.821426,3.260096,32.87,-0.01,0.19,8.72
49.821314,3.260523,32.9,0.62,2.27,10.46
49.821314,3.260523,32.9,0.01,1.52,8.49
49.821202,3.260956,32.79,0.21,0.69,8.31
49.821202,3.260956,32.79,1.34,1.18,11.76
49.821103,3.261384,32.63,-1.11,2.64,9.78
49.821103,3.261384,32.63,-0.64,2.15,11.14
49.821006,3.261803,32.64,-0.03,1.1,9.28
49.821006,3.261803,32.64,1.28,1.7,12.31
49.820897,3.262233,32.51,1.59,1.55,11.38
49.820897,3.262233,32.51,-0.71,2.52,9.99
49.820797,3.262654,32.5,-0.54,1.09,9.47
49.820797,3.262654,32.5,1.11,0.93,10.06
49.820692,3.26308,32.45,1.05,1.26,10.23
49.820692,3.26308,32.45,-1.86,1.89,9.61
49.820595,3.2635,32.46,0.53,2.02,10.71
49.820595,3.2635,32.46,-0.26,1.53,10.62
49.820494,3.263926,32.33,-0.35,1.79,8.35
49.820494,3.263926,32.33,1.37,1.7,11.19
49.82039,3.264356,32.46,0.55,1.13,9.45
49.82039,3.264356,32.46,-0.94,2.13,10.53
49.820285,3.264784,32.6,-0.26,0.42,9.12
49.82018,3.265205,32.59,-1.45,1.65,7.3
49.82018,3.265205,32.59,0.55,1.89,9.39
49.820079,3.265632,32.63,-1.09,3.28,8.94
49.820079,3.265632,32.63,-1.14,2.06,8.86
49.819978,3.266066,32.82,-0.72,1.31,7.62
49.819978,3.266066,32.82,-0.8,1.98,11.2
49.819879,3.266503,32.82,-1.84,1.51,10.76
49.819879,3.266503,32.82,-0.49,1.47,8.51
49.819785,3.266933,32.88,0.13,2.08,12.28
49.819785,3.266933,32.88,-1.38,1.96,11.7
49.819694,3.267361,32.89,-0.87,1.28,8.98
49.819694,3.267361,32.89,0.98,1.63,11.11
49.819596,3.267794,33.08,-2.18,2.06,9.37
49.819596,3.267794,33.08,-1.02,0.49,7.69
49.819492,3.268228,32.98,-1.23,1.63,10.62
49.819492,3.268228,32.98,-0.8,2.28,11.38
49.819393,3.26866,32.99,-1.24,0.92,8.85
49.819393,3.26866,32.99,1.26,1.54,11.03
49.819294,3.269086,32.75,0.41,1.32,9.78
49.819294,3.269086,32.75,-0.02,0.91,9.1
49.81919,3.269519,32.71,-0.63,1.03,8.11
49.81919,3.269519,32.71,-0.8,2.05,11.37
49.819094,3.26994,32.44,-0.46,1.82,10.65
49.819094,3.26994,32.44,0.88,1.1,9.43
49.818994,3.270359,32.5,-0.13,1.81,9.48
49.818994,3.270359,32.5,0.6,1.36,11.77
49.818896,3.270773,32.52,1.07,0.91,10.52
49.818896,3.270773,32.52,-2.07,2.19,10.01
49.818794,3.271192,32.37,-0.13,1.35,9.47
49.818794,3.271192,32.37,-0.76,1.13,9.42
49.818684,3.271614,32.38,-0.68,1.67,8.74
49.818684,3.271614,32.38,0.31,0.7,10.96
49.818576,3.272033,32.63,-0.49,1.16,10.23
49.818576,3.272033,32.63,-1.67,1.56,9.72
49.818469,3.272448,32.52,-0.12,1.31,9.31
49.818469,3.272448,32.52,-0.8,1.29,8.51
49.818358,3.272869,32.52,0.91,0.65,9.99
49.818358,3.272869,32.52,-1.32,2.43,10.9
49.818245,3.273284,32.55,-0.95,1.28,10.64
49.818245,3.273284,32.55,-0.19,1.1,9.78
49.818127,3.2737,32.63,-0.55,1.18,9.2
49.818006,3.274113,32.65,1.53,1.24,9.62
49.818006,3.274113,32.65,-1.9,2.69,11.43
49.817888,3.274523,32.78,0.45,1.58,7.91
49.817888,3.274523,32.78,-0.91,1.53,9.17
49.817769,3.274931,32.94,0.88,1.48,11.92
49.817769,3.274931,32.94,0.69,1.34,9.88
49.81764,3.275341,33.05,0.11,0.68,8.16
49.81764,3.275341,33.05,-0.8,1.39,11.38
49.817509,3.275763,33.24,1.11,0.8,10.34
49.817509,3.275763,33.24,0.68,1.47,9.61
49.817376,3.276177,33.41,0.24,2.3,9.83
49.817376,3.276177,33.41,1.09,1.41,11.4
49.817242,3.276591,33.44,-2.06,1.61,10.62
49.817242,3.276591,33.44,-0.79,0.73,8.85
49.817102,3.277011,33.62,0.14,2.48,9.74
49.817102,3.277011,33.62,-1.32,1.18,9.16
49.816963,3.27742,33.76,0.34,2.71,11.68
49.816963,3.27742,33.76,-2.0,2.54,10.31
49.816817,3.277843,33.88,1.42,1.36,10.2
49.816817,3.277843,33.88,-0.32,2.1,10.64
49.816676,3.278255,34.06,1.26,0.46,11.59
49.816676,3.278255,34.06,0.82,-0.64,10.76
49.816528,3.278667,33.88,-0.09,0.97,11.19
49.816528,3.278667,33.88,-0.86,1.59,8.11
49.816374,3.279076,33.47,-0.72,2.37,10.0
49.816374,3.279076,33.47,0.62,0.75,8.61
49.816221,3.279479,33.48,0.04,1.13,11.75
49.816221,3.279479,33.48,-0.19,0.13,8.1
49.816065,3.279873,33.62,-0.67,2.13,10.41
49.816065,3.279873,33.62,-1.67,0.79,7.78
49.815912,3.280268,33.74,-0.6,2.42,10.06
49.815912,3.280268,33.74,-0.47,1.24,10.82
49.815758,3.280665,33.81,-0.24,3.15,9.35
49.815758,3.280665,33.81,-0.4,1.26,12.79
49.815601,3.281062,33.89,-1.71,0.75,7.09
49.815601,3.281062,33.89,-2.29,2.07,9.86
49.815439,3.281458,34.05,-0.18,0.91,10.72
49.815439,3.281458,34.05,0.04,1.15,9.58
49.815276,3.281854,34.09,-0.48,2.93,10.18
49.815276,3.281854,34.09,-0.87,2.22,11.62
49.815108,3.28225,34.2,0.37,1.28,8.29
49.815108,3.28225,34.2,-0.57,2.54,10.71
49.814936,3.282642,34.26,-1.43,2.79,10.52
49.81476,3.283037,34.32,-1.71,1.28,12.37
49.81476,3.283037,34.32,-0.39,0.5,7.75
49.814588,3.283426,34.37,0.82,2.08,11.01
49.814588,3.283426,34.37,-1.0,2.96,10.75
49.814411,3.283817,34.38,0.0,0.28,9.67
49.814411,3.283817,34.38,-1.7,0.36,9.43
49.814235,3.284205,33.72,-0.57,2.01,8.49
49.814235,3.284205,33.72,-0.53,1.38,8.49
49.814058,3.284593,33.48,-1.27,2.52,11.27
49.814058,3.284593,33.48,-0.48,1.31,9.64
49.813886,3.284968,33.51,0.11,0.97,10.56
49.813886,3.284968,33.51,-1.04,0.2,9.09
49.81371,3.285347,33.57,-0.86,3.06,12.47
49.81371,3.285347,33.57,0.91,0.64,7.53
49.813536,3.285725,33.58,-2.72,1.88,12.15
49.813536,3.285725,33.58,-1.16,1.12,8.46
49.813364,3.286099,33.55,0.0,1.01,11.14
49.813364,3.286099,33.55,-1.52,0.74,7.82
49.81319,3.286477,33.64,-1.4,3.52,10.94
49.81319,3.286477,33.64,0.0,0.86,9.68
49.813013,3.286856,33.57,-1.89,2.08,8.86
49.813013,3.286856,33.57,0.21,1.41,8.99
49.812837,3.28723,33.64,-1.5,1.82,10.16
49.812837,3.28723,33.64,-1.34,1.22,9.63
49.812656,3.287612,33.56,-0.7,2.1,11.27
49.812656,3.287612,33.56,0.46,0.76,11.03
49.812481,3.287982,33.52,-1.11,1.8,8.56
49.812481,3.287982,33.52,-0.1,1.52,9.96
49.812301,3.288363,33.31,0.27,1.37,9.6
49.812301,3.288363,33.31,-1.57,2.15,10.34
49.812118,3.288745,33.63,0.17,1.16,10.76
49.812118,3.288745,33.63,-1.69,1.3,9.13
49.811939,3.289128,33.64,0.22,1.27,8.98
49.811939,3.289128,33.64,-1.1,1.64,11.41
49.811759,3.289508,33.85,-0.19,0.75,8.7
49.811759,3.289508,33.85,-2.24,2.74,10.66
49.811582,3.289883,33.87,1.57,1.88,9.68
49.811582,3.289883,33.87,-0.74,0.14,9.53
49.811408,3.290271,33.87,0.6,0.84,11.18
49.811408,3.290271,33.87,-2.2,0.06,7.8
49.811237,3.290643,33.84,-0.4,1.64,9.54
49.811059,3.291026,33.83,-1.71,0.85,7.88
49.811059,3.291026,33.83,-0.86,2.72,10.41
49.810881,3.291405,33.69,-1.64,1.44,10.54
49.810881,3.291405,33.69,0.54,1.81,9.36
49.810705,3.291785,33.73,-1.69,1.22,9.78
49.810705,3.291785,33.73,0.03,1.31,8.15
49.81053,3.292163,33.69,0.24,0.45,10.25
49.81053,3.292163,33.69,-1.74,0.04,9.7
49.810352,3.292544,33.61,-0.87,2.86,8.71
49.810352,3.292544,33.61,0.7,0.49,11.51
49.810173,3.292928,33.64,-2.23,2.48,10.18
49.810173,3.292928,33.64,2.61,0.85,10.72
49.809998,3.293306,33.63,-0.5,0.52,10.11
49.809998,3.293306,33.63,-0.28,1.16,9.33
49.809817,3.293685,33.62,0.85,1.09,9.31
49.809817,3.293685,33.62,-0.45,1.38,11.67
49.809639,3.294057,33.45,-0.46,2.29,10.74
49.809639,3.294057,33.45,1.47,0.67,10.5
49.809462,3.29443,33.48,0.12,0.96,10.63
49.809462,3.29443,33.48,-0.46,1.08,10.19
49.809285,3.294814,33.52,-0.33,2.06,8.13
49.809285,3.294814,33.52,0.89,0.94,12.48
49.80911,3.295197,33.51,-1.02,2.55,10.73
49.80911,3.295197,33.51,0.41,1.39,9.43
49.808936,3.295573,33.45,0.67,1.08,9.94
49.808936,3.295573,33.45,-1.52,1.33,9.78
49.808759,3.295948,33.56,-0.34,1.93,9.77
49.808759,3.295948,33.56,-0.03,0.61,10.26
49.80858,3.296322,33.56,-1.31,0.42,8.93
49.80858,3.296322,33.56,-0.82,1.92,9.24
49.808401,3.2967,33.56,0.36,1.06,8.74
49.808401,3.2967,33.56,-2.38,1.96,9.15
49.808223,3.297081,33.64,1.1,1.23,8.93
49.808223,3.297081,33.64,0.33,1.04,9.96
49.808041,3.297463,33.63,-1.24,1.59,9.1
49.808041,3.297463,33.63,-0.2,1.84,8.02
49.80786,3.297834,33.74,-0.62,1.01,8.2
49.80786,3.297834,33.74,1.05,2.43,9.7
49.80768,3.298208,33.7,-1.39,1.46,9.61
49.80768,3.298208,33.7,0.81,2.32,10.99
49.807495,3.298585,33.79,-0.11,1.82,10.86
49.807308,3.298966,33.8,0.37,1.0,9.89
49.807308,3.298966,33.8,-1.96,2.07,9.37
49.807123,3.29934,33.81,1.1,0.96,8.92
49.807123,3.29934,33.81,-1.25,2.72,9.28
49.806935,3.299713,33.78,0.01,1.25,9.33
49.806935,3.299713,33.78,1.92,1.09,10.8
49.806746,3.300089,33.82,1.35,1.46,12.38
49.806746,3.300089,33.82,-0.76,0.84,8.92
49.806555,3.300466,33.76,-0.45,2.44,10.37
49.806555,3.300466,33.76,-1.51,1.71,8.51
49.806364,3.300843,33.8,0.55,1.82,9.7
49.806364,3.300843,33.8,-1.19,1.76,9.84
49.806169,3.301208,33.69,-0.02,1.65,8.49
49.806169,3.301208,33.69,0.33,1.24,11.67
49.805972,3.301574,33.59,-0.86,0.67,9.75
49.805972,3.301574,33.59,-1.32,2.77,8.66
49.805775,3.301932,33.55,0.48,-0.05,10.51
49.805775,3.301932,33.55,-1.38,2.52,10.91
49.805577,3.302288,33.52,1.18,1.13,8.14
49.805577,3.302288,33.52,0.27,0.72,10.54
49.805381,3.302638,33.48,-1.79,0.94,9.52
49.805381,3.302638,33.48,-0.91,2.3,9.29
49.805184,3.302989,33.34,-0.13,2.15,7.13
49.805184,3.302989,33.34,0.51,1.13,11.36
49.804985,3.303339,33.38,-0.28,0.46,9.0
49.804985,3.303339,33.38,0.29,1.09,11.11
49.804782,3.30369,33.36,0.84,1.28,9.99
49.804782,3.30369,33.36,0.12,1.46,11.15
49.804578,3.304039,33.37,-0.46,1.72,8.84
49.804578,3.304039,33.37,-1.4,1.68,8.47
49.804374,3.304383,33.33,-1.02,2.78,9.77
49.804374,3.304383,33.33,0.27,1.36,9.91
49.804166,3.30473,33.24,-0.56,2.11,11.61
49.804166,3.30473,33.24,0.7,1.79,8.59
49.803961,3.305064,33.26,-1.91,2.47,11.06
49.803961,3.305064,33.26,-1.87,2.46,9.56
49.803757,3.305394,33.16,-1.41,1.59,9.48
49.803757,3.305394,33.16,-1.29,2.71,10.2
49.803552,3.305724,33.17,-0.24,1.39,9.12
49.803552,3.305724,33.17,0.44,2.08,12.46
49.803342,3.306043,33.27,-0.47,1.99,8.64
49.803342,3.306043,33.27,-0.25,2.43,9.9
49.803132,3.306373,33.37,-0.92,2.93,9.21
49.802917,3.306699,33.49,0.39,1.82,11.71
49.802917,3.306699,33.49,-1.88,2.5,10.92
49.802699,3.307025,33.6,-0.29,1.4,7.52
49.802699,3.307025,33.6,0.59,1.75,11.5
49.802481,3.307349,33.71,0.01,1.09,10.51
49.802481,3.307349,33.71,-0.52,0.65,9.09
49.802261,3.307673,33.78,-1.72,2.09,10.86
49.802261,3.307673,33.78,-0.85,1.4,9.09
49.802042,3.307988,33.83,-1.66,2.39,10.02
49.802042,3.307988,33.83,-0.62,0.56,9.85
49.801817,3.308313,33.87,-1.2,1.72,6.6
49.801817,3.308313,33.87,-1.31,2.16,10.87
49.801593,3.30863,33.93,0.47,1.38,9.93
49.801593,3.30863,33.93,-2.42,2.36,10.45
49.801369,3.308953,34.01,-0.35,2.15,11.26
49.801369,3.308953,34.01,-0.62,1.74,9.81
49.801145,3.30927,33.99,-0.57,1.08,7.6
49.801145,3.30927,33.99,0.7,1.42,10.35
49.800915,3.309582,33.98,-1.29,0.32,9.71
49.800915,3.309582,33.98,-0.21,2.12,10.11
49.800688,3.30989,33.91,0.78,1.62,11.21
49.800688,3.30989,33.91,-0.79,0.83,9.21
49.800463,3.310193,33.85,-1.74,2.33,10.39
49.800463,3.310193,33.85,-1.37,1.5,9.4
49.800235,3.310504,33.8,-1.5,2.59,9.28
49.800235,3.310504,33.8,0.4,1.7,9.82
49.80001,3.310813,33.78,-0.81,1.47,9.8
49.80001,3.310813,33.78,-0.79,1.63,11.28
49.799783,3.311126,33.8,0.77,1.31,9.48
49.799783,3.311126,33.8,0.76,1.39,10.72
49.799557,3.311437,33.78,0.12,1.0,10.96
49.799557,3.311437,33.78,-0.77,0.7,8.9
49.799329,3.311746,33.75,-0.36,1.8,11.72
49.799329,3.311746,33.75,-0.98,1.31,7.24
49.799096,3.312056,33.78,-1.13,2.75,11.07
49.799096,3.312056,33.78,0.54,2.37,10.24
49.798857,3.312362,33.85,-0.07,2.36,9.57
49.798857,3.312362,33.85,1.98,2.46,13.88
49.798623,3.312658,33.61,-0.05,1.02,7.65
49.798623,3.312658,33.61,0.4,1.29,9.79
49.798394,3.312953,33.6,-0.83,1.13,8.47
49.798163,3.313248,33.58,-1.81,1.35,10.25
49.798163,3.313248,33.58,-0.34,0.62,8.62
49.797932,3.313548,33.58,-0.03,1.79,11.92
49.797932,3.313548,33.58,-0.97,0.59,8.33
49.797702,3.313847,33.52,1.14,0.96,10.63
49.797702,3.313847,33.52,0.67,0.97,9.15
49.797476,3.314148,33.56,-0.69,1.94,10.19
49.797476,3.314148,33.56,-0.45,1.66,7.32
49.79725,3.314448,33.52,-1.67,1.69,10.67
49.79725,3.314448,33.52,-1.25,2.31,9.85
49.797015,3.314742,33.62,-0.72,1.0,10.03
49.797015,3.314742,33.62,-0.39,1.25,9.26
49.796781,3.315033,33.68,-1.11,1.37,11.8
49.796781,3.315033,33.68,-2.05,1.05,7.5
49.796552,3.315337,33.69,-1.1,2.49,11.29
49.796552,3.315337,33.69,0.0,1.62,9.89
49.796321,3.315644,33.76,-2.72,2.37,9.9
49.796321,3.315644,33.76,0.66,1.54,11.75
49.796087,3.315942,33.8,-2.02,0.64,7.07
49.796087,3.315942,33.8,-0.27,1.78,10.05
49.795853,3.31625,33.88,-0.52,1.2,7.58
49.795853,3.31625,33.88,0.51,0.91,9.9
49.795623,3.316564,33.95,0.86,1.58,12.09
49.795623,3.316564,33.95,-0.73,0.24,9.63
49.795393,3.316883,34.1,-0.55,1.49,9.11
49.795393,3.316883,34.1,-0.79,2.74,11.83
49.795161,3.317205,34.15,-1.13,1.13,8.26
49.795161,3.317205,34.15,-1.22,0.92,9.07
49.794931,3.317527,34.28,0.27,0.79,9.26
49.794931,3.317527,34.28,1.02,1.65,12.75
49.794699,3.317844,34.36,-1.45,-0.21,7.22
49.794699,3.317844,34.36,-1.32,1.16,9.65
49.794468,3.318165,33.98,-0.8,0.38,9.64
49.794468,3.318165,33.98,-0.6,1.03,8.71
49.794241,3.318479,33.48,-1.8,1.7,10.45
49.794241,3.318479,33.48,0.37,1.37,9.22
49.794021,3.318784,33.34,1.56,1.0,9.98
49.794021,3.318784,33.34,0.84,1.51,10.46
49.7938,3.319096,33.34,-1.31,0.85,10.01
49.7938,3.319096,33.34,-1.71,2.6,10.7
49.793581,3.319409,33.32,-1.16,0.33,8.11
49.793361,3.319727,33.35,0.41,1.15,10.53
49.793361,3.319727,33.35,-0.37,1.24,9.94
49.793142,3.320045,33.39,-1.95,1.77,10.58
49.793142,3.320045,33.39,-1.11,2.13,9.94
49.792924,3.320361,33.46,1.84,0.65,10.12
49.792924,3.320361,33.46,0.63,0.75,9.0
49.792705,3.320672,33.54,-0.08,1.59,9.37
49.792705,3.320672,33.54,-0.57,1.53,9.56
49.792486,3.320994,33.53,-1.48,1.4,9.25
49.792486,3.320994,33.53,-0.84,2.29,9.68
49.792267,3.321321,33.64,0.37,0.76,10.88
49.792267,3.321321,33.64,-1.12,1.22,8.49
49.792051,3.321637,33.78,-0.87,1.47,10.54
49.792051,3.321637,33.78,-1.5,0.91,8.63
49.791827,3.321958,33.68,0.5,1.19,11.16
49.791827,3.321958,33.68,0.06,1.21,9.68
49.791607,3.322283,33.98,0.72,0.86,9.66
49.791607,3.322283,33.98,-1.32,3.16,10.86
49.791385,3.322612,34.01,-1.48,0.6,7.97
49.791385,3.322612,34.01,0.26,1.75,10.2
49.791165,3.322938,34.06,-1.09,2.55,9.26
49.791165,3.322938,34.06,-2.12,0.23,9.1
49.790942,3.323271,34.14,0.7,0.95,9.95
49.790942,3.323271,34.14,-0.94,2.71,11.42
49.790718,3.323606,34.15,-0.02,0.64,8.37
49.790718,3.323606,34.15,-1.45,0.07,10.0
49.790501,3.323941,34.27,0.79,1.03,8.94
49.790501,3.323941,34.27,-0.52,2.91,11.32
49.79028,3.324279,34.33,-0.42,0.3,7.32
49.79028,3.324279,34.33,-1.64,0.47,9.25
49.790063,3.324608,34.22,-0.1,0.92,10.43
49.790063,3.324608,34.22,-1.99,2.54,10.16
49.789846,3.324946,34.41,0.04,1.33,10.44
49.789846,3.324946,34.41,0.15,1.38,10.34
49.789624,3.325275,34.47,0.24,1.3,11.22
49.789624,3.325275,34.47,-0.87,1.92,10.3
49.789403,3.325611,34.65,0.02,2.14,9.23
49.789403,3.325611,34.65,-0.28,3.18,8.84
49.789181,3.325955,34.63,1.73,1.36,10.48
49.789181,3.325955,34.63,0.18,1.23,8.53
49.788961,3.326291,34.72,0.03,2.37,10.49
49.788961,3.326291,34.72,-0.56,2.42,9.46
49.788745,3.326637,34.71,-0.2,2.27,9.32
49.788529,3.326984,34.74,-0.1,1.09,11.14
49.788529,3.326984,34.74,0.57,-0.2,11.91
49.78831,3.32734,34.19,1.03,0.51,10.04
49.78831,3.32734,34.19,-0.61,1.46,10.5
49.788096,3.32768,33.48,0.87,-0.35,11.82
49.788096,3.32768,33.48,-1.14,1.5,8.15
49.787886,3.328004,33.05,0.2,0.96,10.85
49.787886,3.328004,33.05,0.15,0.91,9.44
49.787677,3.32833,32.94,0.08,2.92,9.53
49.787677,3.32833,32.94,-0.77,1.12,9.89
49.787471,3.328652,33.11,-0.04,1.3,12.12
49.787471,3.328652,33.11,-0.81,1.58,9.5
49.787265,3.328975,33.2,-1.13,0.97,8.47
49.787265,3.328975,33.2,-1.97,1.64,9.53
49.787055,3.329303,33.29,-1.56,1.31,9.45
49.787055,3.329303,33.29,0.97,1.2,11.29
49.786842,3.329635,33.3,0.13,1.08,9.19
49.786842,3.329635,33.3,0.84,1.41,11.02
49.78663,3.329961,33.36,-0.3,2.3,10.72
49.78663,3.329961,33.36,0.22,1.76,8.63
49.786419,3.33029,33.37,-1.26,1.92,10.42
49.786419,3.33029,33.37,-0.82,1.22,9.46
49.786205,3.330617,33.48,-1.58,2.14,11.86
49.786205,3.330617,33.48,-2.81,1.43,7.34
49.785995,3.33094,33.45,-0.77,0.51,10.14
49.785995,3.33094,33.45,-1.07,1.02,8.79
49.785785,3.331278,33.5,-0.95,2.5,8.79
49.785785,3.331278,33.5,0.66,1.45,9.17
49.785575,3.331606,33.54,-2.26,1.46,10.85
49.785575,3.331606,33.54,-2.5,1.13,8.65
49.78536,3.33194,33.61,-0.84,2.65,7.85
49.78536,3.33194,33.61,-1.89,0.99,8.84
49.785145,3.332274,33.57,-1.47,2.49,8.56
49.785145,3.332274,33.57,1.02,1.61,10.88
49.784933,3.332601,33.51,-2.26,2.49,10.11
49.784933,3.332601,33.51,-0.06,1.78,8.81
49.784718,3.332937,33.55,1.13,1.45,11.76
49.784718,3.332937,33.55,-0.45,0.77,8.71
49.784508,3.333268,33.61,-0.85,2.48,8.83
49.784508,3.333268,33.61,0.54,1.38,11.67
49.784298,3.333596,33.65,0.56,2.57,10.53
49.784298,3.333596,33.65,1.04,1.31,9.57
49.784088,3.333928,33.63,-0.86,0.52,8.84
49.784088,3.333928,33.63,1.41,1.62,11.77
49.783877,3.334257,33.68,0.14,1.46,8.28
49.783659,3.334589,33.77,-1.18,2.54,8.78
49.783659,3.334589,33.77,-1.43,0.62,9.08
49.783441,3.334914,33.85,-0.13,2.19,9.24
49.783441,3.334914,33.85,-0.41,0.53,10.83
49.78322,3.335241,33.92,-0.2,2.28,8.81
49.78322,3.335241,33.92,-2.4,1.88,10.16
49.783001,3.33557,34.0,-0.28,0.52,10.23
49.783001,3.33557,34.0,-0.57,2.37,9.33
49.78278,3.335906,34.01,-1.17,1.79,9.92
49.78278,3.335906,34.01,-0.8,1.31,10.44
49.782558,3.336237,34.16,-0.78,2.38,9.52
49.782558,3.336237,34.16,-2.22,1.75,10.75
49.782336,3.336561,34.19,0.08,1.82,11.25
49.782336,3.336561,34.19,-0.37,2.02,8.52
49.782113,3.336887,34.28,-1.49,2.38,7.69
49.782113,3.336887,34.28,-1.85,1.48,11.15
49.781889,3.337212,34.3,-0.68,0.59,8.69
49.781889,3.337212,34.3,0.28,1.97,11.06
49.781667,3.337534,34.32,-0.7,2.56,9.33
49.781667,3.337534,34.32,-0.91,1.68,10.42
49.781444,3.337861,34.36,-2.1,0.76,8.58
49.781444,3.337861,34.36,0.58,1.2,9.84
49.781219,3.338185,34.35,-0.91,1.19,10.14
49.781219,3.338185,34.35,-0.25,1.66,9.64
49.780991,3.338514,34.43,1.48,1.73,10.8
49.780991,3.338514,34.43,-0.33,1.08,10.67
49.780763,3.338839,34.41,-0.55,2.38,9.28
49.780763,3.338839,34.41,-2.02,1.57,10.01
49.78053,3.339171,34.36,-0.43,0.99,9.46
49.78053,3.339171,34.36,0.08,1.25,10.38
49.780306,3.339489,34.4,-0.14,1.53,7.91
49.780306,3.339489,34.4,0.27,2.05,8.98
49.780081,3.339808,34.38,-1.44,2.24,10.1
49.780081,3.339808,34.38,-1.06,0.78,9.08
49.779852,3.340124,34.43,-1.2,0.74,10.09
49.779852,3.340124,34.43,-0.29,1.29,8.82
49.779624,3.34044,34.45,-1.35,1.57,9.19
49.779624,3.34044,34.45,-0.73,1.97,11.78
49.779392,3.340761,34.54,1.01,0.78,9.08
49.779158,3.341079,34.51,-0.43,1.15,10.57
49.779158,3.341079,34.51,0.01,1.59,9.88
49.778929,3.341405,34.45,-1.62,2.19,8.0
49.778929,3.341405,34.45,0.15,1.24,9.31
49.778702,3.341728,34.32,-1.66,0.89,7.63
49.778702,3.341728,34.32,-0.21,0.88,11.58
49.778473,3.342044,34.08,0.28,1.31,11.42
49.778473,3.342044,34.08,-1.19,0.94,9.89
49.778243,3.342356,34.0,-1.19,2.02,10.96
49.778243,3.342356,34.0,1.0,1.57,9.19
49.778014,3.342655,33.92,0.32,0.61,9.4
49.778014,3.342655,33.92,0.2,1.43,9.87
49.777784,3.342968,33.99,-1.05,1.59,10.16
49.777784,3.342968,33.99,0.18,1.39,7.87
49.777552,3.343281,33.95,-1.68,2.88,10.67
49.777552,3.343281,33.95,-1.12,0.62,9.09
49.777319,3.343588,34.0,-1.64,2.74,8.77
49.777319,3.343588,34.0,-1.34,2.15,8.72
49.777087,3.343896,34.02,-0.25,0.22,7.9
49.777087,3.343896,34.02,-0.47,2.26,10.33
49.776854,3.344196,33.99,0.13,1.59,11.24
49.776854,3.344196,33.99,-1.3,0.69,7.81
49.776624,3.344499,34.01,-0.39,2.41,8.1
49.776624,3.344499,34.01,1.18,1.23,11.09
49.776396,3.344805,34.0,-0.89,0.87,9.8
49.776396,3.344805,34.0,-1.24,1.66,12.46
49.776165,3.345103,34.03,0.95,1.9,9.24
49.776165,3.345103,34.03,-0.33,0.49,10.07
49.775931,3.345412,33.98,0.22,1.75,8.6
49.775931,3.345412,33.98,0.96,1.12,10.15
49.775693,3.345714,33.99,0.1,0.77,8.51
49.775693,3.345714,33.99,-0.8,2.76,10.34
49.775457,3.346016,34.02,-1.25,0.91,9.84
49.775457,3.346016,34.02,-0.46,1.83,10.23
49.77522,3.346312,34.03,-0.7,2.75,9.99
49.77522,3.346312,34.03,0.49,0.25,7.76
49.774983,3.346617,34.08,0.11,1.1,9.69
49.774983,3.346617,34.08,-1.54,2.32,9.76
49.774745,3.346918,34.13,0.06,1.2,8.74
49.774745,3.346918,34.13,-0.31,0.85,7.77
49.774508,3.347219,34.04,-0.15,2.57,10.05
49.774508,3.347219,34.04,-1.9,1.33,7.25
49.77427,3.347518,34.0,0.61,1.81,10.77
49.774034,3.34782,34.05,-1.7,2.26,8.76
49.774034,3.34782,34.05,-0.67,1.3,10.16
49.773794,3.348112,34.1,-0.54,1.13,8.17
49.773794,3.348112,34.1,-0.63,3.0,11.11
49.773555,3.348399,34.23,-0.15,0.34,10.2
49.773555,3.348399,34.23,0.69,1.21,10.25
49.773315,3.3487,34.37,0.38,1.68,9.0
49.773315,3.3487,34.37,0.91,1.09,12.84
49.773076,3.348995,34.36,0.98,1.7,10.29
49.773076,3.348995,34.36,1.02,0.6,6.96
49.772835,3.349298,34.66,-0.35,2.6,9.48
49.772835,3.349298,34.66,0.04,2.17,8.83
49.772588,3.349597,34.69,-0.57,1.82,9.18
49.772588,3.349597,34.69,-0.16,-0.44,9.99
49.772344,3.349888,34.19,-1.89,0.75,7.44
49.772344,3.349888,34.19,-0.05,1.51,10.79
49.772109,3.350177,33.46,-1.1,0.97,9.53
49.772109,3.350177,33.46,0.31,-0.03,9.81
49.771875,3.350459,33.03,-0.6,1.17,8.9
49.771875,3.350459,33.03,0.29,1.02,10.36
49.771645,3.350741,33.17,-1.21,1.8,10.94
49.771645,3.350741,33.17,-1.26,1.15,9.35
49.771415,3.351025,33.4,-2.09,1.65,9.46
49.771415,3.351025,33.4,1.18,0.98,9.03
49.77118,3.351315,33.64,-0.27,1.04,11.33
49.77118,3.351315,33.64,-0.25,0.4,8.58
49.770946,3.3516,33.83,1.32,0.99,10.21
49.770946,3.3516,33.83,1.15,1.36,9.57
49.770715,3.351909,34.15,-0.42,0.51,9.64
49.770715,3.351909,34.15,-1.1,0.43,9.58
49.770476,3.352202,34.34,-0.79,0.77,11.17
49.770476,3.352202,34.34,1.0,0.66,10.85
49.770234,3.352495,34.52,1.58,0.93,9.83
49.770234,3.352495,34.52,0.23,0.2,9.64
49.769983,3.352793,34.7,0.07,0.86,10.59
49.769983,3.352793,34.7,-0.67,-0.05,8.44
49.769735,3.35309,34.84,-0.29,2.13,12.41
49.769735,3.35309,34.84,-1.18,2.95,12.1
49.769486,3.353383,35.04,-0.31,1.9,10.4
49.769486,3.353383,35.04,-0.09,0.23,10.57
49.769237,3.353678,34.88,-0.42,0.24,11.64
49.768989,3.353971,34.32,0.98,-0.16,10.13
49.768989,3.353971,34.32,-0.84,1.0,9.63
49.768754,3.354258,33.86,0.38,-0.57,10.84
49.768754,3.354258,33.86,-0.28,0.36,11.56
49.768514,3.354544,33.56,-0.01,0.14,10.75
49.768514,3.354544,33.56,0.17,0.61,10.61
49.76828,3.354828,33.62,-0.43,2.38,10.44
49.76828,3.354828,33.62,0.33,0.71,9.67
49.768043,3.355119,33.84,-1.51,3.18,10.56
49.768043,3.355119,33.84,0.4,0.26,12.28
49.767802,3.355408,34.08,-1.52,1.6,9.85
49.767802,3.355408,34.08,-1.82,1.76,10.38
49.76756,3.355703,34.24,-2.4,-0.03,8.06
49.76756,3.355703,34.24,-0.62,0.68,10.33
49.767311,3.356004,34.4,-0.34,2.07,11.29
49.767311,3.356004,34.4,1.36,1.37,10.47
49.767063,3.356309,34.51,0.29,1.48,10.53
49.767063,3.356309,34.51,-0.03,1.19,8.2
49.76682,3.356607,34.64,-1.29,0.27,8.59
49.76682,3.356607,34.64,-1.28,2.62,9.53
49.766574,3.356907,34.74,-1.34,2.6,8.26
49.766574,3.356907,34.74,0.27,1.17,9.15
49.766332,3.35721,34.43,-0.75,0.11,10.76
49.766332,3.35721,34.43,-0.26,1.3,8.44
49.766094,3.357505,33.82,-1.13,2.6,10.81
49.766094,3.357505,33.82,-0.91,0.57,10.88
49.765862,3.357804,33.86,-0.9,2.55,8.66
49.765862,3.357804,33.86,-1.58,1.29,11.11
49.765629,3.3581,33.94,0.09,1.48,10.88
49.765629,3.3581,33.94,-1.66,1.75,10.58
49.765404,3.358399,33.95,0.69,1.16,10.04
49.765404,3.358399,33.95,-2.03,0.93,10.59
49.765166,3.358707,34.05,0.13,1.04,10.04
49.765166,3.358707,34.05,-0.54,0.73,10.52
49.764927,3.359023,34.14,-1.25,0.41,9.7
49.764927,3.359023,34.14,-0.25,0.45,11.35
49.764693,3.359338,34.19,0.11,0.78,9.6
49.764693,3.359338,34.19,0.11,1.02,10.05
49.764463,3.359651,34.27,-0.32,2.88,8.94
49.764463,3.359651,34.27,-0.53,3.07,9.17
49.76423,3.359966,34.41,-1.69,1.27,10.13
49.763999,3.360278,34.46,-0.98,0.11,10.47
49.763999,3.360278,34.46,-1.45,0.55,9.5
49.763763,3.360592,34.47,-0.64,1.15,10.47
49.763763,3.360592,34.47,0.29,1.09,10.69
49.763533,3.360911,34.42,1.13,0.47,9.16
49.763533,3.360911,34.42,-2.15,0.72,8.21
49.763302,3.361244,34.39,-2.69,2.76,9.12
49.763302,3.361244,34.39,-1.58,2.05,8.18
49.763067,3.361576,34.42,-1.08,0.8,10.75
49.763067,3.361576,34.42,-0.31,0.61,8.75
49.762838,3.361907,34.28,-0.72,0.97,10.48
49.762838,3.361907,34.28,-1.76,0.08,8.49
49.762616,3.362231,33.67,-1.01,0.4,10.31
49.762616,3.362231,33.67,-1.07,1.72,10.39
49.762399,3.362552,33.67,-2.13,0.42,9.12
49.762399,3.362552,33.67,-0.26,2.62,10.31
49.762182,3.362875,33.7,-2.37,0.76,7.67
49.762182,3.362875,33.7,-0.69,2.41,9.78
49.761959,3.36321,33.77,-1.44,1.81,10.91
49.761959,3.36321,33.77,-0.17,1.29,8.5
49.761744,3.363544,33.79,-2.36,0.76,10.61
49.761744,3.363544,33.79,-0.62,1.29,8.44
49.761528,3.363876,33.87,-1.63,1.99,10.39
49.761528,3.363876,33.87,0.57,1.64,11.12
49.761316,3.364209,33.93,-1.15,0.91,10.98
49.761316,3.364209,33.93,-0.66,1.13,8.74
49.761105,3.364546,33.45,-1.56,1.7,9.23
49.761105,3.364546,33.45,-0.79,0.55,11.36
49.760896,3.364882,33.17,-0.05,0.69,9.63
49.760896,3.364882,33.17,-0.65,1.13,11.65
49.760693,3.365214,33.11,-2.11,1.7,8.88
49.760693,3.365214,33.11,-0.78,1.27,8.97
49.760489,3.36555,33.16,-1.83,1.86,10.84
49.760489,3.36555,33.16,-0.82,2.64,10.54
49.760288,3.365887,33.18,0.39,0.87,9.61
49.760288,3.365887,33.18,0.03,1.4,8.69
49.76009,3.366223,33.21,0.26,0.68,8.36
49.76009,3.366223,33.21,-0.68,1.46,12.12
49.75989,3.366562,33.24,-1.32,1.36,8.36
49.75989,3.366562,33.24,-0.33,1.52,10.73
49.759689,3.366907,33.27,-0.94,1.52,10.51
49.759487,3.36726,33.3,0.22,0.62,11.75
49.759487,3.36726,33.3,-0.96,1.24,12.03
49.759291,3.367605,33.26,-1.75,1.6,7.44
49.759291,3.367605,33.26,1.9,1.56,9.1
49.759099,3.367956,33.33,-0.5,2.05,8.09
49.759099,3.367956,33.33,0.52,1.59,8.61
49.758907,3.368304,33.38,-1.62,1.25,11.06
49.758907,3.368304,33.38,-1.04,2.22,8.57
49.758714,3.368647,33.3,-0.68,2.74,11.26
49.758714,3.368647,33.3,0.4,1.44,9.83
49.758523,3.368999,33.34,-1.44,1.66,10.84
49.758523,3.368999,33.34,-1.95,1.03,9.68
49.758335,3.369353,33.3,1.31,1.65,11.09
49.758335,3.369353,33.3,0.01,1.54,9.33
49.758146,3.369722,33.34,0.96,0.69,10.97
49.758146,3.369722,33.34,0.67,1.25,10.83
49.75796,3.370079,33.33,-0.3,1.3,8.03
49.75796,3.370079,33.33,-0.71,1.81,11.65
49.757773,3.370437,33.27,-1.68,1.09,8.43
49.757773,3.370437,33.27,-0.72,1.32,12.48
49.757587,3.370795,33.26,-1.43,0.78,9.2
49.757587,3.370795,33.26,-2.09,1.5,10.91
49.757401,3.371158,33.32,-1.09,1.27,8.0
49.757401,3.371158,33.32,-0.48,1.06,8.26
49.757221,3.37152,33.32,0.41,1.66,12.63
49.757221,3.37152,33.32,-0.1,1.28,9.35
49.757039,3.371887,33.35,-1.46,0.76,10.64
49.757039,3.371887,33.35,-2.02,1.06,9.46
49.756858,3.372246,33.3,-1.45,2.76,9.88
49.756858,3.372246,33.3,-1.32,2.65,8.96
49.75668,3.372615,33.28,0.55,1.15,8.94
49.75668,3.372615,33.28,-0.07,2.16,10.41
49.756503,3.372986,33.25,-1.77,0.67,8.55
49.756503,3.372986,33.25,-1.02,1.42,11.43
49.756328,3.373364,33.2,-0.71,0.36,8.09
49.756328,3.373364,33.2,1.05,1.07,11.75
49.75616,3.373744,33.26,-1.14,1.46,10.32
49.75616,3.373744,33.26,0.43,1.61,10.39
49.75599,3.374117,33.25,-1.33,1.25,10.77
49.75599,3.374117,33.25,-0.98,1.03,9.05
49.755816,3.374494,33.21,-1.8,0.96,11.32
49.755816,3.374494,33.21,-2.74,1.38,10.17
49.755643,3.374869,33.17,-1.31,1.27,8.26
49.755478,3.375246,33.13,-0.86,1.76,10.36
49.755478,3.375246,33.13,-0.71,1.78,9.88
49.755312,3.375629,32.79,0.68,0.37,10.98
49.755312,3.375629,32.79,-1.63,2.4,10.86
49.755148,3.376018,32.99,-0.94,1.92,9.01
49.755148,3.376018,32.99,-0.64,2.2,11.9
49.754987,3.376411,33.16,-1.38,1.87,11.23
49.754987,3.376411,33.16,0.45,1.65,8.72
49.754829,3.376802,33.09,-0.5,2.82,12.12
49.754829,3.376802,33.09,0.71,1.94,10.04
49.754661,3.377185,32.89,0.69,0.91,8.77
49.754661,3.377185,32.89,-2.59,1.65,11.82
49.754495,3.37757,32.58,0.33,0.85,9.46
49.754495,3.37757,32.58,0.13,1.49,10.03
49.754325,3.377943,32.67,0.07,1.2,10.18
49.754325,3.377943,32.67,-0.01,1.75,10.07
49.75416,3.378312,32.42,-1.35,2.43,10.38
49.75416,3.378312,32.42,-1.11,1.89,10.15
49.753995,3.378683,32.01,-1.71,1.71,7.81
49.753995,3.378683,32.01,-0.82,1.34,8.95
49.75383,3.379042,31.95,-1.53,1.55,9.15
49.75383,3.379042,31.95,0.21,1.14,13.19
49.753662,3.379398,31.77,-0.11,1.19,9.67
49.753662,3.379398,31.77,-1.86,1.53,10.67
49.753491,3.379754,31.58,-0.12,1.68,9.88
49.753491,3.379754,31.58,-1.21,2.19,9.84
49.753321,3.380118,31.4,-0.76,1.65,11.42
49.753321,3.380118,31.4,0.71,1.3,11.39
49.753166,3.380461,31.24,-1.34,1.7,10.08
49.753166,3.380461,31.24,0.03,1.97,10.07
49.753,3.380815,31.18,-1.25,1.45,9.54
49.753,3.380815,31.18,-1.7,2.16,8.96
49.752844,3.381164,31.14,0.41,1.75,10.97
49.752844,3.381164,31.14,-0.43,1.53,9.04
49.75268,3.381535,31.04,0.18,1.34,10.86
49.75268,3.381535,31.04,-1.0,0.91,9.97
49.752513,3.381904,31.04,0.69,1.96,11.35
49.752513,3.381904,31.04,-0.52,1.64,9.88
49.752355,3.382255,31.0,0.57,1.18,9.21
49.752199,3.382604,31.04,0.11,2.7,11.37
49.752199,3.382604,31.04,0.09,1.3,9.45
49.752041,3.382947,31.0,-1.34,1.8,11.86
49.752041,3.382947,31.0,-1.74,1.99,10.78
49.751878,3.383303,30.92,-1.14,1.72,11.08
49.751878,3.383303,30.92,-0.74,1.54,10.23
49.751719,3.383655,30.97,-0.13,0.98,8.08
49.751719,3.383655,30.97,-0.68,2.43,10.14
49.751568,3.383999,30.73,-0.68,1.94,9.67
49.751568,3.383999,30.73,0.26,1.39,9.05
49.751412,3.384352,30.73,-0.74,1.76,9.4
49.751412,3.384352,30.73,-0.99,1.25,9.82
49.751254,3.384701,30.66,-1.15,1.92,10.35
49.751254,3.384701,30.66,-0.4,1.21,10.29
49.751091,3.385058,30.83,-1.8,1.92,10.38
49.751091,3.385058,30.83,-0.58,1.79,10.53
49.750934,3.385411,30.99,-0.13,1.42,10.29
49.750934,3.385411,30.99,-0.58,1.8,7.19
49.750772,3.385774,31.2,0.69,2.24,10.65
49.750772,3.385774,31.2,-0.52,1.81,9.98
49.750604,3.386142,31.44,0.38,2.26,9.28
49.750604,3.386142,31.44,-1.15,2.8,9.44
49.750448,3.386493,31.68,-1.17,2.44,8.58
49.750448,3.386493,31.68,0.29,1.78,12.18
49.750279,3.386858,31.84,-1.86,2.56,10.49
49.750279,3.386858,31.84,-1.43,1.67,9.06
49.750119,3.387201,32.11,-0.58,0.67,8.68
49.750119,3.387201,32.11,-0.2,1.75,8.66
49.749951,3.38756,32.37,0.56,1.37,8.52
49.749951,3.38756,32.37,0.72,1.31,9.3
49.749765,3.387932,32.61,0.8,2.06,9.16
49.749765,3.387932,32.61,-1.37,2.23,8.76
49.749597,3.388278,32.85,0.01,1.4,10.38
49.749597,3.388278,32.85,-0.76,2.7,9.37
49.749422,3.388628,33.16,-0.75,1.58,10.37
49.749422,3.388628,33.16,-0.9,1.56,10.29
49.74923,3.388986,33.51,-0.65,2.77,10.86
49.74923,3.388986,33.51,1.03,2.13,10.72
49.749033,3.389352,33.78,-0.86,1.06,8.05
49.748828,3.389726,34.26,-1.75,2.3,10.44
49.748828,3.389726,34.26,-0.35,1.68,9.18
49.748623,3.390093,34.53,1.75,1.46,8.03
49.748623,3.390093,34.53,1.31,1.66,10.96
49.748421,3.390449,34.95,0.64,1.28,9.52
49.748421,3.390449,34.95,-1.7,0.67,7.5
49.748202,3.390823,35.26,-0.16,2.55,10.97
49.748202,3.390823,35.26,-1.4,0.45,11.25
49.747987,3.391182,35.66,1.53,0.37,10.84
49.747987,3.391182,35.66,1.87,0.02,11.47
49.74777,3.391538,35.3,1.42,0.6,9.51
49.74777,3.391538,35.3,0.19,1.55,10.16
49.747553,3.391882,35.32,-0.52,0.3,8.61
49.747553,3.391882,35.32,-0.3,1.26,9.62
49.747334,3.392225,35.58,-1.07,2.51,8.5
49.747334,3.392225,35.58,-0.58,0.63,10.17
49.747098,3.392581,35.85,2.32,1.18,12.55
49.747098,3.392581,35.85,-0.24,1.22,9.48
49.746863,3.392932,35.93,-0.98,2.73,7.93
49.746863,3.392932,35.93,-0.42,2.04,10.11
49.746631,3.393274,35.92,-0.72,1.84,9.91
49.746631,3.393274,35.92,0.45,1.21,8.64
49.746396,3.39361,35.82,-1.13,0.08,10.63
49.746396,3.39361,35.82,-0.81,1.83,7.96
49.746158,3.393939,35.59,-1.67,3.34,8.28
49.746158,3.393939,35.59,-0.36,2.25,11.09
49.745922,3.394266,35.31,-0.05,2.73,10.86
49.745922,3.394266,35.31,-0.68,3.41,9.77
49.745687,3.394587,34.98,-0.92,1.96,7.68
49.745687,3.394587,34.98,-1.86,2.38,10.07
49.745444,3.394903,34.76,-0.81,2.43,8.99
49.745444,3.394903,34.76,1.21,0.36,11.73
49.745199,3.395212,34.34,0.59,1.97,9.0
49.745199,3.395212,34.34,-0.41,2.36,8.42
49.744959,3.395507,33.55,0.22,1.28,9.34
49.744959,3.395507,33.55,0.85,1.1,10.61
49.744726,3.395787,33.16,-0.38,1.25,9.33
49.744726,3.395787,33.16,0.38,0.72,9.56
49.744489,3.396075,33.05,-0.78,1.74,9.82
49.744489,3.396075,33.05,-0.04,1.44,8.61
49.744246,3.396361,32.93,1.18,1.31,9.29
49.744246,3.396361,32.93,-0.23,1.89,11.58
49.744008,3.39664,32.78,-0.03,1.9,8.94
49.743773,3.396916,32.75,-0.79,1.85,9.06
49.743773,3.396916,32.75,0.97,1.08,10.1
49.743534,3.397189,32.61,0.62,2.98,9.31
49.743534,3.397189,32.61,0.41,2.41,11.21
49.743284,3.397458,32.74,0.81,1.1,9.25
49.743284,3.397458,32.74,0.56,1.28,10.44
49.743038,3.397723,32.72,-1.37,2.1,9.86
49.743038,3.397723,32.72,0.14,0.97,8.54
49.742795,3.397979,32.78,-0.02,1.38,10.51
49.742795,3.397979,32.78,-0.12,2.06,11.4
49.742554,3.39823,32.9,0.36,2.4,11.3
49.742554,3.39823,32.9,1.29,0.88,9.08
49.742318,3.398467,32.88,1.27,0.93,10.37
49.742318,3.398467,32.88,-0.1,2.39,10.55
49.742072,3.398725,32.99,-0.88,1.33,8.02
49.742072,3.398725,32.99,0.15,1.08,10.32
49.741822,3.398969,33.08,1.14,1.95,11.02
49.741822,3.398969,33.08,0.86,1.2,10.22
49.741567,3.399205,33.22,-1.24,1.68,10.25
49.741567,3.399205,33.22,-0.21,1.28,7.98
49.741312,3.399436,33.4,-1.66,2.51,9.66
49.741312,3.399436,33.4,0.32,1.45,12.17
49.74106,3.399667,33.56,-1.77,1.8,9.5
49.74106,3.399667,33.56,0.3,0.79,10.22
49.740799,3.399906,33.83,-1.19,1.85,11.15
49.740799,3.399906,33.83,1.75,0.99,9.95
49.740536,3.400146,33.98,0.06,0.17,10.39
49.740536,3.400146,33.98,0.48,2.18,11.76
49.740263,3.400386,34.19,1.81,0.67,9.14
49.740263,3.400386,34.19,-0.24,0.94,9.55
49.739989,3.40061,34.38,-0.74,0.31,6.85
49.739989,3.40061,34.38,-1.51,3.03,9.75
49.739716,3.400824,34.49,-0.55,1.01,9.18
49.739716,3.400824,34.49,1.18,0.9,11.17
49.739437,3.401026,34.77,-0.79,0.55,11.46
49.739437,3.401026,34.77,-1.3,-0.13,8.86
49.739159,3.401225,34.81,-1.07,0.99,9.7
49.739159,3.401225,34.81,-0.59,1.92,11.52
49.738876,3.401402,34.04,0.67,-0.57,7.96
49.738876,3.401402,34.04,0.27,0.15,8.84
49.738598,3.401599,33.34,-0.25,0.58,8.59
49.738598,3.401599,33.34,0.67,-0.34,10.07
49.738328,3.401802,32.75,-1.2,1.56,10.72
49.738065,3.40199,32.64,-1.24,0.67,8.97
49.738065,3.40199,32.64,0.49,1.18,8.48
49.737809,3.402188,32.53,0.8,0.48,9.81
49.737809,3.402188,32.53,-0.52,0.64,9.47
49.737552,3.402375,32.05,1.35,0.2,11.01
49.737552,3.402375,32.05,-0.56,0.73,10.89
49.737297,3.402555,32.08,0.27,0.34,9.87
49.737297,3.402555,32.08,-1.17,1.21,8.96
49.737036,3.40273,32.41,0.02,1.05,10.3
49.737036,3.40273,32.41,-0.81,1.51,8.92
49.73677,3.402914,32.73,-0.53,1.31,9.44
49.73677,3.402914,32.73,-2.62,1.33,10.73
49.7365,3.403097,33.11,-1.55,0.74,9.01
49.7365,3.403097,33.11,-0.65,1.61,8.89
49.736227,3.403281,33.46,0.1,1.64,10.31
49.736227,3.403281,33.46,-1.59,0.43,10.31
49.735946,3.403469,33.97,0.97,1.01,11.45
49.735946,3.403469,33.97,0.18,2.8,11.16
49.735666,3.403656,34.38,-1.73,2.66,10.21
49.735666,3.403656,34.38,-1.28,1.75,9.51
49.735382,3.403849,34.59,-0.74,1.62,10.77
49.735382,3.403849,34.59,-1.86,-0.03,10.0
49.735098,3.404044,34.8,-0.82,-0.12,9.39
49.735098,3.404044,34.8,-1.08,-0.57,10.23
49.734814,3.404238,34.9,-1.11,1.27,8.14
49.734814,3.404238,34.9,-0.44,1.42,9.16
49.734528,3.404442,34.34,0.48,0.0,11.84
49.734528,3.404442,34.34,-1.55,1.0,9.11
49.734252,3.404635,34.05,-0.07,2.56,10.13
49.734252,3.404635,34.05,-0.48,0.05,10.41
49.733976,3.404827,33.94,-1.68,1.45,8.6
49.733976,3.404827,33.94,-0.06,0.78,11.1
49.733701,3.405017,33.92,-0.32,0.7,9.64
49.733701,3.405017,33.92,-0.22,0.97,8.95
49.733428,3.405204,34.11,-0.87,0.77,8.96
49.733428,3.405204,34.11,0.56,1.34,7.75
49.733148,3.405402,34.39,0.41,0.91,10.64
49.733148,3.405402,34.39,0.89,1.97,10.97
49.732864,3.405606,34.99,0.37,1.38,10.07
49.732583,3.405805,35.34,-2.18,0.24,10.19
49.732583,3.405805,35.34,0.53,1.27,11.16
49.732293,3.406012,35.67,1.01,0.85,11.01
49.732293,3.406012,35.67,-0.92,2.26,9.34
49.731999,3.406215,35.99,-1.02,1.48,11.1
49.731999,3.406215,35.99,-0.88,0.93,10.32
49.731702,3.406416,36.07,-0.29,1.66,10.2
49.731702,3.406416,36.07,-0.5,0.79,11.61
49.7314,3.406623,36.01,-1.24,2.02,7.83
49.7314,3.406623,36.01,-1.05,-0.1,9.05
49.731105,3.40683,35.97,-0.52,1.22,10.06
49.731105,3.40683,35.97,0.63,1.08,9.39
49.730806,3.407045,36.11,-1.79,2.64,8.25
49.730806,3.407045,36.11,-1.52,2.57,6.35
49.730511,3.407258,36.09,0.7,1.01,11.93
49.730511,3.407258,36.09,-0.7,2.21,9.84
49.730216,3.407467,36.13,-1.41,2.38,8.74
49.730216,3.407467,36.13,0.56,0.2,13.13
49.729922,3.407674,36.15,-0.38,2.03,9.39
49.729922,3.407674,36.15,0.11,0.98,8.79
49.729631,3.407877,36.1,-1.45,1.44,8.28
49.729631,3.407877,36.1,0.13,1.11,9.89
49.729332,3.408083,35.89,-1.14,1.33,9.9
49.729332,3.408083,35.89,-0.67,2.3,11.1
49.729036,3.408294,35.49,-0.74,2.09,8.01
49.729036,3.408294,35.49,-0.45,1.41,9.42
49.728743,3.4085,35.27,-0.92,-0.15,9.94
49.728743,3.4085,35.27,-0.83,2.74,8.43
49.728453,3.408707,35.1,0.09,1.64,10.59
49.728453,3.408707,35.1,1.5,0.16,8.51
49.728164,3.408911,34.76,-2.0,2.07,10.81
49.728164,3.408911,34.76,-0.93,1.6,11.85
49.727881,3.409111,34.67,-0.51,1.62,9.65
49.727881,3.409111,34.67,-0.68,0.45,9.75
49.727599,3.409307,34.39,0.22,0.12,7.47
49.727599,3.409307,34.39,1.19,2.13,9.64
49.727326,3.409498,34.17,-0.36,1.59,7.95
49.727326,3.409498,34.17,0.01,2.01,10.13
49.727033,3.409709,34.01,-1.29,2.31,9.97
49.726753,3.409903,33.91,-0.89,0.6,8.76
49.726753,3.409903,33.91,0.48,1.63,9.42
49.726475,3.410099,33.78,-1.09,1.91,11.39
49.726475,3.410099,33.78,0.33,1.24,9.53
49.726195,3.410301,33.68,-1.12,2.2,8.99
49.726195,3.410301,33.68,-0.13,1.98,9.99
49.725919,3.410492,33.73,-1.11,1.52,8.38
49.725919,3.410492,33.73,-0.74,2.24,8.69
49.725638,3.410693,33.69,0.15,1.63,10.71
49.725638,3.410693,33.69,-1.47,1.74,10.07
49.725364,3.41089,33.82,-0.3,0.49,9.13
49.725364,3.41089,33.82,-0.6,2.86,10.74
49.725083,3.411092,33.91,-1.15,1.41,10.59
49.725083,3.411092,33.91,-0.66,1.87,10.69
49.7248,3.411308,33.96,-1.0,1.1,11.1
49.7248,3.411308,33.96,1.46,1.44,12.13
49.724521,3.411514,34.04,-1.72,2.8,8.94
49.724521,3.411514,34.04,-1.9,1.36,11.9
49.724246,3.411721,34.14,0.22,1.09,8.6
49.724246,3.411721,34.14,-1.18,0.56,9.15
49.723978,3.411923,34.11,-1.71,1.85,8.81
49.723978,3.411923,34.11,0.37,1.08,12.58
49.723711,3.412127,34.05,0.08,0.24,7.98
49.723711,3.412127,34.05,0.87,1.1,10.67
49.723443,3.412333,34.12,0.58,1.45,9.8
49.723443,3.412333,34.12,-0.74,-0.24,9.8
49.723173,3.412543,34.15,-0.06,0.66,10.18
49.723173,3.412543,34.15,0.23,1.31,11.77
49.722905,3.412758,34.19,0.4,0.93,8.13
49.722905,3.412758,34.19,-1.02,0.64,9.32
49.722626,3.412985,34.2,-1.13,2.36,8.45
49.722626,3.412985,34.2,0.54,1.49,9.75
49.722356,3.413209,34.41,0.97,1.14,10.21
49.722356,3.413209,34.41,-1.14,0.84,7.27
49.722083,3.413432,34.52,-1.02,2.56,10.67
49.722083,3.413432,34.52,-1.43,2.26,11.13
49.721807,3.413661,34.66,0.11,0.93,11.26
49.721807,3.413661,34.66,0.57,0.27,10.88
49.721542,3.41389,34.37,-1.16,1.23,8.32
49.721274,3.414117,33.99,1.58,0.27,10.51
49.721274,3.414117,33.99,-1.61,0.67,9.24
49.721008,3.414347,34.18,-0.21,2.13,10.67
49.721008,3.414347,34.18,0.55,1.96,11.22
49.720745,3.414574,34.28,-1.42,1.35,10.46
49.720745,3.414574,34.28,-1.97,1.23,8.6
49.720472,3.414814,34.4,-2.46,2.51,10.14
49.720472,3.414814,34.4,0.33,1.9,10.4
49.720199,3.415059,34.38,0.61,0.79,10.89
49.720199,3.415059,34.38,-0.89,0.98,10.16
49.719936,3.415302,34.32,-0.42,2.16,10.07
49.719936,3.415302,34.32,-2.1,2.04,10.51
49.719673,3.415549,34.19,1.44,1.74,10.15
49.719673,3.415549,34.19,-1.17,1.77,8.45
49.719413,3.415795,33.86,-0.77,1.86,10.74
49.719413,3.415795,33.86,-2.51,0.8,6.82
49.719155,3.416029,33.53,-1.49,2.7,10.04
49.719155,3.416029,33.53,-0.85,0.85,10.18
49.718897,3.416277,33.37,-1.42,2.51,8.38
49.718897,3.416277,33.37,-0.79,1.08,8.71
49.718644,3.416519,33.22,-1.39,2.63,11.15
49.718644,3.416519,33.22,0.35,1.7,11.05
49.71839,3.416763,33.08,-0.82,1.23,7.97
49.71839,3.416763,33.08,-1.68,1.59,9.49
49.718137,3.417009,32.77,-1.0,2.19,9.87
49.718137,3.417009,32.77,-0.11,1.11,9.72
49.71789,3.41725,32.7,-0.56,1.64,10.66
49.71789,3.41725,32.7,-1.45,2.18,10.7
49.717638,3.417506,32.59,-1.24,1.89,9.17
49.717638,3.417506,32.59,-1.2,0.62,9.88
49.717387,3.417762,32.63,-1.24,1.75,9.21
49.717387,3.417762,32.63,-0.41,2.08,11.73
49.717141,3.41801,32.55,-1.01,1.26,11.23
49.717141,3.41801,32.55,-0.26,1.81,10.51
49.716895,3.418266,32.62,-0.29,1.54,9.64
49.716895,3.418266,32.62,-2.14,2.38,9.69
49.716646,3.418528,32.71,-0.39,2.5,9.57
49.716402,3.418773,32.8,-1.57,1.51,7.77
