Location-lat,Location-long,Speed,Accelerometer-X,Accelerometer-Y,Accelerometer-Z
50.52561,2.565116,33.44,-0.73,0.55,8.68
50.525425,2.565482,33.37,-0.65,0.8,12.22
50.525425,2.565482,33.37,-0.88,1.75,7.54
50.52524,2.565854,33.35,0.05,1.24,10.71
50.52524,2.565854,33.35,-0.54,1.24,10.81
50.525055,2.566233,33.23,-1.71,2.07,9.84
50.525055,2.566233,33.23,-0.07,0.96,11.1
50.524873,2.566607,33.18,0.16,1.72,9.33
50.524873,2.566607,33.18,0.05,1.1,9.12
50.524694,2.566982,33.13,-1.46,1.62,9.1
50.524694,2.566982,33.13,0.33,1.55,11.36
50.524521,2.567352,33.15,-1.61,0.62,10.68
50.524521,2.567352,33.15,-1.25,1.16,8.14
50.524351,2.567738,33.21,-0.54,0.5,12.01
50.524351,2.567738,33.21,-0.18,1.53,10.98
50.524183,2.568123,33.15,-0.25,1.96,9.61
50.524183,2.568123,33.15,-0.34,1.5,10.07
50.524018,2.568518,33.03,-0.32,1.62,11.91
50.524018,2.568518,33.03,-0.82,0.8,8.64
50.523851,2.5689,32.94,-0.29,0.71,10.15
50.523851,2.5689,32.94,-0.8,1.64,11.09
50.523685,2.569284,32.8,-0.15,2.26,8.93
50.523685,2.569284,32.8,-0.27,0.13,9.49
50.52352,2.569665,32.69,0.1,0.23,11.18
50.52352,2.569665,32.69,-1.12,1.51,10.66
50.523359,2.570051,32.58,-1.89,1.64,8.91
50.523359,2.570051,32.58,-0.48,1.72,8.51
50.5232,2.57044,32.56,-0.87,0.23,9.71
50.5232,2.57044,32.56,-0.52,1.29,11.47
50.523039,2.570821,32.59,-1.78,2.12,7.8
50.523039,2.570821,32.59,-0.98,2.36,7.16
50.52288,2.571207,32.61,-0.47,-0.01,8.77
50.52288,2.571207,32.61,-0.15,1.3,9.95
50.52272,2.571591,32.6,-0.49,1.77,11.5
50.52272,2.571591,32.6,-1.33,1.45,7.99
50.522563,2.571979,32.58,-0.17,0.22,9.07
50.522563,2.571979,32.58,-0.08,-0.02,9.17
50.522403,2.572364,32.51,-1.13,0.52,10.55
50.522403,2.572364,32.51,-0.02,1.18,11.01
50.522243,2.57275,32.54,-0.54,1.67,9.81
50.522084,2.573132,32.53,-0.06,1.46,8.8
50.522084,2.573132,32.53,-0.26,0.47,9.75
50.521922,2.573515,32.49,-0.67,0.23,11.07
50.521922,2.573515,32.49,-0.91,1.19,10.77
50.52176,2.573896,32.52,-1.69,1.87,9.07
50.52176,2.573896,32.52,-1.79,1.77,8.09
50.521599,2.574281,32.53,1.29,1.05,10.52
50.521599,2.574281,32.53,-0.61,1.51,11.61
50.521439,2.574668,32.65,-1.23,1.05,9.36
50.521439,2.574668,32.65,-0.48,1.93,9.56
50.521278,2.575057,32.65,0.66,0.5,9.26
50.521278,2.575057,32.65,-0.91,1.41,9.63
50.52112,2.575445,32.66,-1.58,2.26,11.06
50.52112,2.575445,32.66,-1.48,2.1,7.74
50.520963,2.575837,32.66,0.21,0.22,9.73
50.520963,2.575837,32.66,-0.7,0.2,10.98
50.520808,2.576227,32.64,0.27,2.51,10.33
50.520808,2.576227,32.64,-0.38,1.81,8.29
50.520652,2.576617,32.62,0.04,2.09,7.87
50.520652,2.576617,32.62,-1.73,0.71,10.49
50.520495,2.577005,32.61,-1.57,1.51,9.21
50.520495,2.577005,32.61,-1.68,2.05,9.24
50.520339,2.577394,32.55,-0.89,2.81,9.3
50.520339,2.577394,32.55,0.19,0.5,11.0
50.520185,2.577783,32.43,-1.32,1.31,11.4
50.520185,2.577783,32.43,-0.7,1.52,9.66
50.52003,2.578171,32.3,-0.77,1.75,10.58
50.52003,2.578171,32.3,-0.13,1.75,10.15
50.519877,2.578558,32.25,-0.46,1.98,9.34
50.519877,2.578558,32.25,0.03,2.58,8.8
50.519725,2.578945,32.22,0.27,1.02,9.26
50.519725,2.578945,32.22,-0.68,0.89,9.73
50.519575,2.579334,32.21,0.34,1.1,9.64
50.519575,2.579334,32.21,0.1,1.78,9.94
50.519424,2.579722,32.21,-0.22,1.66,10.54
50.519424,2.579722,32.21,-0.39,1.33,10.42
50.519275,2.580111,32.19,-0.69,0.85,10.24
50.519275,2.580111,32.19,-1.96,2.31,8.23
50.519127,2.5805,32.18,-1.98,1.05,8.39
50.518977,2.580886,32.09,0.69,2.04,8.72
50.518977,2.580886,32.09,0.06,0.62,9.92
50.51883,2.581275,32.08,-1.33,2.06,8.01
50.51883,2.581275,32.08,-0.33,1.38,8.23
50.518684,2.581663,32.09,-0.28,0.48,11.43
50.518684,2.581663,32.09,-0.29,0.25,9.96
50.518539,2.582053,32.12,-1.83,0.83,10.44
50.518539,2.582053,32.12,-1.43,1.75,9.4
50.518395,2.58245,32.17,-0.35,0.78,9.95
50.518395,2.58245,32.17,-0.62,2.04,11.34
50.518245,2.582843,32.23,-0.44,1.13,9.6
50.518245,2.582843,32.23,-0.26,0.62,9.12
50.518099,2.583236,32.3,-0.54,2.86,8.87
50.518099,2.583236,32.3,-0.95,0.11,9.99
50.517957,2.583637,32.38,0.01,0.08,9.33
50.517957,2.583637,32.38,-0.31,1.31,11.45
50.517813,2.584035,32.48,-0.52,1.91,10.7
50.517813,2.584035,32.48,-0.54,1.16,8.54
50.51767,2.584431,32.54,0.39,1.73,7.61
50.51767,2.584431,32.54,-0.7,0.66,10.11
50.517531,2.584832,32.65,-0.52,1.26,10.58
50.517531,2.584832,32.65,0.66,1.67,10.02
50.517391,2.585236,32.83,0.33,0.62,9.54
50.517391,2.585236,32.83,-0.53,2.52,11.14
50.517247,2.585637,32.98,-1.15,2.7,10.89
50.517247,2.585637,32.98,0.71,2.27,8.9
50.517103,2.586045,33.15,-1.47,2.33,11.16
50.517103,2.586045,33.15,-0.12,1.89,9.22
50.51696,2.586456,33.36,-0.78,1.55,10.36
50.51696,2.586456,33.36,-1.31,0.56,7.62
50.516817,2.586872,33.59,-0.49,0.76,11.96
50.516817,2.586872,33.59,-1.16,1.76,6.57
50.516674,2.587291,33.84,0.34,2.35,10.81
50.516674,2.587291,33.84,-1.29,1.83,10.52
50.516534,2.587715,34.06,-2.62,0.58,7.1
50.516534,2.587715,34.06,-0.16,1.86,8.61
50.51639,2.588139,34.15,1.36,0.05,9.41
50.51639,2.588139,34.15,-1.36,0.02,9.69
50.516247,2.588567,34.2,-0.37,2.51,9.26
50.516247,2.588567,34.2,1.09,0.51,10.44
50.516107,2.588991,33.68,0.35,1.65,8.76
50.516107,2.588991,33.68,-0.52,-0.53,9.38
50.515969,2.589408,33.25,1.15,-0.07,10.32
50.515831,2.589821,32.79,-0.04,2.16,11.0
50.515831,2.589821,32.79,0.89,0.57,9.4
50.515699,2.590231,32.51,0.0,-0.48,8.14
50.515699,2.590231,32.51,-0.45,0.1,10.51
50.515571,2.59064,32.27,-1.52,1.05,9.41
50.515571,2.59064,32.27,-0.71,1.43,10.46
50.515444,2.591045,32.26,-1.53,1.7,10.43
50.515444,2.591045,32.26,-0.21,1.96,10.02
50.515317,2.59145,32.43,-1.2,1.5,9.23
50.515317,2.59145,32.43,-0.22,1.28,8.82
50.515185,2.591858,32.64,-0.25,1.52,9.86
50.515185,2.591858,32.64,-1.4,2.0,8.23
50.515059,2.592276,32.8,-0.87,1.27,9.08
50.515059,2.592276,32.8,-0.44,0.83,10.18
50.514933,2.592694,32.86,-0.25,1.13,9.17
50.514933,2.592694,32.86,-1.29,2.08,9.19
50.514806,2.59311,33.03,-1.41,-0.02,11.03
50.514806,2.59311,33.03,-0.47,1.95,10.43
50.514684,2.593534,33.28,-1.25,1.97,9.04
50.514684,2.593534,33.28,-1.45,1.41,10.04
50.514561,2.593965,33.41,-0.35,1.92,8.55
50.514561,2.593965,33.41,-1.04,0.84,12.11
50.514436,2.594395,33.6,-1.09,1.01,7.51
50.514436,2.594395,33.6,0.45,0.79,9.43
50.514309,2.594828,33.84,-0.75,1.81,9.61
50.514309,2.594828,33.84,-0.64,0.88,9.44
50.51418,2.595264,33.97,0.3,0.62,10.07
50.51418,2.595264,33.97,-0.7,1.64,9.65
50.514054,2.595702,33.99,-0.79,1.85,9.98
50.514054,2.595702,33.99,-0.03,0.33,10.9
50.513928,2.596139,33.71,-2.15,1.09,8.78
50.513928,2.596139,33.71,-0.23,-0.56,9.87
50.51381,2.596568,33.34,-0.24,2.21,9.44
50.51381,2.596568,33.34,-2.15,0.43,8.57
50.513689,2.597003,33.1,-2.28,0.43,10.69
50.513689,2.597003,33.1,-0.98,1.06,10.43
50.513574,2.597431,32.99,-1.51,1.81,9.62
50.513574,2.597431,32.99,-0.91,1.34,12.16
50.51346,2.597855,32.94,-0.47,2.61,8.85
50.51346,2.597855,32.94,-0.7,2.49,8.54
50.513348,2.598288,32.92,0.02,0.57,10.28
50.513348,2.598288,32.92,-1.13,1.14,10.18
50.513236,2.59872,32.85,0.5,0.47,7.85
50.513124,2.599153,32.88,1.22,0.26,11.51
50.513124,2.599153,32.88,-1.32,1.77,10.12
50.513015,2.599584,32.93,-0.76,1.61,10.78
50.513015,2.599584,32.93,0.46,1.97,8.5
50.512904,2.600014,33.08,-1.44,1.54,9.59
50.512904,2.600014,33.08,0.58,0.9,9.06
50.512797,2.600448,33.18,-1.74,0.6,11.43
50.512797,2.600448,33.18,-0.14,1.8,8.6
50.512695,2.600887,33.27,-2.09,2.24,9.6
50.512695,2.600887,33.27,-2.14,0.27,9.82
50.512593,2.601326,33.21,-1.31,2.26,10.14
50.512593,2.601326,33.21,-0.02,0.94,10.8
50.512492,2.60177,33.19,-1.14,2.04,10.86
50.512492,2.60177,33.19,0.52,1.14,7.66
50.51239,2.602213,33.17,-1.44,0.41,10.58
50.51239,2.602213,33.17,-0.11,1.93,9.66
50.512289,2.602652,33.1,-0.84,0.72,11.22
50.512289,2.602652,33.1,-0.44,1.38,10.81
50.512189,2.603086,32.97,-0.56,1.99,7.9
50.512189,2.603086,32.97,-1.76,0.01,10.65
50.512093,2.603521,32.82,-1.04,1.8,9.03
50.512093,2.603521,32.82,-0.76,1.3,9.17
50.512,2.603957,32.73,-0.3,1.6,8.47
50.512,2.603957,32.73,-0.63,0.97,10.66
50.511907,2.604392,32.58,-0.76,1.8,11.58
50.511907,2.604392,32.58,0.42,0.91,9.28
50.511817,2.604825,32.56,0.22,1.88,10.01
50.511817,2.604825,32.56,0.47,1.82,9.76
50.511725,2.605261,32.52,-1.75,1.01,11.79
50.511725,2.605261,32.52,-1.71,2.23,10.23
50.511635,2.605697,32.41,-1.29,1.49,9.7
50.511635,2.605697,32.41,-1.28,2.0,8.34
50.511548,2.606131,32.34,0.22,1.23,9.79
50.511548,2.606131,32.34,-0.57,1.16,11.95
50.511461,2.606564,32.27,-0.83,0.32,9.68
50.511461,2.606564,32.27,-0.51,1.19,11.38
50.511376,2.607,32.21,-0.23,1.6,11.21
50.511376,2.607,32.21,-0.45,1.88,11.3
50.511293,2.607435,32.2,-1.59,2.01,10.25
50.511293,2.607435,32.2,-1.3,2.24,6.94
50.511215,2.607872,32.02,-0.71,1.77,6.8
50.511144,2.608315,32.21,-0.1,2.12,8.03
50.511144,2.608315,32.21,-0.36,1.17,10.52
50.511067,2.608758,32.24,0.32,1.18,9.82
50.511067,2.608758,32.24,-1.73,0.49,10.75
50.510985,2.6092,32.27,-0.44,1.66,10.87
50.510985,2.6092,32.27,-0.03,1.41,11.69
50.510905,2.609639,32.3,-1.6,1.54,8.69
50.510905,2.609639,32.3,-0.59,2.01,10.95
50.510826,2.610079,32.32,-0.68,2.08,8.47
50.510826,2.610079,32.32,0.31,1.1,9.23
50.510748,2.610516,32.31,-0.3,0.87,6.54
50.510748,2.610516,32.31,-1.51,-0.06,10.89
50.510672,2.610959,32.38,-0.52,1.72,10.78
50.510672,2.610959,32.38,-0.07,1.97,10.0
50.510598,2.611401,32.35,-1.12,1.05,8.37
50.510598,2.611401,32.35,0.31,1.24,9.16
50.51052,2.611844,32.41,-0.66,1.75,8.33
50.51052,2.611844,32.41,-0.52,0.57,8.88
50.510451,2.612289,32.41,0.59,1.45,10.57
50.510451,2.612289,32.41,-0.22,1.1,10.55
50.510386,2.612738,32.38,-1.57,1.37,9.04
50.510386,2.612738,32.38,-0.15,1.91,7.77
50.51032,2.613186,32.39,0.08,2.78,7.35
50.51032,2.613186,32.39,-0.47,0.15,10.15
50.510257,2.613631,32.44,-0.1,2.35,11.12
50.510257,2.613631,32.44,-0.24,2.27,10.38
50.510192,2.614076,32.46,-2.17,1.51,6.36
50.510192,2.614076,32.46,0.15,-0.09,9.67
50.510133,2.614524,32.58,-0.81,2.23,10.57
50.510133,2.614524,32.58,-0.04,2.02,9.47
50.510071,2.614972,32.71,-1.56,1.53,9.99
50.510071,2.614972,32.71,0.01,0.46,10.34
50.510009,2.61542,32.22,-0.33,0.71,9.04
50.510009,2.61542,32.22,-0.29,0.12,8.52
50.509949,2.615863,31.89,-1.33,-0.07,8.98
50.509949,2.615863,31.89,1.09,1.95,10.04
50.50989,2.616302,31.82,0.64,1.02,9.07
50.50989,2.616302,31.82,-0.95,0.77,9.14
50.509832,2.616737,31.89,-0.55,0.93,10.18
50.509832,2.616737,31.89,0.21,1.88,9.54
50.509777,2.617177,31.97,-0.4,0.74,10.56
50.509777,2.617177,31.97,-0.36,1.13,10.46
50.509726,2.617622,32.1,-0.65,0.93,8.58
50.509726,2.617622,32.1,-0.87,1.34,8.32
50.509674,2.618069,32.19,-1.61,2.05,9.27
50.509622,2.618513,32.23,-2.21,1.66,10.22
50.509622,2.618513,32.23,-0.57,2.03,9.12
50.509568,2.618961,32.28,-0.05,1.33,9.84
50.509568,2.618961,32.28,-1.76,2.45,9.78
50.50952,2.619414,32.67,-0.09,1.44,9.88
50.50952,2.619414,32.67,-1.37,0.76,10.51
50.509479,2.619872,32.93,0.25,1.01,9.54
50.509479,2.619872,32.93,0.66,0.77,9.84
50.509439,2.620333,33.2,-1.33,1.11,10.93
50.509439,2.620333,33.2,-0.28,2.16,9.58
50.509398,2.620798,33.32,-0.41,2.39,10.5
50.509398,2.620798,33.32,0.72,1.69,9.77
50.509357,2.621259,33.41,0.19,-0.29,8.59
50.509357,2.621259,33.41,-0.57,0.95,9.89
50.509313,2.621723,33.51,-0.87,1.46,10.62
50.509313,2.621723,33.51,-0.23,1.31,9.02
50.509265,2.62219,33.55,-0.04,0.52,11.77
50.509265,2.62219,33.55,-1.48,1.9,9.17
50.509213,2.622655,33.63,-1.72,2.49,10.61
50.509213,2.622655,33.63,-1.25,1.47,8.95
50.509167,2.623119,33.65,-0.86,2.62,10.94
50.509167,2.623119,33.65,1.21,0.74,10.75
50.509117,2.623586,33.62,0.4,1.31,8.26
50.509117,2.623586,33.62,0.38,1.42,8.26
50.509061,2.624054,33.57,-0.22,2.05,8.27
50.509061,2.624054,33.57,-0.45,0.86,10.08
50.50901,2.624521,33.61,-1.87,2.53,10.38
50.50901,2.624521,33.61,0.33,1.04,10.55
50.508958,2.624987,33.64,-1.88,1.94,7.84
50.508958,2.624987,33.64,0.06,0.24,11.16
50.508909,2.625455,33.71,-1.41,1.02,10.1
50.508909,2.625455,33.71,-0.5,3.37,10.64
50.508858,2.625923,33.76,-1.73,1.64,9.31
50.508858,2.625923,33.76,0.02,2.63,9.29
50.508804,2.626392,33.77,-0.66,0.39,10.3
50.508804,2.626392,33.77,-1.61,2.62,11.31
50.508747,2.62686,33.84,0.07,0.5,8.7
50.508688,2.627327,33.73,-1.43,1.43,9.23
50.508688,2.627327,33.73,-0.57,1.92,10.33
50.50863,2.627793,33.74,-0.57,1.52,7.92
50.50863,2.627793,33.74,-1.46,1.54,9.41
50.508576,2.628265,33.68,-0.74,1.34,10.3
50.508576,2.628265,33.68,-0.59,3.41,10.24
50.50852,2.628734,33.65,-1.92,0.36,9.8
50.50852,2.628734,33.65,-2.61,1.61,9.15
50.508468,2.629201,33.57,-0.59,0.17,10.0
50.508468,2.629201,33.57,-1.48,1.16,9.5
50.508418,2.629667,33.52,-1.4,-0.24,9.88
50.508418,2.629667,33.52,-1.24,1.97,10.64
50.508369,2.630133,33.45,-1.29,0.9,10.99
50.508369,2.630133,33.45,0.34,2.05,9.89
50.508318,2.630597,33.42,0.68,1.1,8.65
50.508318,2.630597,33.42,-0.45,2.09,9.53
50.508267,2.631061,33.37,1.1,0.24,10.63
50.508267,2.631061,33.37,-0.03,2.22,10.12
50.508216,2.631524,33.32,0.14,1.71,8.03
50.508216,2.631524,33.32,-1.04,3.14,12.04
50.508164,2.631986,33.25,0.31,2.58,10.22
50.508164,2.631986,33.25,0.02,0.22,9.88
50.50811,2.632447,33.21,-0.71,1.37,8.71
50.50811,2.632447,33.21,0.19,-0.06,12.61
50.508052,2.632905,33.1,-0.65,1.7,10.73
50.508052,2.632905,33.1,-1.68,1.76,10.45
50.507992,2.633361,33.09,-0.5,1.19,10.1
50.507992,2.633361,33.09,-0.17,0.42,8.63
50.507932,2.633819,33.1,1.02,1.53,9.29
50.507932,2.633819,33.1,-1.64,1.86,9.97
50.50787,2.634279,33.11,-0.88,2.26,9.23
50.50787,2.634279,33.11,-0.35,2.01,9.59
50.507805,2.634733,33.12,-0.23,2.8,10.49
50.507805,2.634733,33.12,1.2,2.18,8.53
50.507738,2.63519,33.21,0.09,2.51,11.79
50.507738,2.63519,33.21,0.52,1.04,9.25
50.507668,2.635643,33.31,-0.37,0.94,9.31
50.507668,2.635643,33.31,-0.69,2.48,10.19
50.507595,2.6361,33.4,1.15,0.66,8.23
50.507595,2.6361,33.4,0.27,2.27,9.25
50.507519,2.636553,33.5,0.21,1.55,7.35
50.507439,2.637006,33.52,-0.73,3.31,10.78
50.507439,2.637006,33.52,-0.08,-0.48,8.93
50.50736,2.637463,33.45,-0.23,2.49,11.34
50.50736,2.637463,33.45,0.76,1.55,9.17
50.507284,2.637921,33.54,-0.27,1.86,9.85
50.507284,2.637921,33.54,-1.86,1.32,9.55
50.507204,2.638378,33.7,-1.45,2.82,11.69
50.507204,2.638378,33.7,-0.03,0.47,10.06
50.507122,2.638836,33.8,-1.41,1.64,9.62
50.507122,2.638836,33.8,-0.06,0.23,8.82
50.507038,2.639292,33.85,-1.27,1.18,9.21
50.507038,2.639292,33.85,0.32,2.25,9.86
50.506952,2.63975,34.04,1.06,1.98,10.21
50.506952,2.63975,34.04,-1.18,1.22,8.74
50.506865,2.640203,34.08,0.03,1.7,9.92
50.506865,2.640203,34.08,-0.45,2.49,11.28
50.506776,2.640659,34.14,-0.42,0.78,11.02
50.506776,2.640659,34.14,1.01,1.55,11.25
50.506681,2.641112,34.29,-1.07,2.89,9.96
50.506681,2.641112,34.29,-1.11,2.41,10.12
50.50658,2.641563,34.42,0.97,0.94,9.66
50.50658,2.641563,34.42,-1.36,0.79,8.3
50.506478,2.642019,34.47,0.56,0.87,10.61
50.506478,2.642019,34.47,-0.72,2.04,10.96
50.506374,2.642479,34.68,0.04,1.96,10.5
50.506374,2.642479,34.68,-0.12,1.74,11.97
50.506275,2.642942,34.78,-0.7,1.7,11.19
50.506275,2.642942,34.78,-0.44,1.06,8.57
50.506167,2.643405,34.89,1.24,1.32,9.0
50.506167,2.643405,34.89,0.96,0.91,9.28
50.506056,2.64387,35.06,-0.9,1.56,10.13
50.506056,2.64387,35.06,1.09,0.51,8.89
50.505943,2.644333,35.12,0.63,0.59,9.31
50.505943,2.644333,35.12,-0.14,0.74,11.29
50.50583,2.644795,35.35,1.31,-0.35,10.75
50.50583,2.644795,35.35,0.94,-0.08,10.93
50.505714,2.645258,34.96,-0.44,1.16,9.72
50.505597,2.645714,34.67,0.31,2.01,10.52
50.505597,2.645714,34.67,-1.4,2.07,10.6
50.505476,2.646163,34.45,0.56,0.43,8.62
50.505476,2.646163,34.45,0.07,0.77,9.82
50.505354,2.646608,34.18,-1.15,0.39,9.99
50.505354,2.646608,34.18,0.13,0.64,12.28
50.505234,2.647058,34.22,1.22,0.34,9.28
50.505234,2.647058,34.22,-0.17,0.8,11.73
50.505112,2.6475,33.93,0.22,0.66,10.04
50.505112,2.6475,33.93,0.26,0.69,11.57
50.504989,2.647938,33.45,-1.79,1.82,9.63
50.504989,2.647938,33.45,-0.85,-0.76,9.82
50.504866,2.648368,33.33,-0.85,0.4,11.08
50.504866,2.648368,33.33,-1.29,1.54,10.01
50.504746,2.648797,33.38,-0.79,1.5,9.19
50.504746,2.648797,33.38,0.34,1.63,9.18
50.504623,2.649232,33.43,0.67,0.61,12.13
50.504623,2.649232,33.43,-0.92,1.1,9.27
50.5045,2.649663,33.56,1.25,1.14,10.24
50.5045,2.649663,33.56,-1.33,1.58,9.6
50.504371,2.650096,33.73,-1.47,2.16,10.69
50.504371,2.650096,33.73,-0.64,0.43,10.82
50.504241,2.650532,33.89,-0.54,2.84,10.75
50.504241,2.650532,33.89,-0.16,0.24,9.37
50.504109,2.650968,34.06,0.78,1.87,8.58
50.504109,2.650968,34.06,-1.04,1.88,10.05
50.503979,2.651407,34.24,-1.27,1.77,10.56
50.503979,2.651407,34.24,-0.13,-0.19,9.18
50.503847,2.651845,34.22,-1.62,0.14,10.07
50.503847,2.651845,34.22,-0.86,-0.01,7.52
50.50372,2.652279,33.68,1.12,0.53,10.65
50.50372,2.652279,33.68,-1.55,2.35,11.93
50.503593,2.652708,33.64,-1.07,1.89,9.03
50.503593,2.652708,33.64,-0.97,1.97,10.16
50.503464,2.653135,33.58,0.15,0.9,7.49
50.503464,2.653135,33.58,-0.87,-0.11,10.85
50.503336,2.653563,33.48,-1.11,1.47,9.27
50.503336,2.653563,33.48,-0.57,2.66,11.13
50.503208,2.65399,33.28,-0.3,1.33,9.14
50.503082,2.654417,33.35,1.15,0.47,10.32
50.503082,2.654417,33.35,1.5,1.97,10.86
50.502954,2.654842,33.45,0.72,2.12,9.42
50.502954,2.654842,33.45,0.42,1.68,9.11
50.502823,2.65527,33.54,0.74,1.43,11.14
50.502823,2.65527,33.54,-1.14,1.77,9.65
50.502694,2.655697,33.39,-0.42,0.2,7.91
50.502694,2.655697,33.39,-1.03,1.67,10.54
50.502566,2.656118,32.63,-0.95,0.41,9.46
50.502566,2.656118,32.63,-1.11,1.56,8.7
50.502441,2.65653,32.0,-1.7,2.0,10.36
50.502441,2.65653,32.0,-0.14,2.28,9.3
50.502318,2.656936,31.86,-1.02,2.46,8.12
50.502318,2.656936,31.86,0.08,1.25,11.84
50.502198,2.657347,32.0,0.28,1.37,8.42
50.502198,2.657347,32.0,-1.38,2.12,9.9
50.502079,2.657754,32.06,-0.54,1.98,8.06
50.502079,2.657754,32.06,-0.74,2.35,8.72
50.501952,2.658162,31.94,1.62,1.9,9.22
50.501952,2.658162,31.94,0.27,1.73,9.34
50.501827,2.658561,31.26,-0.25,0.51,9.33
50.501827,2.658561,31.26,-0.67,0.39,11.44
50.501706,2.658954,30.83,-0.5,0.12,12.37
50.501706,2.658954,30.83,-0.82,2.76,7.79
50.501578,2.659341,30.8,1.02,0.95,9.45
50.501578,2.659341,30.8,-0.68,1.05,8.23
50.501451,2.65973,30.86,-0.22,1.82,8.91
50.501451,2.65973,30.86,-0.92,1.63,12.45
50.501325,2.660119,30.97,0.42,0.21,11.33
50.501325,2.660119,30.97,-0.92,1.54,10.45
50.501196,2.660509,31.08,-0.26,1.76,9.42
50.501196,2.660509,31.08,-1.61,1.52,10.25
50.501074,2.660907,31.35,-1.16,1.85,7.81
50.501074,2.660907,31.35,-1.31,0.88,10.51
50.500955,2.661311,31.69,-0.96,1.43,9.85
50.500955,2.661311,31.69,-1.11,1.85,9.71
50.500829,2.661715,32.02,-1.03,1.44,11.54
50.500829,2.661715,32.02,-1.04,1.89,11.03
50.500705,2.662123,32.45,-0.46,1.88,9.27
50.500705,2.662123,32.45,-1.08,1.78,7.4
50.500578,2.662535,32.73,0.46,-0.39,12.06
50.500449,2.66295,32.66,-0.93,0.73,9.59
50.500449,2.66295,32.66,-0.37,2.1,9.36
50.500327,2.663368,32.72,-1.57,2.52,9.34
50.500327,2.663368,32.72,0.11,1.83,11.99
50.500206,2.663786,33.03,1.18,1.94,9.7
50.500206,2.663786,33.03,-0.44,1.81,8.22
50.500081,2.664213,33.43,-1.03,2.5,11.33
50.500081,2.664213,33.43,1.23,0.93,6.65
50.499953,2.664642,33.62,1.36,0.17,8.18
50.499953,2.664642,33.62,-1.11,1.51,10.69
50.499821,2.665066,33.13,-0.28,-0.11,11.23
50.499821,2.665066,33.13,-1.16,2.14,9.51
50.499696,2.665488,33.16,-0.14,0.79,7.48
50.499696,2.665488,33.16,-2.57,1.91,10.35
50.499574,2.665914,33.45,0.05,1.36,9.33
50.499574,2.665914,33.45,-1.12,1.31,10.62
50.49945,2.666347,33.57,0.05,1.79,8.84
50.49945,2.666347,33.57,-0.04,1.17,12.0
50.499326,2.666781,33.58,-1.31,0.73,9.16
50.499326,2.666781,33.58,0.0,0.12,10.79
50.4992,2.667213,33.59,0.16,1.69,9.95
50.4992,2.667213,33.59,-0.38,2.55,10.09
50.499073,2.667642,33.6,-1.12,-0.09,11.05
50.499073,2.667642,33.6,-0.28,1.82,8.82
50.498947,2.668072,33.56,0.24,1.02,9.03
50.498947,2.668072,33.56,-0.7,2.2,10.81
50.498816,2.668495,33.61,-0.64,1.17,10.94
50.498816,2.668495,33.61,-1.64,1.95,8.37
50.498684,2.668922,33.68,-0.48,0.68,10.79
50.498684,2.668922,33.68,-1.53,1.63,10.35
50.498552,2.669349,33.67,-0.06,0.42,10.31
50.498552,2.669349,33.67,-0.68,1.94,9.1
50.498419,2.669775,33.66,0.16,1.89,11.29
50.498419,2.669775,33.66,-0.2,1.39,9.81
50.498281,2.670197,33.66,-1.41,1.92,10.86
50.498281,2.670197,33.66,0.98,0.86,8.12
50.498138,2.670618,33.66,-1.29,1.19,9.25
50.498138,2.670618,33.66,0.44,1.18,8.78
50.497992,2.671039,33.73,-0.85,1.03,8.26
50.497992,2.671039,33.73,-1.04,1.99,11.89
50.497844,2.671457,33.88,-1.21,1.59,7.54
50.497697,2.671874,33.96,-1.03,2.6,10.81
50.497697,2.671874,33.96,0.26,0.72,9.76
50.497544,2.672286,33.9,-0.45,1.08,8.85
50.497544,2.672286,33.9,0.27,1.29,11.35
50.497392,2.672695,33.79,1.98,1.03,9.49
50.497392,2.672695,33.79,-0.68,2.69,10.88
50.497238,2.673098,33.82,1.46,1.09,9.05
50.497238,2.673098,33.82,-0.34,1.32,8.49
50.497081,2.673502,33.77,-0.28,0.46,11.54
50.497081,2.673502,33.77,0.13,1.34,9.0
50.496916,2.673903,33.79,0.17,1.92,9.06
50.496916,2.673903,33.79,0.16,1.41,9.04
50.496752,2.674296,33.82,0.34,1.48,8.34
50.496752,2.674296,33.82,0.75,0.07,11.69
50.496582,2.674685,33.62,-0.49,0.38,9.47
50.496582,2.674685,33.62,0.41,0.52,10.71
50.49641,2.675071,33.35,-1.22,1.49,9.76
50.49641,2.675071,33.35,0.33,1.16,11.04
50.496237,2.675452,32.95,0.68,0.47,9.08
50.496237,2.675452,32.95,-1.18,1.98,11.12
50.496067,2.67583,32.7,0.45,2.3,9.27
50.496067,2.67583,32.7,-1.18,1.46,8.95
50.495896,2.676206,32.6,0.28,0.88,11.09
50.495896,2.676206,32.6,-0.27,2.09,10.55
50.495722,2.676578,32.54,-1.87,1.89,10.62
50.495722,2.676578,32.54,-0.75,2.11,8.34
50.495547,2.676949,32.71,-1.1,1.23,10.58
50.495547,2.676949,32.71,-0.25,1.65,10.38
50.495367,2.677315,32.86,-0.33,1.28,8.18
50.495367,2.677315,32.86,0.67,0.22,10.34
50.495186,2.677683,32.88,-1.49,2.25,9.86
50.495186,2.677683,32.88,-0.27,1.54,8.15
50.495005,2.678052,32.98,-0.82,0.64,11.23
50.495005,2.678052,32.98,-0.5,2.64,9.69
50.494825,2.678423,33.27,-0.1,2.05,9.29
50.494825,2.678423,33.27,-0.61,1.74,10.8
50.494643,2.678795,33.34,0.46,1.57,8.71
50.494643,2.678795,33.34,0.13,1.73,10.03
50.494456,2.679163,33.57,-0.92,2.15,8.6
50.494456,2.679163,33.57,0.11,2.96,10.52
50.494262,2.679529,33.75,-0.52,1.22,11.99
50.494064,2.67989,33.91,-0.2,0.49,8.45
50.494064,2.67989,33.91,-0.56,1.89,10.8
50.49386,2.680245,34.01,0.68,0.01,9.1
50.49386,2.680245,34.01,-0.33,2.26,10.47
50.493651,2.680593,34.1,-0.3,1.27,10.34
50.493651,2.680593,34.1,-1.27,0.62,8.48
50.493442,2.680941,34.06,0.03,2.67,10.12
50.493442,2.680941,34.06,0.34,1.07,11.42
50.493232,2.68129,33.98,0.2,2.15,9.61
50.493232,2.68129,33.98,-0.88,1.39,8.72
50.493023,2.681637,33.91,1.24,0.51,11.43
50.493023,2.681637,33.91,0.43,1.77,9.93
50.492812,2.681974,33.8,-1.27,0.97,12.15
50.492812,2.681974,33.8,-0.09,2.22,8.79
50.492598,2.682306,33.7,-0.68,1.89,9.78
50.492598,2.682306,33.7,-1.18,1.75,10.19
50.49238,2.682632,33.45,0.23,0.72,11.38
50.49238,2.682632,33.45,-1.51,0.89,8.71
50.492163,2.682952,32.68,-0.03,-0.6,9.47
50.492163,2.682952,32.68,-0.47,0.04,11.41
50.491947,2.683266,32.62,0.4,2.16,10.31
50.491947,2.683266,32.62,1.1,1.62,8.86
50.491727,2.68357,32.69,0.06,0.85,10.26
50.491727,2.68357,32.69,-0.52,0.46,11.1
50.491503,2.68387,32.7,-1.41,1.35,10.45
50.491503,2.68387,32.7,-1.19,2.81,8.45
50.49127,2.68416,32.77,-0.13,1.22,9.28
50.49127,2.68416,32.77,0.1,2.24,11.39
50.491039,2.684451,32.81,-1.36,1.24,7.98
50.491039,2.684451,32.81,-1.59,2.22,7.97
50.490808,2.684743,32.87,-1.05,0.81,11.37
50.490808,2.684743,32.87,0.21,0.62,9.49
50.490578,2.685035,32.74,-0.23,2.18,8.4
50.490578,2.685035,32.74,0.01,1.01,11.89
50.490349,2.685331,32.87,-0.52,1.02,8.32
50.490349,2.685331,32.87,1.06,0.53,10.38
50.490112,2.685615,32.99,-0.62,0.65,10.31
50.489873,2.685895,33.03,-0.22,1.12,9.87
50.489873,2.685895,33.03,-0.15,0.71,12.03
50.489636,2.686179,33.12,-0.45,1.34,11.57
50.489636,2.686179,33.12,-0.19,0.76,8.19
50.489398,2.686461,33.16,1.14,1.31,10.75
50.489398,2.686461,33.16,-0.43,1.17,9.32
50.489157,2.686738,33.27,-0.27,1.58,9.05
50.489157,2.686738,33.27,0.81,2.94,10.95
50.488913,2.687011,33.35,-0.11,1.0,8.88
50.488913,2.687011,33.35,-0.63,0.53,10.64
50.488666,2.687278,33.44,0.22,1.33,10.39
50.488666,2.687278,33.44,0.65,0.66,10.66
50.488417,2.687541,33.47,-0.67,1.71,7.94
50.488417,2.687541,33.47,1.13,1.18,8.81
50.488167,2.687804,33.48,-1.63,1.97,10.65
50.488167,2.687804,33.48,1.36,1.84,10.86
50.487916,2.688064,33.52,-0.12,1.11,9.26
50.487916,2.688064,33.52,0.44,0.62,10.43
50.48766,2.688317,33.56,0.61,1.89,10.02
50.48766,2.688317,33.56,0.03,2.12,11.39
50.487404,2.688569,33.67,0.33,2.07,10.21
50.487404,2.688569,33.67,-0.43,1.21,10.33
50.487144,2.688816,33.75,1.64,1.89,9.13
50.487144,2.688816,33.75,-0.29,2.5,11.18
50.48688,2.689058,33.83,0.79,1.04,11.09
50.48688,2.689058,33.83,-0.92,1.64,8.73
50.486616,2.689293,33.87,-0.89,1.12,10.82
50.486616,2.689293,33.87,-1.15,1.45,8.06
50.486351,2.689526,33.93,0.4,2.27,9.66
50.486351,2.689526,33.93,-0.64,1.37,10.7
50.486086,2.689755,33.91,-0.1,1.54,9.05
50.486086,2.689755,33.91,-0.61,1.66,10.69
50.485821,2.689987,33.93,-0.68,1.03,9.99
50.485821,2.689987,33.93,0.23,0.88,9.99
50.485554,2.690215,33.93,0.85,1.85,11.31
50.485554,2.690215,33.93,-0.44,0.3,11.11
50.485284,2.690435,33.95,-1.35,1.77,7.82
50.485284,2.690435,33.95,0.34,0.79,11.58
50.485012,2.690648,33.99,0.79,1.03,10.18
50.485012,2.690648,33.99,0.37,1.52,8.37
50.484737,2.690857,33.99,-1.79,0.43,11.7
50.484462,2.69106,33.97,-1.27,1.57,7.79
50.484462,2.69106,33.97,-0.42,1.79,9.34
50.484186,2.691263,33.99,0.93,1.75,8.86
50.484186,2.691263,33.99,0.06,1.96,9.22
50.483905,2.691455,33.97,-0.28,1.4,9.07
50.483905,2.691455,33.97,1.04,1.25,8.02
50.483624,2.691644,33.96,-0.47,1.86,9.58
50.483624,2.691644,33.96,-0.49,1.63,9.81
50.48334,2.691829,33.91,-0.83,1.96,9.07
50.48334,2.691829,33.91,-0.65,1.61,8.26
50.483057,2.692012,33.79,-0.17,2.26,12.67
50.483057,2.692012,33.79,0.49,1.5,11.03
50.482774,2.692191,33.72,-0.58,0.99,12.23
50.482774,2.692191,33.72,1.44,1.24,10.56
50.482494,2.692363,33.63,-0.14,1.13,11.19
50.482494,2.692363,33.63,1.03,0.83,9.72
50.482213,2.692533,33.51,0.55,2.16,11.46
50.482213,2.692533,33.51,-1.47,1.42,8.18
50.481932,2.69269,33.4,-0.42,1.63,9.23
50.481932,2.69269,33.4,1.07,1.42,9.52
50.48165,2.692839,33.3,-0.72,-0.22,11.82
50.48165,2.692839,33.3,0.18,1.85,9.42
50.481367,2.692987,33.19,-0.32,1.25,11.0
50.481367,2.692987,33.19,-0.42,1.21,8.4
50.481086,2.693137,33.09,-1.19,1.72,8.56
50.481086,2.693137,33.09,-0.03,1.53,11.57
50.480803,2.693276,33.02,-0.66,2.09,8.84
50.480803,2.693276,33.02,0.06,1.5,9.21
50.480519,2.693415,32.94,-0.54,0.79,11.02
50.480519,2.693415,32.94,0.52,0.97,10.19
50.480235,2.69355,32.83,1.12,1.04,8.99
50.480235,2.69355,32.83,1.31,1.07,9.14
50.479952,2.693679,32.82,-0.17,1.49,9.92
50.479952,2.693679,32.82,1.85,2.04,9.46
50.479667,2.693807,32.77,1.41,1.7,10.99
50.479667,2.693807,32.77,-0.34,1.9,11.67
50.479382,2.693927,32.8,-0.8,2.28,7.77
50.479382,2.693927,32.8,0.82,0.34,9.52
50.479097,2.694039,32.82,-1.51,0.12,10.6
50.479097,2.694039,32.82,-0.13,2.27,9.39
50.478804,2.694149,32.85,-0.98,1.13,8.65
50.478518,2.694254,32.83,1.21,1.06,8.61
50.478518,2.694254,32.83,-0.54,1.38,9.21
50.478232,2.694356,32.84,-1.2,1.44,8.74
50.478232,2.694356,32.84,0.92,0.79,8.87
50.477946,2.694453,32.88,0.12,1.77,9.99
50.477946,2.694453,32.88,0.18,2.94,10.71
50.477655,2.694546,32.9,-0.98,0.76,8.07
50.477655,2.694546,32.9,-0.5,1.82,11.23
50.477364,2.694633,32.9,-0.55,1.7,7.29
50.477364,2.694633,32.9,-0.12,1.76,9.28
50.477074,2.694721,32.94,-0.57,0.79,10.62
50.477074,2.694721,32.94,-0.61,1.84,8.8
50.476784,2.694798,32.97,-1.69,1.15,7.01
50.476784,2.694798,32.97,-0.34,1.28,12.53
50.476495,2.694868,33.02,-1.14,0.76,7.78
50.476495,2.694868,33.02,-1.07,1.88,7.5
50.476198,2.694945,33.11,-0.7,0.03,12.17
50.476198,2.694945,33.11,-0.83,2.62,10.03
50.475909,2.69501,33.07,-0.18,1.93,9.49
50.475909,2.69501,33.07,-0.81,1.81,11.2
50.475619,2.695071,33.11,0.12,1.51,8.6
50.475619,2.695071,33.11,0.21,0.62,9.55
50.475318,2.695128,33.14,0.5,2.94,10.68
50.475318,2.695128,33.14,0.44,1.05,8.69
50.475021,2.695179,33.11,0.73,1.97,9.21
50.475021,2.695179,33.11,-0.07,1.62,9.2
50.474728,2.695226,33.14,0.82,0.68,11.04
50.474728,2.695226,33.14,0.41,1.46,8.0
50.474429,2.695269,33.13,0.79,0.35,10.23
50.474429,2.695269,33.13,-0.26,0.92,10.89
50.47413,2.695304,33.15,-0.62,1.5,9.76
50.47413,2.695304,33.15,-1.05,1.14,11.06
50.473832,2.695335,33.15,0.16,2.34,10.88
50.473832,2.695335,33.15,-0.96,2.3,9.76
50.473534,2.695365,33.19,-1.88,2.22,11.87
50.473534,2.695365,33.19,0.29,1.84,10.12
50.47323,2.695396,33.23,0.75,0.19,9.42
50.47323,2.695396,33.23,-0.47,2.23,9.35
50.472931,2.69542,33.22,-1.79,1.51,8.97
50.472632,2.695436,33.23,-0.59,1.92,10.78
50.472632,2.695436,33.23,-0.24,2.35,8.32
50.472331,2.695458,33.29,-0.57,1.16,11.15
50.472331,2.695458,33.29,-1.21,2.06,10.02
50.472032,2.695481,33.26,-0.39,0.62,11.24
50.472032,2.695481,33.26,-0.24,1.79,11.32
50.471734,2.695501,33.26,-0.13,1.55,7.98
50.471734,2.695501,33.26,-0.25,1.91,11.98
50.471436,2.69552,33.2,-0.9,2.14,8.23
50.471436,2.69552,33.2,1.16,1.22,11.5
50.471139,2.695538,33.06,0.13,1.29,10.13
50.471139,2.695538,33.06,0.8,1.32,10.12
50.470842,2.695553,33.04,0.52,0.51,9.81
50.470842,2.695553,33.04,-1.33,1.95,11.49
50.470547,2.695567,32.9,-0.27,1.74,8.43
50.470547,2.695567,32.9,1.1,1.01,10.36
50.470253,2.69558,32.7,-0.69,1.46,12.41
50.470253,2.69558,32.7,-0.22,1.61,7.6
50.469961,2.695598,32.63,0.58,1.75,8.18
50.469961,2.695598,32.63,0.01,0.94,10.4
50.469669,2.695613,32.56,-0.33,1.82,11.05
50.469669,2.695613,32.56,0.19,1.13,10.11
50.469377,2.695624,32.52,-0.3,1.29,9.9
50.469377,2.695624,32.52,-1.74,1.68,7.64
50.469086,2.695636,32.39,1.2,1.27,9.83
50.469086,2.695636,32.39,0.69,1.01,10.62
50.468795,2.695649,32.33,-1.55,1.35,9.8
50.468795,2.695649,32.33,-1.68,2.38,10.21
50.468505,2.695666,32.31,-0.17,2.09,8.49
50.468505,2.695666,32.31,-1.07,0.77,9.44
50.468215,2.695682,32.23,-1.22,3.24,7.51
50.468215,2.695682,32.23,0.39,1.43,10.45
50.467925,2.695696,32.2,-0.84,1.66,8.61
50.467925,2.695696,32.2,0.14,0.51,10.89
50.467635,2.695708,32.19,0.45,1.02,9.48
50.467635,2.695708,32.19,-0.93,0.41,10.75
50.467346,2.695721,32.11,-1.2,0.87,10.19
50.467346,2.695721,32.11,-1.05,1.1,11.72
50.467059,2.695733,32.06,-0.78,2.11,12.18
50.466772,2.695744,31.98,-1.29,2.62,12.36
50.466772,2.695744,31.98,-0.05,2.04,11.02
50.466484,2.695756,31.97,-1.09,1.3,12.01
50.466484,2.695756,31.97,-0.01,2.01,11.56
50.466198,2.695767,31.93,-1.01,1.46,9.26
50.466198,2.695767,31.93,-2.1,1.78,10.24
50.465911,2.69578,31.86,-0.48,1.56,10.91
50.465911,2.69578,31.86,-0.11,1.37,9.64
50.465624,2.695799,31.87,-0.57,1.86,9.7
50.465624,2.695799,31.87,-0.67,1.89,10.94
50.465337,2.695813,31.88,-0.85,1.27,10.25
50.465337,2.695813,31.88,-1.02,2.14,10.12
50.465051,2.695825,31.9,-1.21,1.71,9.6
50.465051,2.695825,31.9,0.21,1.67,8.39
50.464764,2.695835,31.96,-0.2,2.32,11.76
50.464764,2.695835,31.96,0.3,1.78,10.56
50.464478,2.695848,32.06,-0.23,2.48,9.36
50.464478,2.695848,32.06,-1.56,2.4,7.49
50.464199,2.695847,32.14,0.88,1.64,8.66
50.464199,2.695847,32.14,-0.09,0.78,11.24
50.463912,2.695859,32.34,-0.31,1.7,8.56
50.463912,2.695859,32.34,-0.09,1.43,10.09
50.463623,2.695875,32.48,-0.37,1.44,9.73
50.463623,2.695875,32.48,-1.38,0.48,7.95
50.463331,2.695889,32.66,-0.77,1.0,9.64
50.463331,2.695889,32.66,-2.17,0.69,10.52
50.463027,2.695913,32.83,-0.23,1.37,10.58
50.463027,2.695913,32.83,0.12,1.08,10.55
50.462725,2.695935,33.09,-0.9,2.03,10.6
50.462725,2.695935,33.09,-0.13,1.01,8.35
50.462426,2.695956,33.58,-0.12,2.23,11.63
50.462426,2.695956,33.58,-1.67,0.83,8.71
50.462124,2.695965,33.72,-0.88,2.55,10.35
50.462124,2.695965,33.72,-1.13,1.37,9.79
50.461821,2.695978,33.85,-0.34,0.79,8.26
50.461821,2.695978,33.85,-1.27,2.5,11.41
50.461516,2.695992,34.1,-0.68,0.71,9.86
50.461516,2.695992,34.1,-1.09,1.39,10.47
50.461208,2.696006,34.25,-0.48,1.81,8.89
50.461208,2.696006,34.25,-1.02,0.68,9.86
50.460902,2.696021,33.91,0.04,1.87,9.16
50.4606,2.696037,33.62,-0.84,0.54,13.37
50.4606,2.696037,33.62,-0.35,1.26,8.15
50.460299,2.696052,33.52,-1.05,0.74,10.41
50.460299,2.696052,33.52,-1.3,1.85,9.86
50.459997,2.696068,33.58,-0.57,2.1,8.76
50.459997,2.696068,33.58,-0.28,1.45,8.25
50.459695,2.696083,33.67,-1.95,1.67,12.29
50.459695,2.696083,33.67,0.32,0.6,8.74
50.459392,2.696099,33.74,-1.52,2.09,12.02
50.459392,2.696099,33.74,-1.74,0.16,12.1
50.459088,2.696118,33.72,-1.25,1.93,9.26
50.459088,2.696118,33.72,0.5,0.54,10.51
50.458786,2.696142,33.66,0.72,1.27,10.48
50.458786,2.696142,33.66,-1.79,1.36,11.2
50.458484,2.696168,33.64,-0.47,1.95,10.34
50.458484,2.696168,33.64,0.91,1.01,11.88
50.458182,2.696197,33.58,-1.38,1.61,7.33
50.458182,2.696197,33.58,-1.32,0.5,10.11
50.457883,2.696227,33.54,-1.54,1.5,10.2
50.457883,2.696227,33.54,-0.56,2.53,10.23
50.457583,2.696257,33.51,-0.27,0.56,9.49
50.457583,2.696257,33.51,-1.66,0.8,9.64
50.457281,2.69629,33.54,-1.66,1.75,7.02
50.457281,2.69629,33.54,-0.93,2.84,11.14
50.456981,2.696329,33.56,-0.59,1.44,11.29
50.456981,2.696329,33.56,-1.18,2.01,10.48
50.456682,2.696366,33.61,-0.62,-0.36,10.24
50.456682,2.696366,33.61,-1.73,2.23,9.47
50.456384,2.696408,33.56,0.45,0.26,8.53
50.456384,2.696408,33.56,-0.65,0.64,9.66
50.456087,2.69645,33.61,-1.99,1.38,9.38
50.456087,2.69645,33.61,-1.08,1.03,9.14
50.45579,2.696501,33.65,-1.01,1.74,10.92
50.45579,2.696501,33.65,-1.8,2.07,7.87
50.455487,2.696553,33.63,-1.26,0.64,10.51
50.455487,2.696553,33.63,-1.97,1.93,7.77
50.455185,2.696611,33.61,-0.66,1.66,10.79
50.455185,2.696611,33.61,-0.24,0.29,10.17
50.454886,2.696668,33.6,-0.76,2.15,10.92
50.454886,2.696668,33.6,1.09,0.88,7.97
50.454586,2.696724,33.57,-1.03,1.47,12.57
50.454285,2.696785,33.59,0.81,0.93,9.89
50.454285,2.696785,33.59,-0.53,1.21,8.12
50.453986,2.696849,33.43,-1.56,1.76,8.29
50.453986,2.696849,33.43,-2.57,1.14,9.88
50.453693,2.696912,33.38,-1.34,2.22,7.83
50.453693,2.696912,33.38,-1.54,0.11,10.28
50.453389,2.696991,33.32,-1.26,2.01,9.94
50.453389,2.696991,33.32,-0.91,1.59,10.76
50.453088,2.697067,33.32,0.12,2.19,8.9
50.453088,2.697067,33.32,0.73,0.97,9.75
50.452791,2.697138,33.3,-0.32,2.26,9.26
50.452791,2.697138,33.3,-0.01,0.64,11.35
50.452496,2.697214,33.27,-0.28,0.87,10.75
50.452496,2.697214,33.27,-1.35,2.31,9.08
50.452202,2.697293,33.22,-0.42,0.84,11.99
50.452202,2.697293,33.22,-0.56,1.84,10.81
50.451909,2.69737,33.15,0.96,1.31,10.8
50.451909,2.69737,33.15,-0.53,1.92,9.69
50.451617,2.69745,33.1,-0.03,1.35,9.17
50.451617,2.69745,33.1,0.59,-0.2,9.91
50.451326,2.697536,33.05,-1.06,1.63,11.27
50.451326,2.697536,33.05,-0.67,1.58,8.89
50.451038,2.69762,33.09,1.44,0.36,10.27
50.451038,2.69762,33.09,-1.22,1.95,9.59
50.450747,2.697711,33.08,-0.46,0.82,7.47
50.450747,2.697711,33.08,-0.66,0.69,11.61
50.450459,2.697803,33.04,0.43,1.23,9.2
50.450459,2.697803,33.04,-1.57,1.54,9.92
50.450168,2.697901,33.08,-0.83,1.09,10.83
50.450168,2.697901,33.08,-0.33,1.34,8.12
50.449876,2.698007,33.08,-0.43,1.84,6.34
50.449876,2.698007,33.08,-0.82,1.89,11.48
50.449585,2.698112,33.13,-0.9,2.38,8.95
50.449585,2.698112,33.13,-1.13,1.22,9.56
50.449297,2.698212,33.19,-1.04,1.87,9.86
50.449297,2.698212,33.19,0.99,1.51,10.4
50.449008,2.698312,33.25,-0.9,1.78,11.09
50.449008,2.698312,33.25,-1.26,1.61,8.84
50.448719,2.698419,33.23,-2.18,1.28,9.56
50.448719,2.698419,33.23,-1.14,1.72,8.74
50.44843,2.69853,33.24,0.17,1.18,8.61
50.448139,2.698644,33.24,-1.31,1.79,9.59
50.448139,2.698644,33.24,0.36,0.58,10.68
50.447848,2.698764,33.25,-0.74,0.78,11.2
50.447848,2.698764,33.25,-0.78,1.89,9.01
50.447557,2.698884,33.34,-1.07,2.37,9.38
50.447557,2.698884,33.34,-0.11,1.3,7.68
50.447266,2.699006,33.38,-0.95,1.21,11.13
50.447266,2.699006,33.38,-1.15,1.61,10.21
50.446977,2.699127,33.4,-0.14,1.29,9.9
50.446977,2.699127,33.4,-1.44,1.18,10.05
50.446688,2.699255,33.54,-0.61,1.83,9.73
50.446688,2.699255,33.54,-1.5,1.23,9.36
50.446397,2.699385,33.6,-1.61,0.61,11.77
50.446397,2.699385,33.6,-0.79,1.54,8.27
50.446105,2.699517,33.64,-0.42,1.52,8.95
50.446105,2.699517,33.64,-2.16,1.23,8.27
50.445813,2.699654,33.7,-0.71,2.82,10.82
50.445813,2.699654,33.7,-1.38,1.92,8.29
50.445522,2.699792,33.79,-0.88,2.28,11.36
50.445522,2.699792,33.79,0.55,1.37,10.51
50.445232,2.699936,33.66,-2.38,1.77,8.79
50.445232,2.699936,33.66,-0.54,0.77,11.11
50.444943,2.70008,33.65,-0.48,2.34,9.08
50.444943,2.70008,33.65,-0.31,2.04,11.4
50.444657,2.700227,33.64,-0.47,0.69,10.99
50.444657,2.700227,33.64,-1.37,1.46,10.54
50.444369,2.700371,33.61,0.54,1.12,9.77
50.444369,2.700371,33.61,-1.64,0.79,10.06
50.444083,2.700518,33.56,-0.83,0.75,8.46
50.444083,2.700518,33.56,-1.2,2.18,10.99
50.443797,2.70067,33.46,0.42,1.16,9.88
50.443797,2.70067,33.46,-0.14,1.63,10.86
50.443513,2.700827,33.37,0.43,1.66,8.5
50.443513,2.700827,33.37,-0.65,1.86,11.57
50.443231,2.700983,33.27,0.25,1.59,10.19
50.443231,2.700983,33.27,-1.01,0.24,8.18
50.442948,2.701139,33.16,-0.98,1.14,10.9
50.442948,2.701139,33.16,-0.91,1.66,7.56
50.442664,2.701295,33.04,-0.98,0.77,10.64
50.442384,2.701458,32.96,-0.88,1.91,8.36
50.442384,2.701458,32.96,-1.92,2.45,9.64
50.442109,2.701626,32.82,-1.07,1.01,10.42
50.442109,2.701626,32.82,-0.27,1.31,9.58
50.441836,2.701798,32.71,0.59,0.79,12.28
50.441836,2.701798,32.71,1.08,0.41,10.89
50.441564,2.701973,32.65,-1.32,1.95,10.24
50.441564,2.701973,32.65,-1.26,2.05,11.08
50.44129,2.702144,32.55,-0.92,1.8,10.22
50.44129,2.702144,32.55,-0.5,1.27,9.42
50.441018,2.702319,32.48,1.51,1.98,9.3
50.441018,2.702319,32.48,-0.78,1.03,10.59
50.440749,2.702498,32.37,-1.19,1.97,9.44
50.440749,2.702498,32.37,-0.61,1.57,9.54
50.440481,2.70268,32.36,-0.97,0.68,8.55
50.440481,2.70268,32.36,-2.07,2.41,8.25
50.440212,2.702857,32.32,-0.36,0.82,10.19
50.440212,2.702857,32.32,-0.34,0.45,9.06
50.439947,2.703042,32.39,-0.96,0.8,9.65
50.439947,2.703042,32.39,-0.48,1.15,9.68
50.439681,2.703228,32.45,-0.43,1.28,10.12
50.439681,2.703228,32.45,0.26,1.97,8.27
50.439415,2.703413,32.43,0.38,0.34,9.75
50.439415,2.703413,32.43,-0.02,0.5,10.2
50.439147,2.703597,32.47,-1.62,1.0,9.94
50.439147,2.703597,32.47,-0.79,1.19,10.13
50.43888,2.703784,32.53,-0.67,1.21,10.61
50.43888,2.703784,32.53,-1.54,1.47,5.9
50.438615,2.703976,32.53,-0.27,0.64,10.03
50.438615,2.703976,32.53,-1.95,2.72,11.63
50.438352,2.704171,32.53,-0.87,1.72,11.92
50.438352,2.704171,32.53,-1.26,1.79,8.73
50.438088,2.704365,32.53,0.1,0.73,10.21
50.438088,2.704365,32.53,0.28,0.87,10.65
50.437824,2.704559,32.53,-0.34,1.72,10.83
50.437824,2.704559,32.53,-0.57,0.84,8.78
50.437563,2.704761,32.57,-0.78,1.6,9.54
50.437563,2.704761,32.57,-0.42,1.13,9.42
50.437299,2.704963,32.6,0.26,1.66,9.32
50.437299,2.704963,32.6,-0.42,1.52,9.94
50.437036,2.705169,32.65,0.11,1.13,9.06
50.437036,2.705169,32.65,-0.6,2.09,7.29
50.436775,2.705367,32.65,-1.81,0.82,10.27
50.436516,2.705574,32.62,-0.37,1.28,10.4
50.436516,2.705574,32.62,-2.17,2.04,10.07
50.436256,2.70579,32.69,-0.88,1.54,10.88
50.436256,2.70579,32.69,-0.16,1.42,8.48
50.435998,2.70601,32.78,-0.66,1.49,9.05
50.435998,2.70601,32.78,-0.25,1.29,9.54
50.43574,2.706233,32.89,-1.63,1.84,7.96
50.43574,2.706233,32.89,-2.32,0.62,12.27
50.43548,2.706459,32.91,-1.29,1.58,9.9
50.43548,2.706459,32.91,-1.34,1.75,9.65
50.435218,2.706683,33.01,-1.03,1.26,10.44
50.435218,2.706683,33.01,-1.07,1.63,9.68
50.434957,2.706907,33.04,-1.51,1.84,8.46
50.434957,2.706907,33.04,-2.3,1.66,10.58
50.434695,2.707136,33.15,-1.81,1.82,8.67
50.434695,2.707136,33.15,-0.88,2.02,8.77
50.434433,2.707368,33.06,0.5,1.82,10.9
50.434433,2.707368,33.06,-0.44,1.24,8.04
50.434174,2.707598,33.15,-0.85,0.63,11.84
50.434174,2.707598,33.15,-0.06,1.48,9.34
50.433917,2.707835,33.13,-0.5,0.27,10.99
50.433917,2.707835,33.13,-0.32,1.01,10.21
50.43366,2.708072,33.14,-1.73,1.85,8.19
50.43366,2.708072,33.14,-1.29,1.7,9.8
50.433406,2.708321,33.07,-0.1,2.14,10.79
50.433406,2.708321,33.07,-1.09,1.8,8.34
50.433151,2.708566,33.09,-1.46,1.47,9.76
50.433151,2.708566,33.09,-1.13,2.22,8.1
50.432899,2.708808,33.1,0.12,0.79,9.87
50.432899,2.708808,33.1,-0.16,2.56,9.96
50.432645,2.709048,33.15,1.13,0.83,9.59
50.432645,2.709048,33.15,-0.1,2.5,11.24
50.432395,2.709299,33.15,-1.59,1.71,10.24
50.432395,2.709299,33.15,-1.11,1.19,11.19
50.432144,2.709554,33.26,-1.71,0.82,8.46
50.432144,2.709554,33.26,0.26,2.05,8.66
50.431892,2.709814,33.28,-1.02,2.27,10.19
50.431892,2.709814,33.28,0.98,1.65,9.57
50.431642,2.710072,33.3,-1.92,1.53,10.53
50.431642,2.710072,33.3,-2.05,1.71,8.82
50.431396,2.710339,33.32,0.25,1.18,9.26
50.431145,2.7106,33.34,0.27,1.89,9.69
50.431145,2.7106,33.34,-0.05,0.28,10.18
50.430897,2.710862,33.45,-1.01,1.57,10.09
50.430897,2.710862,33.45,0.16,1.97,8.68
50.430647,2.711127,33.5,-1.23,2.12,9.92
50.430647,2.711127,33.5,-0.11,0.82,11.02
50.430399,2.711395,33.53,-1.47,2.31,9.62
50.430399,2.711395,33.53,1.21,1.0,9.71
50.430151,2.711667,33.53,-0.12,1.44,10.62
50.430151,2.711667,33.53,0.14,1.88,9.31
50.429904,2.711938,33.59,0.16,1.96,9.56
50.429904,2.711938,33.59,-1.57,1.23,10.96
50.429658,2.712212,33.62,-0.4,1.78,10.3
50.429658,2.712212,33.62,-1.1,0.2,9.35
50.429413,2.712486,33.66,-1.88,1.56,9.39
50.429413,2.712486,33.66,-0.99,0.68,11.38
50.429164,2.712757,33.64,-1.07,1.59,6.71
50.429164,2.712757,33.64,-1.2,2.1,11.25
50.428916,2.713028,33.65,-1.54,1.48,9.44
50.428916,2.713028,33.65,-1.36,2.92,9.83
50.428667,2.7133,33.69,0.0,-0.01,11.99
50.428667,2.7133,33.69,-1.64,1.5,9.05
50.42842,2.713573,33.67,-1.06,0.51,10.01
50.42842,2.713573,33.67,-1.47,1.76,8.27
50.428173,2.713848,33.67,-0.22,2.09,10.05
50.428173,2.713848,33.67,-1.41,1.32,9.78
50.427924,2.71412,33.7,-0.64,2.25,10.27
50.427924,2.71412,33.7,1.28,0.93,10.37
50.427676,2.714392,33.71,-1.18,1.06,9.62
50.427676,2.714392,33.71,0.6,1.14,9.76
50.427428,2.714664,33.75,-0.78,1.65,10.93
50.427428,2.714664,33.75,-0.82,2.52,10.43
50.427181,2.714941,33.79,-2.12,1.62,9.15
50.427181,2.714941,33.79,0.58,1.61,8.49
50.426932,2.715214,33.8,-1.76,0.66,10.68
50.426932,2.715214,33.8,0.48,1.76,9.66
50.426685,2.71549,33.83,-1.88,0.63,11.56
50.426685,2.71549,33.83,1.34,2.17,9.39
50.426437,2.715762,33.87,-1.43,2.11,9.52
50.426187,2.716034,33.91,0.03,0.88,10.5
50.426187,2.716034,33.91,0.38,1.73,8.69
50.425936,2.716307,33.91,-1.69,1.37,10.69
50.425936,2.716307,33.91,0.88,1.36,9.21
50.425688,2.716583,33.91,-1.83,1.1,9.05
50.425688,2.716583,33.91,0.18,0.67,9.8
50.425441,2.716861,33.94,-0.42,1.51,9.59
50.425441,2.716861,33.94,-2.02,1.01,10.52
50.425192,2.717137,33.89,-0.67,1.77,8.68
50.425192,2.717137,33.89,-1.02,1.38,8.93
50.424946,2.717417,33.86,1.36,0.33,10.28
50.424946,2.717417,33.86,-0.8,2.0,10.03
50.424699,2.717705,33.86,-0.87,1.58,9.66
50.424699,2.717705,33.86,-1.86,0.96,10.79
50.424456,2.717988,33.84,-0.28,1.29,9.45
50.424456,2.717988,33.84,-1.22,1.24,10.66
50.424214,2.718271,33.76,1.14,1.93,8.31
50.424214,2.718271,33.76,-1.84,1.52,9.39
50.42397,2.718551,33.73,1.96,1.03,9.01
50.42397,2.718551,33.73,-0.51,0.98,7.51
50.423727,2.718832,33.74,-1.17,1.27,10.68
50.423727,2.718832,33.74,0.67,1.45,8.65
50.423483,2.719109,33.67,-1.75,1.21,10.77
50.423483,2.719109,33.67,-0.12,1.66,9.59
50.423239,2.71939,33.64,-1.44,1.52,11.29
50.423239,2.71939,33.64,-1.56,1.22,8.09
50.422998,2.719671,33.63,-1.36,2.04,10.74
50.422998,2.719671,33.63,1.08,1.0,10.36
50.422755,2.71995,33.67,-1.42,2.08,9.5
50.422755,2.71995,33.67,1.13,1.16,10.3
50.422514,2.720235,33.67,-0.45,1.13,7.7
50.422514,2.720235,33.67,0.7,0.06,10.3
50.422274,2.720515,33.68,-0.22,0.68,9.28
50.422274,2.720515,33.68,-0.71,1.59,10.41
50.422032,2.720797,33.69,-0.6,1.74,9.8
50.422032,2.720797,33.69,-0.96,2.26,10.95
50.421789,2.721081,33.68,0.02,0.76,11.56
50.421789,2.721081,33.68,-0.74,1.62,10.91
50.421543,2.721363,33.73,0.11,1.27,9.68
50.421543,2.721363,33.73,-0.33,2.26,10.13
50.421299,2.721646,33.74,-0.51,0.11,10.76
50.421057,2.721924,33.74,-1.0,2.49,6.39
50.421057,2.721924,33.74,-1.05,2.38,10.18
50.420812,2.722206,33.77,0.07,1.11,10.46
50.420812,2.722206,33.77,-0.82,1.49,9.05
50.420568,2.722488,33.8,-0.52,1.16,11.7
50.420568,2.722488,33.8,-1.65,2.52,10.45
50.420323,2.722769,33.79,0.48,0.92,10.45
50.420323,2.722769,33.79,-1.67,1.69,9.45
50.420078,2.723053,33.83,-1.3,0.77,9.62
50.420078,2.723053,33.83,0.52,0.6,10.52
50.419834,2.723337,33.84,0.05,1.32,10.49
50.419834,2.723337,33.84,0.12,1.3,8.61
50.41959,2.723621,33.86,-0.68,0.97,9.37
50.41959,2.723621,33.86,-1.15,1.99,10.44
50.419346,2.723906,33.89,0.31,1.14,10.61
50.419346,2.723906,33.89,-1.29,1.02,7.39
50.4191,2.72419,33.9,0.18,1.38,11.67
50.4191,2.72419,33.9,-0.59,1.93,9.64
50.418856,2.724472,33.58,-0.11,-0.4,10.12
50.418856,2.724472,33.58,-0.56,1.39,9.56
50.418615,2.724748,32.96,-0.21,0.53,10.2
50.418615,2.724748,32.96,-1.02,0.96,11.14
50.418377,2.725019,32.82,-2.47,1.61,7.14
50.418377,2.725019,32.82,-0.21,1.84,9.39
50.41814,2.725292,32.65,0.45,1.06,9.58
50.41814,2.725292,32.65,-1.33,0.48,10.27
50.417907,2.725569,32.56,-0.23,1.76,11.6
50.417907,2.725569,32.56,-1.02,2.0,9.26
50.417671,2.725841,32.46,0.02,1.8,8.63
50.417671,2.725841,32.46,0.05,-0.03,9.3
50.417437,2.726113,32.4,0.49,0.52,10.28
50.417437,2.726113,32.4,-0.2,2.04,11.71
50.417205,2.726385,32.31,-0.96,1.36,11.16
50.417205,2.726385,32.31,-0.65,1.69,10.5
50.416972,2.726656,32.35,-0.89,1.66,9.5
50.416972,2.726656,32.35,0.27,1.81,7.3
50.416738,2.726926,32.36,-0.38,1.24,9.33
50.416738,2.726926,32.36,-0.73,0.0,10.05
50.416504,2.727194,32.35,-0.53,1.95,11.06
50.416504,2.727194,32.35,-1.38,0.99,11.6
50.41627,2.727464,32.43,-0.85,1.77,10.31
50.41627,2.727464,32.43,-0.75,1.72,7.27
50.416037,2.727734,32.48,-0.92,1.71,7.92
50.415801,2.728006,32.54,-0.89,-0.26,11.38
50.415801,2.728006,32.54,-0.9,1.36,11.02
50.415564,2.728276,32.57,-1.1,1.67,10.14
50.415564,2.728276,32.57,-0.63,2.54,7.83
50.415328,2.728551,32.59,0.23,0.77,10.88
50.415328,2.728551,32.59,-0.13,0.49,10.46
50.415089,2.72882,32.71,-2.02,2.18,10.2
50.415089,2.72882,32.71,0.12,1.94,10.51
50.414854,2.729094,32.74,-1.14,2.19,8.17
50.414854,2.729094,32.74,0.15,0.78,10.83
50.414622,2.729374,32.83,-0.26,1.05,10.43
50.414622,2.729374,32.83,-1.24,1.58,9.07
50.414385,2.729652,32.88,0.28,0.26,9.85
50.414385,2.729652,32.88,-0.71,0.49,12.08
50.414146,2.729927,32.97,-1.79,0.99,8.66
50.414146,2.729927,32.97,0.29,1.68,10.46
50.413911,2.730207,33.0,-0.87,0.29,11.03
50.413911,2.730207,33.0,-0.16,1.57,9.95
50.413675,2.730491,33.02,0.14,0.1,10.65
50.413675,2.730491,33.02,-1.51,2.01,10.12
50.413443,2.730776,33.02,0.11,1.75,10.83
50.413443,2.730776,33.02,-0.02,0.61,9.23
50.413211,2.731064,33.02,-0.91,1.64,10.3
50.413211,2.731064,33.02,-0.96,1.13,9.27
50.412979,2.731355,33.05,-0.19,0.79,10.64
50.412979,2.731355,33.05,-0.65,0.99,8.77
50.41275,2.731655,33.2,-0.57,0.55,10.72
50.41275,2.731655,33.2,-0.22,1.09,10.64
50.412518,2.731956,33.27,-0.93,1.56,10.57
50.412518,2.731956,33.27,-0.62,1.45,10.51
50.412284,2.732252,33.24,-0.23,1.69,8.46
50.412284,2.732252,33.24,-0.13,0.02,10.46
50.412053,2.732549,33.21,-0.76,1.29,9.89
50.412053,2.732549,33.21,-0.36,-0.2,9.39
50.411824,2.732846,33.11,-1.76,0.26,9.61
50.411824,2.732846,33.11,-0.71,1.5,8.03
50.411595,2.733146,33.01,0.68,0.53,9.85
50.411595,2.733146,33.01,-1.71,0.84,10.69
50.411367,2.733449,33.02,-1.73,0.88,7.83
50.411367,2.733449,33.02,-0.02,0.23,10.62
50.411143,2.73375,32.97,-0.32,0.46,11.64
50.410919,2.734052,33.02,-0.6,1.4,10.97
50.410919,2.734052,33.02,0.59,0.06,9.22
50.410697,2.734364,33.13,0.47,0.59,11.31
50.410697,2.734364,33.13,-0.52,1.85,9.37
50.410474,2.734674,33.19,-1.45,0.32,10.92
50.410474,2.734674,33.19,-0.46,2.05,11.54
50.41025,2.734991,33.25,-0.01,2.03,9.54
50.41025,2.734991,33.25,0.03,2.15,11.05
50.410028,2.735308,33.35,0.43,1.09,9.42
50.410028,2.735308,33.35,-1.32,1.03,9.58
50.409806,2.735624,33.38,-2.63,1.93,9.12
50.409806,2.735624,33.38,0.91,0.64,10.58
50.409584,2.735943,33.44,-1.44,1.42,9.06
50.409584,2.735943,33.44,-1.1,0.39,10.27
50.409364,2.736262,33.46,-1.22,2.78,11.94
50.409364,2.736262,33.46,-0.27,0.68,9.9
50.409143,2.736584,33.55,-0.38,1.39,9.24
50.409143,2.736584,33.55,-0.43,1.13,9.47
50.408923,2.736908,33.61,-0.38,1.39,9.74
50.408923,2.736908,33.61,-0.73,1.75,8.25
50.408699,2.737233,33.63,-1.43,1.85,10.96
50.408699,2.737233,33.63,0.4,0.04,9.87
50.408483,2.737557,33.64,-1.27,0.62,9.05
50.408483,2.737557,33.64,-0.06,0.53,10.39
50.408266,2.737885,33.64,-0.44,1.85,8.89
50.408266,2.737885,33.64,-0.69,1.53,10.36
50.408049,2.738216,33.68,2.04,1.21,10.03
50.408049,2.738216,33.68,-1.87,0.81,11.53
50.40783,2.738546,33.68,0.26,1.06,9.05
50.40783,2.738546,33.68,-1.23,1.01,8.57
50.407612,2.73888,33.78,1.5,0.61,7.87
50.407612,2.73888,33.78,-1.19,1.17,9.59
50.407395,2.739213,33.87,-1.11,2.36,9.47
50.407395,2.739213,33.87,-0.42,0.4,10.86
50.407177,2.739547,33.87,-0.78,2.35,10.92
50.407177,2.739547,33.87,-1.52,-0.28,10.6
50.406959,2.739876,33.82,-0.33,1.85,8.86
50.406959,2.739876,33.82,-2.38,1.58,10.62
50.406742,2.740206,33.81,0.55,0.71,9.5
50.406742,2.740206,33.81,-1.35,1.32,10.44
50.406525,2.740537,33.82,1.03,0.46,9.26
50.406306,2.74087,33.76,-0.44,1.31,9.22
50.406306,2.74087,33.76,0.17,0.66,9.45
50.406089,2.741204,33.78,-1.83,1.66,8.98
50.406089,2.741204,33.78,-1.17,2.93,9.94
50.405871,2.741535,33.8,-1.15,1.53,9.07
50.405871,2.741535,33.8,-2.48,1.91,8.71
50.405654,2.741867,33.85,0.69,0.41,8.75
50.405654,2.741867,33.85,-0.07,3.02,9.92
50.405437,2.7422,33.91,-0.88,0.9,10.98
50.405437,2.7422,33.91,1.58,1.31,10.23
50.40522,2.742534,33.92,-1.24,0.77,11.37
50.40522,2.742534,33.92,0.73,0.8,9.34
50.405003,2.742868,34.03,-1.05,1.49,9.01
50.405003,2.742868,34.03,-2.32,1.42,10.05
50.404785,2.743202,34.15,1.11,0.98,10.78
50.404785,2.743202,34.15,0.25,1.21,8.77
50.404567,2.743533,34.28,-2.24,0.87,10.49
50.404567,2.743533,34.28,-1.64,0.17,9.44
50.404342,2.743869,34.38,0.24,0.63,9.31
50.404342,2.743869,34.38,0.84,1.41,10.13
50.40412,2.744211,34.36,-0.06,2.26,9.39
50.40412,2.744211,34.36,-1.73,1.95,10.17
50.403898,2.744551,34.42,-1.63,1.75,9.53
50.403898,2.744551,34.42,-1.31,0.76,10.69
50.403676,2.744889,34.45,0.4,1.19,9.37
50.403676,2.744889,34.45,-1.34,0.48,11.66
50.403454,2.74523,34.5,-1.33,0.88,10.03
50.403454,2.74523,34.5,1.17,0.53,8.84
50.403234,2.745571,34.47,0.1,0.67,9.56
50.403234,2.745571,34.47,-0.56,2.43,9.91
50.403016,2.745909,34.45,-1.38,1.9,11.46
50.403016,2.745909,34.45,-1.11,0.85,9.46
50.402798,2.746249,34.52,-0.4,0.93,11.23
50.402798,2.746249,34.52,-0.84,1.29,9.05
50.402578,2.74659,34.55,-0.53,1.35,9.9
50.402578,2.74659,34.55,-0.49,1.99,8.6
50.402359,2.746932,34.55,-0.98,1.62,8.85
50.402359,2.746932,34.55,1.12,-0.06,12.04
50.402139,2.74727,34.22,-1.39,1.02,10.7
50.402139,2.74727,34.22,-0.75,1.25,10.4
50.401917,2.747606,33.79,-1.15,1.92,11.45
50.401917,2.747606,33.79,-2.51,1.78,13.19
50.401698,2.747936,33.54,1.1,1.1,9.83
50.401478,2.748263,33.42,-0.79,0.19,11.97
50.401478,2.748263,33.42,-0.72,1.92,10.1
50.401261,2.748589,33.38,-1.07,1.92,10.98
50.401261,2.748589,33.38,-0.11,0.92,9.7
50.401043,2.748918,33.41,0.01,0.29,10.55
50.401043,2.748918,33.41,-0.47,2.58,11.2
50.400825,2.749244,33.44,0.75,0.76,9.0
50.400825,2.749244,33.44,-0.11,1.58,8.15
50.400604,2.749567,33.48,-1.33,1.68,7.6
50.400604,2.749567,33.48,-0.39,2.16,10.69
50.400386,2.749891,33.53,0.91,0.72,10.09
50.400386,2.749891,33.53,-1.72,1.92,10.24
50.400164,2.750211,33.61,1.23,1.66,9.73
50.400164,2.750211,33.61,-0.45,1.64,8.78
50.399941,2.750532,33.68,0.51,1.25,9.14
50.399941,2.750532,33.68,-0.2,0.92,7.92
50.399712,2.75084,33.77,-1.38,1.16,11.17
50.399712,2.75084,33.77,0.43,0.95,10.18
50.399484,2.751143,33.7,-0.22,1.96,11.21
50.399484,2.751143,33.7,1.35,0.25,10.31
50.399247,2.75144,33.64,-0.2,1.72,9.41
50.399247,2.75144,33.64,0.62,1.49,9.63
50.399007,2.751729,33.66,0.34,1.86,10.52
50.399007,2.751729,33.66,-0.22,1.32,9.78
50.398764,2.752008,33.62,0.84,1.13,8.08
50.398764,2.752008,33.62,0.36,0.44,9.81
50.398515,2.752274,33.52,-0.45,1.68,8.82
50.398515,2.752274,33.52,2.56,0.66,10.13
50.398262,2.752531,33.58,1.31,1.29,9.34
50.398262,2.752531,33.58,-0.89,1.74,11.43
50.398008,2.752785,33.6,0.62,1.37,11.56
50.398008,2.752785,33.6,-0.79,0.93,11.47
50.397752,2.753033,33.44,-1.35,1.92,7.26
50.397752,2.753033,33.44,-0.97,0.88,10.28
50.397491,2.753267,33.28,1.41,2.33,9.98
50.397491,2.753267,33.28,1.57,0.83,10.79
50.397229,2.753485,33.16,-0.11,1.59,8.72
50.397229,2.753485,33.16,0.81,-0.04,11.24
50.396961,2.753686,33.02,0.11,0.87,9.84
50.396697,2.753888,32.82,0.81,1.82,11.03
50.396697,2.753888,32.82,0.63,1.3,10.66
50.396432,2.754072,32.64,-0.01,0.68,10.69
50.396432,2.754072,32.64,0.08,1.88,11.37
50.396167,2.754248,32.45,-0.15,1.79,8.24
50.396167,2.754248,32.45,1.28,1.57,11.19
50.395901,2.754413,32.3,-1.3,2.65,7.37
50.395901,2.754413,32.3,0.6,2.82,9.26
50.395634,2.754569,32.08,0.38,0.76,10.27
50.395634,2.754569,32.08,-0.35,-0.19,9.96
50.395361,2.754721,31.9,-0.64,0.66,9.82
50.395361,2.754721,31.9,1.37,1.7,10.26
50.395089,2.754864,31.75,1.33,1.51,11.12
50.395089,2.754864,31.75,-0.67,1.03,10.24
50.394816,2.755002,31.63,0.29,0.95,10.52
50.394816,2.755002,31.63,1.49,1.43,9.7
50.394542,2.755126,31.49,1.07,2.35,10.46
50.394542,2.755126,31.49,0.98,2.41,8.83
50.394268,2.755236,31.34,-0.53,1.33,8.58
50.394268,2.755236,31.34,0.57,1.63,10.9
50.393994,2.755333,31.4,-0.77,1.51,10.89
50.393994,2.755333,31.4,-0.93,0.79,10.65
50.393719,2.755417,31.33,-0.33,0.42,11.22
50.393719,2.755417,31.33,1.08,2.36,9.86
50.393448,2.755497,31.31,0.72,3.32,8.26
50.393448,2.755497,31.31,1.0,1.69,10.37
50.393174,2.755572,31.14,0.9,1.48,10.52
50.393174,2.755572,31.14,0.09,1.72,8.72
50.392895,2.75564,31.07,1.04,2.11,10.78
50.392895,2.75564,31.07,-0.54,2.52,7.36
50.392623,2.755696,31.02,-1.58,1.44,12.06
50.392623,2.755696,31.02,0.27,1.35,10.66
50.392347,2.755735,31.12,-1.13,1.45,10.57
50.392347,2.755735,31.12,0.61,1.41,8.93
50.392067,2.755779,31.04,-0.19,1.18,10.07
50.392067,2.755779,31.04,0.6,1.85,10.52
50.391786,2.755823,31.0,-0.44,1.67,10.98
50.391786,2.755823,31.0,-0.5,2.41,7.26
50.391505,2.755854,31.03,-0.03,1.59,9.52
50.391226,2.755884,30.99,-0.02,1.08,8.77
50.391226,2.755884,30.99,-1.65,1.9,11.65
50.391226,2.755884,30.99,1.32,2.46,8.57
50.390948,2.755908,30.98,0.04,1.81,9.13
50.390667,2.755932,30.88,1.49,2.04,10.86
50.390667,2.755932,30.88,0.39,1.21,9.84
50.390388,2.755947,30.83,0.36,1.76,7.7
50.390388,2.755947,30.83,1.85,1.57,12.49
50.390114,2.755946,30.73,-0.95,1.28,11.53
50.390114,2.755946,30.73,-0.2,3.07,7.41
50.389837,2.755942,30.7,0.28,1.73,11.68
50.389837,2.755942,30.7,0.24,2.22,9.93
50.389564,2.755934,30.7,0.68,1.45,9.26
50.389564,2.755934,30.7,0.42,0.99,11.48
50.389289,2.755932,30.64,0.91,2.03,9.49
50.389289,2.755932,30.64,-0.16,2.12,9.5
50.389014,2.755933,30.62,-0.33,1.58,9.84
50.389014,2.755933,30.62,0.5,2.59,9.56
50.388741,2.755935,30.63,-1.33,1.84,7.49
50.388741,2.755935,30.63,-1.09,1.55,10.37
50.388452,2.755967,30.63,0.31,2.81,7.35
50.388452,2.755967,30.63,-0.63,1.26,9.81
50.38817,2.755985,30.68,-0.36,1.82,9.14
50.38817,2.755985,30.68,-1.02,2.5,8.85
50.387893,2.756002,30.74,-1.24,1.81,10.26
50.387893,2.756002,30.74,-1.2,1.06,10.85
50.387616,2.756013,30.8,-1.15,2.69,6.23
50.387616,2.756013,30.8,-0.75,1.07,11.14
50.387339,2.756019,30.89,0.23,1.27,10.63
50.387339,2.756019,30.89,-0.27,2.33,7.65
50.387062,2.756027,30.94,0.23,1.56,9.52
50.387062,2.756027,30.94,-0.4,1.21,11.03
50.386786,2.756034,31.02,-1.43,0.84,9.44
50.386786,2.756034,31.02,1.21,1.67,8.63
50.386507,2.756045,31.11,0.54,2.15,10.07
50.386507,2.756045,31.11,-0.52,1.83,9.15
50.386228,2.756052,31.18,0.45,1.82,10.9
50.386228,2.756052,31.18,-0.8,1.02,10.18
50.385949,2.756058,31.22,0.64,1.83,9.92
50.385949,2.756058,31.22,-1.1,2.27,8.91
50.385668,2.75606,31.34,-1.53,2.03,8.87
50.385668,2.75606,31.34,-0.39,1.92,9.72
50.385389,2.756059,31.47,-0.38,2.24,11.57
50.385389,2.756059,31.47,-0.69,1.68,10.3
50.38511,2.756058,31.66,-0.7,1.24,11.57
50.384822,2.756074,31.75,0.29,2.26,9.46
50.384822,2.756074,31.75,-1.35,1.67,11.22
50.384533,2.756088,31.96,-0.56,1.54,10.8
50.384533,2.756088,31.96,-1.25,2.25,10.65
50.384244,2.756102,32.13,-1.01,1.8,10.4
50.384244,2.756102,32.13,-0.6,1.54,10.23
50.383954,2.756116,32.29,0.46,1.33,10.45
50.383954,2.756116,32.29,-0.5,1.98,11.68
50.383662,2.756131,32.45,-1.31,0.48,11.97
50.383662,2.756131,32.45,-1.81,0.33,9.22
50.383369,2.756143,32.69,-0.09,2.35,11.48
50.383369,2.756143,32.69,-0.76,1.86,6.99
50.383074,2.756153,32.99,0.79,1.33,10.08
50.383074,2.756153,32.99,-0.65,1.51,10.92
50.382776,2.756166,33.17,0.79,1.17,10.84
50.382776,2.756166,33.17,-1.22,1.39,10.39
50.382478,2.756181,33.4,-1.84,2.6,8.65
50.382478,2.756181,33.4,-1.65,2.41,10.2
50.382177,2.7562,33.59,-0.15,1.36,9.16
50.382177,2.7562,33.59,-0.68,2.5,9.72
50.381874,2.756232,33.65,0.38,1.18,9.5
50.381874,2.756232,33.65,-0.41,2.6,10.05
50.381567,2.756269,33.95,-0.61,0.64,9.75
50.381567,2.756269,33.95,-0.46,2.21,8.31
50.381261,2.756304,34.11,-1.75,2.16,9.24
50.381261,2.756304,34.11,-0.91,1.93,11.12
50.380955,2.756342,34.3,-0.07,1.35,10.73
50.380955,2.756342,34.3,0.86,0.74,7.94
50.380647,2.756389,34.48,-1.4,1.75,10.86
50.380647,2.756389,34.48,-1.37,2.46,9.25
50.38034,2.75644,34.63,0.14,2.92,10.17
50.38034,2.75644,34.63,-0.23,0.55,10.99
50.380034,2.756492,34.66,0.13,-0.39,10.82
50.380034,2.756492,34.66,-1.21,1.0,9.53
50.379731,2.756548,34.03,0.77,0.92,11.2
50.379731,2.756548,34.03,-1.26,1.78,9.56
50.379433,2.756608,33.39,0.05,0.85,11.0
50.379433,2.756608,33.39,0.43,1.41,10.62
50.379143,2.756676,33.03,-0.73,2.23,7.79
50.379143,2.756676,33.03,-0.57,1.82,9.6
50.378855,2.756747,33.09,-2.04,2.46,8.54
50.378567,2.756822,33.19,1.07,1.16,10.56
50.378567,2.756822,33.19,0.4,1.43,9.79
50.378274,2.756913,33.4,1.26,0.79,8.99
50.378274,2.756913,33.4,-1.94,0.83,10.67
50.377978,2.757009,33.59,0.19,1.76,8.44
50.377978,2.757009,33.59,-0.76,0.66,7.9
50.377681,2.757107,33.78,1.12,1.07,9.44
50.377681,2.757107,33.78,-1.02,1.4,9.08
50.37738,2.757211,33.93,-0.77,2.67,10.15
50.37738,2.757211,33.93,-1.6,1.78,10.35
50.377082,2.757323,34.05,-0.4,1.45,10.37
50.377082,2.757323,34.05,-1.98,2.85,10.65
50.376785,2.757443,34.17,-0.49,1.24,8.16
50.376785,2.757443,34.17,-1.55,0.89,9.73
50.376494,2.757563,34.21,-1.12,2.31,11.28
50.376494,2.757563,34.21,0.9,1.28,9.35
50.376202,2.757697,34.32,-1.38,2.07,9.37
50.376202,2.757697,34.32,-1.18,1.29,8.88
50.375906,2.75784,34.38,-1.37,1.44,12.05
50.375906,2.75784,34.38,-0.7,-0.14,9.55
50.375612,2.757987,34.37,1.38,0.65,10.25
50.375612,2.757987,34.37,-0.02,1.65,8.92
50.375319,2.758146,34.43,-2.19,2.54,9.9
50.375319,2.758146,34.43,-2.33,1.21,12.1
50.375028,2.758313,34.39,-0.27,0.37,9.84
50.375028,2.758313,34.39,-0.05,1.32,9.55
50.374741,2.758486,33.82,-0.84,0.57,10.32
50.374741,2.758486,33.82,0.45,1.76,9.99
50.37446,2.758663,33.35,0.83,0.27,11.89
50.37446,2.758663,33.35,-0.38,1.26,9.39
50.374181,2.758847,33.29,-0.51,0.38,10.54
50.374181,2.758847,33.29,-0.8,1.97,10.14
50.373903,2.759028,33.33,0.13,1.37,8.05
50.373903,2.759028,33.33,-1.15,2.85,11.18
50.373628,2.759215,33.45,-1.29,1.41,9.44
50.373628,2.759215,33.45,-0.88,2.05,12.64
50.373352,2.759409,33.6,0.7,1.33,8.21
50.373352,2.759409,33.6,-0.8,1.72,9.76
50.373074,2.759617,33.74,1.28,0.82,8.42
50.373074,2.759617,33.74,0.35,0.82,9.4
50.372798,2.75983,33.89,-0.39,0.43,9.03
50.372519,2.760045,33.94,-0.88,1.92,9.16
50.372519,2.760045,33.94,-0.26,1.92,9.84
50.372243,2.760266,34.01,1.99,0.94,8.83
50.372243,2.760266,34.01,-1.24,2.21,9.42
50.371971,2.76049,33.97,-0.63,2.12,9.74
50.371971,2.76049,33.97,0.29,0.87,9.02
50.371701,2.760718,34.04,-0.3,1.13,7.91
50.371701,2.760718,34.04,-0.41,-0.23,10.64
50.371434,2.760952,34.08,-1.36,1.41,9.49
50.371434,2.760952,34.08,-0.52,0.86,9.65
50.371172,2.761195,34.16,-0.11,0.45,10.16
50.371172,2.761195,34.16,0.39,1.8,7.88
50.370912,2.761443,34.16,-1.65,0.98,9.41
50.370912,2.761443,34.16,0.18,0.53,9.6
50.370654,2.761698,34.19,1.42,1.11,9.26
50.370654,2.761698,34.19,0.85,1.84,9.81
50.370396,2.761956,34.25,-0.01,1.24,10.54
50.370396,2.761956,34.25,-1.05,0.71,9.15
50.370138,2.762218,34.4,0.93,0.55,8.13
50.370138,2.762218,34.4,0.61,1.37,9.33
50.369881,2.76249,34.5,-0.49,2.19,9.82
50.369881,2.76249,34.5,-1.24,2.29,9.96
50.369629,2.76277,34.5,-2.03,1.66,10.61
50.369629,2.76277,34.5,0.84,0.97,8.54
50.369378,2.763058,34.55,-2.05,1.38,8.62
50.369378,2.763058,34.55,-0.86,1.46,9.67
50.369128,2.76335,34.65,-1.92,1.46,11.57
50.369128,2.76335,34.65,-1.57,1.83,10.78
50.368883,2.763648,34.67,0.08,0.85,10.49
50.368883,2.763648,34.67,0.46,1.82,10.02
50.368638,2.763944,34.65,0.84,1.71,10.4
50.368638,2.763944,34.65,-1.66,1.16,10.13
50.368394,2.764247,34.7,-1.21,0.9,9.32
50.368394,2.764247,34.7,-1.4,2.03,9.97
50.368151,2.764549,34.67,-0.37,-0.09,9.07
50.368151,2.764549,34.67,-0.87,1.5,11.18
50.367911,2.76485,34.07,-0.98,1.35,9.03
50.367911,2.76485,34.07,0.8,1.09,10.05
50.367674,2.765146,33.38,-0.4,1.67,9.13
50.367674,2.765146,33.38,-0.91,2.53,8.38
50.367443,2.765441,33.09,-1.65,1.24,11.91
50.367443,2.765441,33.09,0.47,0.65,8.41
50.367215,2.765739,33.2,-0.6,1.7,8.57
50.367215,2.765739,33.2,-1.58,1.07,11.84
50.366987,2.766036,33.23,0.52,2.2,9.95
50.366758,2.766335,33.28,0.68,0.27,10.21
50.366758,2.766335,33.28,-0.25,1.76,9.29
50.366531,2.766639,33.38,-0.32,0.82,10.48
50.366531,2.766639,33.38,-0.52,2.59,11.92
50.3663,2.766941,33.53,0.64,0.52,10.01
50.3663,2.766941,33.53,-0.59,2.59,11.63
50.36607,2.767239,33.55,-0.61,1.26,8.7
50.36607,2.767239,33.55,-1.2,1.93,9.6
50.365836,2.767537,33.62,-0.36,-0.14,11.81
50.365836,2.767537,33.62,-0.45,1.2,9.5
50.365605,2.767843,33.62,-1.02,-0.75,11.88
50.365605,2.767843,33.62,-1.23,1.21,7.75
50.365371,2.768147,33.61,0.12,0.63,9.47
50.365371,2.768147,33.61,-0.02,1.37,9.73
50.365144,2.768451,33.57,0.22,1.83,11.39
50.365144,2.768451,33.57,-0.31,1.16,6.9
50.36491,2.768752,33.6,-1.14,0.91,11.32
50.36491,2.768752,33.6,0.78,1.57,9.41
50.364675,2.76905,33.63,-0.5,1.47,10.86
50.364675,2.76905,33.63,-0.19,1.79,9.84
50.364444,2.769354,33.64,-0.49,1.54,9.58
50.364444,2.769354,33.64,-1.59,-0.08,10.32
50.364213,2.769657,33.59,-1.45,1.98,10.46
50.364213,2.769657,33.59,1.09,1.19,10.22
50.363982,2.769961,33.49,-0.94,0.85,8.19
50.363982,2.769961,33.49,-0.76,0.51,10.58
50.363749,2.770264,33.4,0.08,2.14,9.67
50.363749,2.770264,33.4,0.92,0.76,8.57
50.363517,2.770561,33.47,-0.75,0.89,8.55
50.363517,2.770561,33.47,-0.92,1.5,9.03
50.363283,2.770858,33.52,-0.86,1.9,10.15
50.363283,2.770858,33.52,-1.48,0.57,9.39
50.363051,2.771162,33.52,-0.95,2.01,10.55
50.363051,2.771162,33.52,0.8,0.72,10.9
50.36282,2.771463,33.52,-1.51,1.18,9.07
50.36282,2.771463,33.52,-0.58,1.79,8.6
50.362586,2.771765,33.54,-0.78,1.54,8.97
50.362586,2.771765,33.54,-0.57,1.01,11.62
50.362355,2.77207,33.64,-0.62,1.26,8.65
50.362122,2.772376,33.78,-1.24,0.43,10.52
50.362122,2.772376,33.78,-0.55,1.9,9.19
50.361888,2.772684,33.76,0.11,0.85,10.88
50.361888,2.772684,33.76,0.47,0.43,10.1
50.361654,2.772988,33.61,-1.29,1.81,8.36
50.361654,2.772988,33.61,0.08,1.42,9.69
50.361422,2.773287,33.69,-0.96,2.03,10.52
50.361422,2.773287,33.69,-1.26,0.73,10.9
50.361188,2.773584,33.74,-1.19,1.13,8.41
50.361188,2.773584,33.74,-0.98,1.55,10.58
50.360953,2.773879,33.68,0.58,1.21,8.31
50.360953,2.773879,33.68,-0.82,0.28,10.69
50.360719,2.774173,33.65,-0.59,1.08,10.22
50.360719,2.774173,33.65,-0.14,1.11,9.94
50.360485,2.774472,33.67,-0.59,2.07,8.71
50.360485,2.774472,33.67,-1.17,2.52,10.41
50.36025,2.77477,33.71,-0.94,-0.21,11.54
50.36025,2.77477,33.71,-1.02,1.94,10.28
50.360015,2.775068,33.74,-1.03,0.66,10.52
50.360015,2.775068,33.74,0.42,2.5,7.55
50.359777,2.775362,33.78,-1.22,1.66,9.69
50.359777,2.775362,33.78,-0.04,0.93,9.54
50.359539,2.775658,33.8,-0.99,1.77,10.17
50.359539,2.775658,33.8,-1.57,1.73,10.9
50.3593,2.775955,33.81,-0.95,1.56,9.21
50.3593,2.775955,33.81,-0.32,1.97,10.04
50.359062,2.77625,33.83,0.75,-0.08,11.53
50.359062,2.77625,33.83,-1.47,1.11,9.01
50.358823,2.776543,33.83,-1.07,0.24,11.06
50.358823,2.776543,33.83,-0.33,1.48,8.74
50.358583,2.776836,33.88,-1.18,1.38,8.84
50.358583,2.776836,33.88,-1.19,2.13,11.53
50.358342,2.777129,33.98,-0.62,1.58,9.24
50.358342,2.777129,33.98,-0.3,2.8,9.79
50.3581,2.777422,33.98,-1.99,0.01,11.02
50.3581,2.777422,33.98,-1.93,0.78,8.88
50.357857,2.777712,34.02,-0.95,2.36,9.6
50.357857,2.777712,34.02,-1.4,1.09,11.13
50.357615,2.778003,34.07,-0.67,1.41,9.95
50.357373,2.778296,34.14,-1.21,2.09,9.28
50.357373,2.778296,34.14,0.89,1.64,8.23
50.357131,2.778589,34.2,-1.6,1.94,8.97
50.357131,2.778589,34.2,-1.15,1.13,7.69
50.356887,2.778881,34.21,1.37,0.12,8.73
50.356887,2.778881,34.21,-0.97,1.79,8.64
50.356643,2.779175,34.23,-0.95,1.41,10.15
50.356643,2.779175,34.23,-0.43,0.55,11.21
50.356399,2.77947,34.23,0.83,1.12,8.36
50.356399,2.77947,34.23,-2.04,1.79,9.56
50.356155,2.779762,34.2,0.56,1.58,9.66
50.356155,2.779762,34.2,0.33,0.05,10.39
50.355911,2.780053,34.11,-1.5,0.79,9.91
50.355911,2.780053,34.11,-0.99,1.03,7.6
50.355667,2.780342,34.04,1.2,-0.01,11.25
50.355667,2.780342,34.04,-1.2,1.55,9.43
50.355423,2.780632,33.92,-0.8,1.56,9.16
50.355423,2.780632,33.92,-1.37,1.31,8.5
50.355183,2.780923,33.79,0.9,1.63,9.74
50.355183,2.780923,33.79,-1.5,1.06,11.54
50.354943,2.781214,33.76,0.17,2.31,9.34
50.354943,2.781214,33.76,1.06,0.14,11.48
50.354704,2.78151,33.74,-1.37,0.94,8.58
50.354704,2.78151,33.74,-2.01,0.95,12.11
50.354466,2.7818,33.73,-0.43,1.01,9.52
50.354466,2.7818,33.73,-0.79,2.29,10.13
50.354227,2.782087,33.64,0.67,-0.2,10.3
50.354227,2.782087,33.64,-2.02,2.67,9.73
50.353987,2.782372,33.66,0.52,-0.27,10.25
50.353987,2.782372,33.66,-1.79,1.64,9.5
50.353746,2.782658,33.64,-0.1,0.52,8.53
50.353746,2.782658,33.64,0.24,1.22,9.02
50.353506,2.782942,33.55,-0.15,0.35,9.62
50.353506,2.782942,33.55,-1.19,1.39,8.37
50.353266,2.78323,33.49,1.13,0.22,10.04
50.353266,2.78323,33.49,0.27,0.49,9.41
50.353027,2.783517,33.46,-0.6,1.71,11.06
50.353027,2.783517,33.46,-0.56,1.91,10.06
50.352789,2.783803,33.5,-0.03,1.8,10.12
50.35255,2.78409,33.6,-1.85,1.37,10.29
50.35255,2.78409,33.6,1.84,0.5,9.56
50.352309,2.784378,33.62,-0.83,1.49,8.87
50.352309,2.784378,33.62,-0.4,2.65,11.33
50.352071,2.784668,33.64,1.77,0.14,8.26
50.352071,2.784668,33.64,-0.68,0.91,10.8
50.351831,2.784957,33.71,0.84,0.89,8.71
50.351831,2.784957,33.71,-0.3,1.15,10.36
50.351592,2.785246,33.65,0.09,0.08,9.92
50.351592,2.785246,33.65,-1.06,1.77,9.75
50.351354,2.785535,33.51,-1.28,1.21,10.15
50.351354,2.785535,33.51,-2.43,2.65,11.55
50.351115,2.785821,33.48,-0.31,-0.15,10.18
50.351115,2.785821,33.48,-0.16,1.73,8.13
50.350875,2.786107,33.34,0.72,1.5,9.68
50.350875,2.786107,33.34,0.28,1.54,10.59
50.350638,2.786392,33.17,-0.27,1.38,9.63
50.350638,2.786392,33.17,0.67,1.93,8.33
50.350402,2.786675,33.13,-0.62,3.05,11.42
50.350402,2.786675,33.13,0.12,1.06,9.14
50.350166,2.786956,33.03,-0.83,1.06,11.6
50.350166,2.786956,33.03,-2.55,2.42,8.82
50.349931,2.787239,32.95,0.63,0.69,7.13
50.349931,2.787239,32.95,-1.28,1.21,11.02
50.349698,2.78752,32.9,-0.87,1.53,9.8
50.349698,2.78752,32.9,0.05,1.72,7.91
50.349463,2.7878,32.94,-1.63,0.93,10.93
50.349463,2.7878,32.94,-0.25,2.03,10.86
50.349227,2.788082,33.12,-0.85,1.99,8.52
50.349227,2.788082,33.12,-0.61,1.92,11.06
50.348991,2.788368,33.31,1.42,0.57,7.8
50.348991,2.788368,33.31,-0.17,1.21,9.92
50.348754,2.788657,33.57,0.97,0.67,8.76
50.348754,2.788657,33.57,-0.13,1.31,9.75
50.348515,2.788947,33.69,-1.06,1.51,9.68
50.348515,2.788947,33.69,-0.25,1.14,9.45
50.348275,2.789239,33.95,-0.91,1.73,10.17
50.348275,2.789239,33.95,0.19,0.55,10.45
50.348034,2.789532,34.05,-0.06,1.52,8.43
50.348034,2.789532,34.05,-1.2,2.58,10.49
50.347792,2.789825,34.2,-1.35,0.22,10.32
50.34755,2.790121,34.33,-1.58,1.03,9.19
50.34755,2.790121,34.33,-1.03,1.78,9.58
50.347308,2.790422,34.45,-0.47,2.93,10.53
50.347308,2.790422,34.45,0.23,0.26,8.64
50.347067,2.790728,34.57,1.3,0.98,9.53
50.347067,2.790728,34.57,1.0,1.67,9.47
50.346823,2.791032,34.7,-1.9,2.38,11.09
50.346823,2.791032,34.7,-0.26,2.38,10.01
50.34658,2.79134,34.85,-0.58,2.52,9.82
50.34658,2.79134,34.85,-0.11,0.5,10.06
50.346337,2.79165,34.89,0.46,-0.36,8.53
50.346337,2.79165,34.89,-1.11,0.33,10.06
50.346095,2.791962,34.89,1.04,0.91,9.75
50.346095,2.791962,34.89,-0.2,0.19,8.49
50.345857,2.792282,34.86,0.86,1.09,7.97
50.345857,2.792282,34.86,-1.22,2.43,11.29
50.345617,2.792599,34.87,-0.76,1.65,11.25
50.345617,2.792599,34.87,-0.33,1.62,9.66
50.345378,2.792917,34.87,-0.68,1.74,9.32
50.345378,2.792917,34.87,-1.22,2.32,10.32
50.345139,2.793238,34.89,-0.23,2.38,10.14
50.345139,2.793238,34.89,-1.46,2.26,11.05
50.344901,2.793558,34.94,-0.75,0.17,10.48
50.344901,2.793558,34.94,-1.3,-0.6,9.96
50.344666,2.793886,34.91,-0.27,-0.3,10.94
50.344666,2.793886,34.91,0.28,1.63,9.66
50.344433,2.794207,34.21,-0.68,1.46,9.62
50.344433,2.794207,34.21,-0.81,-0.46,9.79
50.344206,2.794523,33.78,-0.94,1.01,11.33
50.344206,2.794523,33.78,1.12,-0.34,11.39
50.343986,2.794843,33.29,0.34,1.58,9.65
50.343986,2.794843,33.29,1.36,1.0,9.31
50.343764,2.795156,33.08,-0.35,-0.07,10.58
50.343764,2.795156,33.08,0.68,1.53,10.11
50.343544,2.795466,33.08,0.56,0.78,10.59
50.343544,2.795466,33.08,-1.39,0.27,12.36
50.343324,2.795778,33.07,-1.16,1.87,10.05
50.343324,2.795778,33.07,-1.02,0.36,10.36
50.343107,2.796094,32.97,-2.32,1.08,10.3
50.342893,2.796412,33.02,0.79,1.52,7.62
50.342893,2.796412,33.02,-1.24,1.08,10.07
50.342681,2.796733,33.06,-0.7,1.93,10.48
50.342681,2.796733,33.06,-1.53,2.66,9.72
50.342467,2.797058,33.12,-1.08,0.74,11.3
50.342467,2.797058,33.12,-0.61,1.87,10.86
50.342252,2.797382,33.11,-0.02,1.11,9.73
50.342252,2.797382,33.11,-1.06,1.9,10.47
50.342036,2.797707,33.14,-1.17,2.39,8.35
50.342036,2.797707,33.14,-0.04,0.63,10.83
50.341822,2.798031,33.15,-1.37,1.18,10.69
50.341822,2.798031,33.15,-0.52,1.02,10.71
50.34161,2.798362,33.15,-0.45,1.15,10.84
50.34161,2.798362,33.15,-1.2,1.91,8.78
50.341399,2.79869,33.09,-0.56,0.61,10.82
50.341399,2.79869,33.09,-1.52,0.68,11.6
50.341189,2.799023,33.06,-0.34,1.71,8.83
50.341189,2.799023,33.06,-0.11,1.02,11.46
50.340981,2.799355,33.11,-0.83,1.51,10.04
50.340981,2.799355,33.11,-0.29,2.32,8.39
50.340773,2.799686,33.14,-1.38,1.29,9.68
50.340773,2.799686,33.14,-1.51,1.72,9.31
50.340568,2.80002,33.17,-1.12,0.93,9.09
50.340568,2.80002,33.17,-1.05,1.13,8.64
50.340355,2.800359,33.26,-0.21,0.1,11.0
50.340355,2.800359,33.26,-1.03,1.7,10.92
50.340152,2.800697,33.29,-0.04,2.04,9.52
50.340152,2.800697,33.29,-1.28,2.17,10.36
50.339946,2.80104,33.33,0.21,1.37,8.93
50.339946,2.80104,33.33,-1.1,1.02,11.24
50.339739,2.801382,33.35,-0.26,1.22,9.71
50.339739,2.801382,33.35,-2.16,1.11,9.99
50.339536,2.801724,33.43,-1.81,1.74,9.14
50.339536,2.801724,33.43,-0.85,0.21,11.11
50.339332,2.802069,33.45,-1.41,1.15,8.09
50.339332,2.802069,33.45,0.67,1.81,7.66
50.339131,2.802421,33.48,-0.62,1.7,9.82
50.339131,2.802421,33.48,-1.9,1.02,9.85
50.338932,2.802773,33.53,0.25,2.51,9.98
50.338932,2.802773,33.53,0.33,1.38,9.85
50.338736,2.803125,33.54,-1.53,1.16,11.47
50.338537,2.803476,33.67,0.77,2.08,7.39
50.338537,2.803476,33.67,0.49,1.36,9.44
50.338339,2.803829,33.67,0.19,1.13,9.73
50.338339,2.803829,33.67,-1.2,1.07,8.49
50.338139,2.804188,33.71,-1.92,0.69,12.49
50.338139,2.804188,33.71,0.19,1.03,8.4
50.337939,2.804545,33.75,-2.52,0.57,10.72
50.337939,2.804545,33.75,-0.28,1.43,8.84
50.337746,2.804904,33.79,-2.52,1.74,10.24
50.337746,2.804904,33.79,1.55,1.38,8.12
50.337553,2.805267,33.93,-1.92,1.58,8.39
50.337553,2.805267,33.93,-1.79,0.42,10.92
50.337358,2.805633,34.07,0.11,1.85,7.55
50.337358,2.805633,34.07,-1.97,1.38,9.67
50.337163,2.806002,34.04,0.08,1.24,10.56
50.337163,2.806002,34.04,1.58,0.76,10.39
50.336969,2.80637,34.06,-1.63,1.11,9.1
50.336969,2.80637,34.06,-1.48,2.36,11.55
50.336776,2.806741,34.09,0.85,1.52,10.17
50.336776,2.806741,34.09,-2.28,0.97,8.45
50.336582,2.807113,34.02,-0.21,1.77,9.4
50.336582,2.807113,34.02,-0.34,0.83,8.01
50.336392,2.807487,33.91,0.15,1.56,8.31
50.336392,2.807487,33.91,-0.95,1.84,10.05
50.336205,2.807861,33.73,-0.36,0.54,9.36
50.336205,2.807861,33.73,-0.65,1.81,9.91
50.336019,2.808234,33.62,0.61,0.78,7.91
50.336019,2.808234,33.62,-0.01,1.46,9.21
50.335835,2.808608,33.56,-0.92,1.38,8.29
50.335835,2.808608,33.56,-1.6,1.86,10.27
50.335653,2.808983,33.51,-0.11,0.98,9.94
50.335653,2.808983,33.51,0.41,0.96,8.2
50.335472,2.809358,33.47,0.29,0.92,8.71
50.335472,2.809358,33.47,-1.23,2.15,10.66
50.335287,2.80973,33.43,0.77,0.98,8.4
50.335287,2.80973,33.43,-1.34,1.57,10.38
50.335103,2.810104,33.42,-1.06,1.69,7.52
50.335103,2.810104,33.42,-0.87,2.93,10.64
50.334924,2.810481,33.41,-1.39,1.48,7.96
50.334924,2.810481,33.41,-0.93,1.44,10.59
50.334747,2.81086,33.38,-1.31,2.01,9.15
50.334571,2.811238,33.35,0.53,0.35,10.98
50.334571,2.811238,33.35,-1.3,0.64,8.93
50.334394,2.811617,33.32,-1.11,-0.14,9.77
50.334394,2.811617,33.32,-1.66,2.23,11.2
50.334219,2.811998,33.36,-0.56,1.27,8.29
50.334219,2.811998,33.36,0.07,0.97,10.84
50.334045,2.81238,33.43,-0.48,0.77,8.34
50.334045,2.81238,33.43,-1.67,1.72,10.93
50.333872,2.812766,33.54,1.09,0.81,8.91
50.333872,2.812766,33.54,-1.48,1.15,9.93
50.333699,2.813153,33.65,0.42,1.31,6.95
50.333699,2.813153,33.65,0.06,1.19,8.67
50.333526,2.813545,33.77,0.6,1.36,9.76
50.333526,2.813545,33.77,0.45,1.02,9.96
50.333353,2.813939,33.84,-2.54,1.42,10.8
50.333353,2.813939,33.84,0.58,0.85,7.74
50.333181,2.814331,33.88,-1.47,2.47,10.72
50.333181,2.814331,33.88,-1.2,0.36,12.18
50.333009,2.81472,33.96,0.93,0.97,7.92
50.333009,2.81472,33.96,-1.27,1.74,11.01
50.332837,2.815119,33.97,0.92,1.35,9.29
50.332837,2.815119,33.97,-1.86,1.42,9.54
50.332667,2.815517,34.09,0.14,0.79,10.19
50.332667,2.815517,34.09,0.96,0.98,9.83
50.332494,2.815928,34.05,-2.33,1.1,9.16
50.332494,2.815928,34.05,-1.18,2.69,11.09
50.332332,2.816336,34.09,0.19,1.32,8.38
50.332332,2.816336,34.09,-2.03,1.4,11.14
50.332173,2.816743,34.07,-1.11,1.99,8.76
50.332173,2.816743,34.07,1.58,0.83,9.5
50.332012,2.81715,34.04,-0.59,0.47,9.34
50.332012,2.81715,34.04,-2.18,2.73,10.86
50.33185,2.817557,34.04,0.59,1.43,10.37
50.33185,2.817557,34.04,-0.7,0.72,9.22
50.331689,2.817963,33.98,0.34,3.1,10.56
50.331689,2.817963,33.98,-1.77,1.01,13.02
50.33153,2.818371,34.0,-0.99,2.83,11.29
50.33153,2.818371,34.0,-1.73,0.7,8.17
50.331374,2.81878,33.92,-0.27,0.45,11.35
50.331219,2.819195,33.95,-1.45,2.78,10.72
50.331219,2.819195,33.95,-1.52,0.67,11.63
50.331065,2.819608,33.98,-1.07,1.45,8.66
50.331065,2.819608,33.98,-1.53,0.71,10.18
50.330912,2.820015,33.91,-0.86,-0.09,8.89
50.330912,2.820015,33.91,-1.4,1.52,10.0
50.330765,2.820417,33.85,-0.64,0.2,10.58
50.330765,2.820417,33.85,-0.28,1.79,9.68
50.330618,2.820822,33.83,-0.52,1.7,10.44
50.330618,2.820822,33.83,0.21,1.18,9.81
50.330464,2.821233,33.81,-0.53,1.47,9.79
50.330464,2.821233,33.81,-0.88,1.76,8.78
50.330313,2.821641,33.74,-0.55,1.67,8.98
50.330313,2.821641,33.74,-1.62,1.34,11.58
50.330164,2.822058,33.75,0.33,0.71,8.92
50.330164,2.822058,33.75,-1.96,1.04,9.36
50.330018,2.822478,33.68,0.33,0.7,8.69
50.330018,2.822478,33.68,-1.55,1.81,9.73
50.329875,2.822898,33.65,0.79,1.33,7.09
50.329875,2.822898,33.65,-0.64,2.07,10.23
50.32973,2.82332,33.63,-0.78,0.28,10.57
50.32973,2.82332,33.63,-0.34,1.63,9.25
50.329587,2.823739,33.63,-1.05,0.06,10.0
50.329587,2.823739,33.63,-2.08,1.58,9.69
50.329444,2.824153,33.56,1.32,0.84,9.15
50.329444,2.824153,33.56,-0.71,1.0,9.37
50.329306,2.824574,33.66,-2.38,1.59,9.86
50.329306,2.824574,33.66,1.38,0.55,10.21
50.329169,2.824996,33.69,-0.88,2.38,10.53
50.329169,2.824996,33.69,1.49,0.37,8.89
50.32903,2.825418,33.82,-0.02,1.41,10.47
50.32903,2.825418,33.82,0.81,0.35,8.98
50.328892,2.82584,33.88,-1.45,1.45,10.9
50.328892,2.82584,33.88,-0.95,1.84,9.24
50.328756,2.82626,33.87,-0.16,1.17,7.02
50.328756,2.82626,33.87,-0.53,1.83,8.52
50.328624,2.826685,33.83,-0.95,-0.1,9.65
50.328624,2.826685,33.83,-0.79,1.79,10.14
50.328492,2.827114,33.8,-0.25,1.24,9.66
50.328361,2.827544,33.77,0.19,1.48,11.09
50.328361,2.827544,33.77,-1.34,1.57,11.03
50.32823,2.827973,33.8,1.47,1.45,9.7
50.32823,2.827973,33.8,1.18,1.42,10.31
50.3281,2.828398,33.83,-1.39,1.72,10.26
50.3281,2.828398,33.83,-0.58,1.32,8.51
50.327969,2.828827,34.01,-0.74,1.78,9.83
50.327969,2.828827,34.01,0.0,0.35,10.72
50.327839,2.829258,33.94,0.48,2.03,10.59
50.327839,2.829258,33.94,-1.94,0.91,10.24
50.327711,2.829692,34.0,0.67,1.45,11.05
50.327711,2.829692,34.0,-1.13,1.89,9.25
50.327588,2.830127,34.04,-1.86,0.39,12.04
50.327588,2.830127,34.04,-0.05,0.83,9.65
50.327466,2.830565,33.92,-1.17,1.38,10.48
50.327466,2.830565,33.92,-0.75,0.9,9.4
50.327346,2.830999,33.9,-1.65,0.89,12.23
50.327346,2.830999,33.9,-0.32,2.79,11.23
50.327225,2.831433,33.8,-0.53,1.64,7.45
50.327225,2.831433,33.8,-1.71,1.7,10.78
50.327103,2.831867,33.83,0.57,1.08,12.19
50.327103,2.831867,33.83,-1.27,1.39,7.2
50.326982,2.832305,33.85,-0.99,0.95,11.89
50.326982,2.832305,33.85,-1.31,2.01,8.76
50.326866,2.832743,33.79,-0.45,1.71,10.84
50.326866,2.832743,33.79,0.19,0.93,9.37
50.326754,2.833185,33.77,-0.5,1.75,10.38
50.326754,2.833185,33.77,-0.35,0.6,11.68
50.326639,2.833623,33.81,-0.3,1.49,8.6
50.326639,2.833623,33.81,-1.32,2.36,11.31
50.326524,2.834063,33.87,-0.44,0.59,8.07
50.326524,2.834063,33.87,-0.44,2.4,9.9
50.326415,2.834505,33.96,-1.47,1.49,10.58
50.326415,2.834505,33.96,-0.11,0.91,12.67
50.326304,2.834949,34.05,-0.26,2.53,10.99
50.326304,2.834949,34.05,-0.51,0.73,10.91
50.326197,2.835399,34.04,1.06,0.74,9.99
50.326197,2.835399,34.04,-0.35,1.28,9.05
50.326088,2.835846,34.16,-0.96,2.44,9.68
50.326088,2.835846,34.16,-2.45,0.45,10.78
50.325983,2.836298,34.27,0.36,0.83,9.41
50.325876,2.83675,34.26,-1.26,1.66,11.63
50.325876,2.83675,34.26,-0.96,1.66,10.4
50.325772,2.837205,34.27,-0.57,2.12,7.97
50.325772,2.837205,34.27,-1.37,1.72,8.37
50.325669,2.837659,34.26,-1.23,3.01,11.48
50.325669,2.837659,34.26,0.55,1.02,8.81
50.325566,2.838112,34.31,-0.45,1.22,10.52
50.325566,2.838112,34.31,-1.26,2.12,9.13
50.325466,2.83857,34.36,-1.78,1.14,11.22
50.325466,2.83857,34.36,0.43,0.23,10.07
50.325366,2.839027,34.41,-0.66,0.88,7.59
50.325366,2.839027,34.41,-0.73,2.06,10.13
50.325267,2.839485,34.45,-1.16,2.02,10.34
50.325267,2.839485,34.45,-1.2,1.96,10.01
50.325169,2.839945,34.44,-1.79,0.86,8.54
50.325169,2.839945,34.44,-0.9,1.43,9.49
50.325074,2.840404,34.46,-0.97,1.32,10.12
50.325074,2.840404,34.46,-0.01,1.18,9.84
50.324977,2.840862,34.49,0.21,0.47,10.27
50.324977,2.840862,34.49,-1.3,1.29,9.61
50.324882,2.84132,34.45,-0.97,3.14,10.93
50.324882,2.84132,34.45,-1.93,1.46,11.52
50.324784,2.841781,34.58,-1.21,1.09,10.6
50.324784,2.841781,34.58,-1.26,1.26,9.8
50.324683,2.842243,34.6,-0.88,1.15,9.11
50.324683,2.842243,34.6,-0.77,0.89,8.9
50.32459,2.842715,34.62,-0.51,1.0,9.48
50.32459,2.842715,34.62,-0.59,0.99,12.71
50.324498,2.843185,34.71,-1.13,1.16,9.84
50.324498,2.843185,34.71,-0.7,1.49,12.14
50.324416,2.843643,34.76,-1.47,0.36,8.85
50.324416,2.843643,34.76,-2.47,0.42,9.68
50.324335,2.84411,34.8,-1.0,-0.19,9.87
50.324335,2.84411,34.8,0.05,2.35,10.16
50.324252,2.844573,34.24,-0.02,0.7,8.11
50.324252,2.844573,34.24,0.45,1.2,9.83
50.324168,2.845038,34.04,-0.56,1.73,9.25
50.324168,2.845038,34.04,-0.66,-0.28,11.11
50.324085,2.8455,34.1,-0.25,1.05,9.92
50.324085,2.8455,34.1,-0.45,1.38,8.05
50.324003,2.845965,34.02,0.15,0.59,9.34
50.323923,2.846432,34.06,-1.49,0.63,9.25
50.323923,2.846432,34.06,-1.57,1.45,11.31
50.323848,2.846894,33.88,0.28,0.61,9.11
50.323848,2.846894,33.88,0.74,1.82,11.09
50.323775,2.847357,33.68,0.63,1.42,10.15
50.323775,2.847357,33.68,-1.87,0.55,8.4
50.323704,2.847814,33.48,-1.23,0.97,10.17
50.323704,2.847814,33.48,-2.15,1.81,11.12
50.323636,2.848269,33.41,1.08,0.89,9.27
50.323636,2.848269,33.41,0.07,1.62,8.99
50.323568,2.848723,33.44,-0.05,1.41,8.02
50.323568,2.848723,33.44,-1.73,2.25,10.75
50.323503,2.849178,33.45,0.92,0.85,10.14
50.323503,2.849178,33.45,-0.58,0.57,11.44
50.323437,2.849634,33.47,-0.32,0.81,8.26
50.323437,2.849634,33.47,-1.55,1.78,10.1
50.32337,2.850096,33.49,-1.54,1.66,8.19
50.32337,2.850096,33.49,-0.37,1.17,11.18
50.32331,2.850548,33.5,-0.52,1.06,7.37
50.32331,2.850548,33.5,-1.34,0.94,11.44
50.323247,2.851009,33.56,-0.36,1.94,11.05
50.323247,2.851009,33.56,-0.81,2.04,10.01
50.323185,2.851471,33.69,-1.32,1.03,12.0
50.323185,2.851471,33.69,-1.04,3.42,10.98
50.323122,2.851938,33.94,-1.24,0.97,10.47
50.323122,2.851938,33.94,1.02,0.88,8.0
50.323059,2.852406,34.0,-0.76,2.39,10.59
50.323059,2.852406,34.0,-2.36,0.79,10.17
50.323,2.852872,34.03,1.47,0.79,7.98
50.323,2.852872,34.03,-0.55,2.48,11.94
50.322942,2.853341,34.13,-1.39,0.0,10.08
50.322942,2.853341,34.13,0.62,0.6,8.08
50.322887,2.853813,34.23,-0.56,0.89,10.85
50.322887,2.853813,34.23,-1.79,1.78,9.41
50.322834,2.854287,34.23,-0.61,0.47,10.53
50.322834,2.854287,34.23,1.16,0.85,7.7
50.322782,2.854761,34.28,-0.36,2.82,10.87
50.322782,2.854761,34.28,0.33,1.03,10.53
50.32273,2.855235,34.34,-0.82,0.77,11.25
50.32273,2.855235,34.34,-0.59,1.02,7.97
50.322677,2.855712,34.42,-0.9,2.27,9.57
50.322677,2.855712,34.42,-1.16,2.67,11.28
50.322625,2.856188,34.46,0.21,0.6,9.35
50.322573,2.856663,34.49,-0.89,0.52,9.68
50.322573,2.856663,34.49,0.11,1.1,9.36
50.322523,2.85714,34.48,0.56,2.34,10.47
50.322523,2.85714,34.48,-1.59,2.11,10.48
50.322473,2.857617,34.51,-1.43,0.73,9.29
50.322473,2.857617,34.51,-0.91,1.55,10.05
50.322424,2.858098,34.51,-0.55,1.37,9.52
50.322424,2.858098,34.51,-0.57,2.16,9.73
50.322373,2.858576,34.33,0.65,-0.24,8.74
50.322373,2.858576,34.33,-0.28,0.31,9.52
50.322321,2.859044,33.57,-1.3,0.53,9.25
50.322321,2.859044,33.57,-0.92,1.62,9.9
50.32227,2.859503,32.97,0.87,0.07,10.53
50.32227,2.859503,32.97,-0.98,1.7,9.88
50.32222,2.859958,32.85,0.11,1.62,8.8
50.32222,2.859958,32.85,0.58,0.85,8.17
50.322174,2.860413,32.46,-0.26,-0.28,11.03
50.322174,2.860413,32.46,-0.29,0.63,5.22
50.322125,2.860859,32.17,-0.07,1.36,11.22
50.322125,2.860859,32.17,-1.83,1.6,9.77
50.322076,2.861305,32.32,-1.24,1.99,10.21
50.322076,2.861305,32.32,-0.8,1.62,8.68
50.322029,2.861755,32.57,0.67,1.24,10.77
50.322029,2.861755,32.57,-1.07,2.16,10.67
50.321981,2.86221,32.77,-1.15,2.18,8.82
50.321981,2.86221,32.77,-0.53,1.21,8.17
50.321933,2.862663,32.88,-1.07,0.92,10.88
50.321933,2.862663,32.88,0.02,0.95,9.25
50.321883,2.863119,32.89,-0.94,1.98,10.19
50.321883,2.863119,32.89,-1.67,1.12,12.63
50.321834,2.863574,32.94,0.45,1.35,8.83
50.321834,2.863574,32.94,-0.74,2.43,7.97
50.321786,2.864029,33.03,-2.23,1.07,9.64
50.321786,2.864029,33.03,0.13,1.34,9.97
50.321736,2.864489,33.13,-0.48,1.34,8.69
50.321736,2.864489,33.13,-1.22,1.54,10.3
50.321685,2.864947,33.18,-0.71,1.3,8.22
50.321685,2.864947,33.18,-0.96,0.39,10.51
50.321637,2.865408,33.27,-0.42,1.58,11.95
50.32159,2.865872,33.4,-0.53,1.21,9.96
50.32159,2.865872,33.4,-1.08,1.92,8.36
50.32154,2.866334,33.55,0.68,0.24,11.1
50.32154,2.866334,33.55,-0.12,1.42,9.36
50.321489,2.8668,33.64,-0.83,0.77,13.19
50.321489,2.8668,33.64,-0.46,1.84,8.3
50.32144,2.867265,33.61,-1.89,1.23,9.16
50.32144,2.867265,33.61,-0.55,1.5,7.58
50.321392,2.867734,33.55,0.08,0.76,10.66
50.321392,2.867734,33.55,-1.3,1.51,7.69
50.321343,2.868201,33.51,-0.08,1.92,10.48
50.321343,2.868201,33.51,0.1,1.86,7.83
50.321292,2.868665,33.46,0.08,1.55,12.27
50.321292,2.868665,33.46,-0.05,1.36,9.3
50.321242,2.869128,33.57,0.25,0.88,9.88
50.321242,2.869128,33.57,0.0,1.23,10.2
50.321191,2.869591,33.76,-0.62,2.34,11.5
50.321191,2.869591,33.76,-1.32,1.41,9.0
50.321141,2.87006,33.98,-1.1,1.55,9.04
50.321141,2.87006,33.98,-0.86,1.88,10.79
50.321091,2.87053,34.1,-0.31,1.36,7.73
50.321091,2.87053,34.1,-1.13,1.76,10.54
50.321043,2.871005,34.1,-1.36,-0.13,9.76
50.321043,2.871005,34.1,0.18,1.39,10.09
50.320991,2.871471,33.77,-1.79,2.03,7.89
50.320991,2.871471,33.77,-0.21,1.01,10.47
50.320941,2.871938,33.77,-0.92,1.22,9.6
50.320941,2.871938,33.77,-0.53,1.85,11.56
50.320893,2.872404,33.99,0.74,1.44,10.71
50.320893,2.872404,33.99,-0.99,1.26,10.07
50.32085,2.872877,34.2,-0.86,1.38,8.48
50.32085,2.872877,34.2,-0.25,1.28,10.16
50.320807,2.873356,34.48,-0.3,1.33,9.25
50.320807,2.873356,34.48,0.0,0.35,8.53
50.320761,2.873836,34.63,-0.67,1.84,8.88
50.320761,2.873836,34.63,-0.96,1.58,9.27
50.320714,2.87432,34.71,-0.34,1.55,9.26
50.320663,2.874803,34.84,-0.79,2.04,11.82
50.320663,2.874803,34.84,0.02,1.61,9.82
50.320611,2.875284,34.95,0.06,1.21,10.11
50.320611,2.875284,34.95,-0.65,2.15,8.82
50.320559,2.875769,35.0,-0.18,0.16,9.76
50.320559,2.875769,35.0,0.05,0.26,9.54
50.320511,2.876249,34.08,0.4,1.05,9.15
50.320511,2.876249,34.08,-0.43,1.02,10.74
50.320463,2.876724,34.11,0.77,0.88,10.47
50.320463,2.876724,34.11,0.02,0.99,9.14
50.320408,2.877197,34.18,0.55,2.07,11.49
50.320408,2.877197,34.18,0.41,0.92,8.83
50.320348,2.87767,34.22,0.02,0.79,10.76
50.320348,2.87767,34.22,-1.14,0.82,9.68
50.320281,2.87814,33.98,0.5,0.39,9.65
50.320281,2.87814,33.98,-0.33,0.27,9.04
50.320214,2.878604,33.64,0.18,1.4,9.28
50.320214,2.878604,33.64,-0.1,1.55,9.55
50.320149,2.879063,33.62,-0.6,1.3,11.2
50.320149,2.879063,33.62,-1.71,0.74,9.06
50.320083,2.879528,33.48,-0.63,0.51,11.78
50.320083,2.879528,33.48,-0.54,2.29,7.75
50.320017,2.879991,33.42,1.04,0.5,7.66
50.320017,2.879991,33.42,-0.68,0.86,10.15
50.319956,2.880452,33.49,-1.06,2.15,8.64
50.319956,2.880452,33.49,-1.1,2.08,9.8
50.319895,2.880914,33.43,0.82,1.27,11.13
50.319895,2.880914,33.43,-0.03,2.34,8.02
50.319832,2.881372,33.49,-0.78,0.67,10.53
50.319832,2.881372,33.49,0.08,1.96,9.88
50.319766,2.88183,33.52,0.25,1.54,9.55
50.319766,2.88183,33.52,0.39,1.39,8.41
50.319695,2.882287,33.45,0.79,0.7,10.02
50.319695,2.882287,33.45,-0.11,2.14,9.96
50.31962,2.882743,33.39,-0.59,0.58,9.56
50.31962,2.882743,33.39,-1.04,1.95,9.84
50.319546,2.883193,33.24,0.03,0.97,11.15
50.319546,2.883193,33.24,0.28,1.41,10.9
50.319465,2.883642,33.09,-1.12,1.72,8.32
50.319465,2.883642,33.09,0.18,0.28,9.09
50.319382,2.884086,33.07,-0.51,1.28,10.6
50.319382,2.884086,33.07,1.65,1.86,9.54
50.319298,2.884531,32.96,-0.01,1.58,9.32
50.319298,2.884531,32.96,-0.12,1.06,10.81
50.319211,2.884971,33.03,0.23,2.28,10.91
50.319123,2.885413,33.09,-0.26,1.91,8.8
50.319123,2.885413,33.09,-0.41,1.17,9.96
50.319029,2.885857,33.21,-1.09,0.86,9.45
50.319029,2.885857,33.21,0.74,0.87,12.28
50.318936,2.886301,33.22,0.11,2.54,8.41
50.318936,2.886301,33.22,-0.71,1.85,10.3
50.318841,2.886745,33.25,-0.79,1.27,12.84
50.318841,2.886745,33.25,-0.79,1.24,9.36
50.318742,2.887185,33.33,0.69,1.69,11.29
50.318742,2.887185,33.33,-0.64,1.32,9.28
50.31864,2.887624,33.33,0.36,1.36,12.87
50.31864,2.887624,33.33,-0.53,2.16,11.19
50.318539,2.888064,33.32,0.91,1.31,9.12
50.318539,2.888064,33.32,0.36,1.32,10.2
50.318438,2.888503,33.18,-0.42,1.71,7.39
50.318438,2.888503,33.18,-0.94,1.49,11.19
50.318331,2.888939,33.38,-0.18,1.13,8.07
50.318331,2.888939,33.38,0.14,2.3,11.52
50.318223,2.889377,33.23,0.17,1.65,10.2
50.318223,2.889377,33.23,0.08,0.97,11.99
50.318112,2.889808,33.11,-0.63,1.54,9.47
50.318112,2.889808,33.11,0.45,1.99,8.09
50.318,2.89024,33.0,-1.11,1.15,11.43
50.318,2.89024,33.0,0.12,2.01,10.42
50.317885,2.890664,32.98,0.32,0.94,10.67
50.317885,2.890664,32.98,-0.19,1.27,10.79
50.317769,2.891089,32.96,-0.17,1.81,8.42
50.317769,2.891089,32.96,1.09,0.63,9.45
50.317651,2.891512,32.97,0.18,1.31,10.97
50.317651,2.891512,32.97,0.21,1.98,8.54
50.31753,2.891937,32.97,0.15,0.73,9.94
50.31753,2.891937,32.97,-0.16,2.02,11.33
50.317405,2.892359,33.02,0.1,1.66,9.4
50.317405,2.892359,33.02,0.76,0.6,10.72
50.317278,2.89278,33.04,-1.12,2.09,10.24
50.317278,2.89278,33.04,-0.32,1.0,8.64
50.317147,2.893198,33.09,0.67,1.04,11.49
50.317147,2.893198,33.09,-0.5,1.76,10.65
50.317019,2.893611,32.99,-0.96,1.52,8.61
50.316885,2.894027,33.03,-0.79,1.07,11.04
50.316885,2.894027,33.03,0.23,1.14,9.22
50.316748,2.894436,33.09,0.11,1.55,8.94
50.316748,2.894436,33.09,-1.89,1.55,10.52
50.316609,2.894853,33.16,-1.24,1.81,7.24
50.316609,2.894853,33.16,1.63,0.8,10.96
50.316469,2.895273,33.24,-0.38,2.17,10.62
50.316469,2.895273,33.24,0.63,1.14,9.7
50.316326,2.895683,33.29,-0.62,1.56,12.22
50.316326,2.895683,33.29,0.28,1.86,8.2
50.31618,2.896089,33.32,-0.78,1.84,10.8
50.31618,2.896089,33.32,-0.84,1.54,8.43
50.316032,2.896496,33.36,0.98,0.71,12.37
50.316032,2.896496,33.36,-0.72,0.66,8.5
50.315883,2.896901,33.36,-1.02,1.06,7.27
50.315883,2.896901,33.36,0.39,1.56,11.12
50.31573,2.897306,33.4,0.96,0.85,10.05
50.31573,2.897306,33.4,0.04,1.57,10.0
50.315578,2.89772,33.38,-0.66,1.21,9.68
50.315578,2.89772,33.38,-0.69,1.78,11.12
50.315423,2.898119,33.35,0.88,1.59,8.8
50.315423,2.898119,33.35,-0.63,1.18,9.76
50.315266,2.898515,33.43,-0.2,1.45,9.65
50.315266,2.898515,33.43,0.35,1.04,8.89
50.31511,2.898912,33.41,0.27,1.73,10.24
50.31511,2.898912,33.41,-0.52,1.08,11.14
50.314949,2.899306,33.45,0.16,1.67,8.8
50.314949,2.899306,33.45,1.33,0.34,9.74
50.314787,2.899702,33.5,0.48,1.55,8.32
50.314787,2.899702,33.5,-1.66,2.34,11.76
50.314622,2.900099,33.61,-0.28,1.27,8.01
50.314622,2.900099,33.61,-0.55,2.45,9.14
50.314456,2.900497,33.64,-0.71,1.84,9.09
50.314456,2.900497,33.64,-0.42,2.56,10.87
50.314295,2.900893,33.74,-0.71,1.26,10.06
50.314295,2.900893,33.74,0.5,1.59,8.71
50.314128,2.901287,33.82,-0.69,1.44,11.66
50.314128,2.901287,33.82,1.16,0.19,8.92
50.313955,2.901676,33.92,-0.68,2.39,9.85
50.313781,2.902067,34.07,-0.93,1.26,11.55
50.313781,2.902067,34.07,1.71,0.27,9.9
50.313603,2.902453,34.16,-0.65,2.52,11.07
50.313603,2.902453,34.16,-0.12,1.75,11.79
50.313425,2.902839,34.3,0.24,1.08,9.25
50.313425,2.902839,34.3,0.03,1.17,9.78
50.313247,2.90323,34.34,-0.59,1.68,10.44
50.313247,2.90323,34.34,-1.27,3.09,12.08
50.313067,2.903624,34.53,0.23,0.96,7.89
50.313067,2.903624,34.53,-0.79,1.0,8.08
50.312885,2.904018,34.72,-0.99,0.97,10.2
50.312885,2.904018,34.72,-0.52,2.61,10.63
50.312699,2.904412,34.77,-0.05,1.18,10.19
50.312699,2.904412,34.77,-0.22,2.52,8.59
50.312509,2.904801,34.95,1.26,1.01,10.37
50.312509,2.904801,34.95,0.33,1.62,11.75
50.312322,2.905188,34.9,0.72,0.41,9.5
50.312322,2.905188,34.9,-0.13,0.11,9.43
50.312126,2.905577,34.51,-1.1,0.05,9.31
50.312126,2.905577,34.51,0.76,1.09,11.43
50.311929,2.905946,34.17,0.45,0.57,9.91
50.311929,2.905946,34.17,-0.76,0.24,9.86
50.311739,2.906317,34.02,-1.02,1.63,9.35
50.311739,2.906317,34.02,0.06,0.49,9.42
50.311544,2.906682,34.0,0.57,1.33,9.45
50.311544,2.906682,34.0,-1.28,2.53,10.66
50.311347,2.907051,34.01,-0.26,0.62,7.4
50.311347,2.907051,34.01,-0.54,1.45,9.55
50.311142,2.907413,34.08,-0.04,2.16,11.19
50.311142,2.907413,34.08,0.34,1.38,8.86
50.310938,2.907774,33.97,0.34,1.62,8.32
50.310938,2.907774,33.97,-0.91,2.91,11.47
50.310731,2.908129,34.04,0.57,1.37,8.86
50.310731,2.908129,34.04,0.24,1.77,9.73
50.310524,2.908484,34.07,-1.33,2.45,9.97
50.310524,2.908484,34.07,0.57,1.67,11.97
50.310307,2.90883,34.12,0.34,1.58,8.95
50.310307,2.90883,34.12,0.65,1.4,10.5
50.31009,2.909176,34.06,0.45,0.82,9.66
50.31009,2.909176,34.06,0.76,1.31,9.37
50.309872,2.909508,33.9,0.56,1.57,11.3
50.309658,2.909835,33.76,0.33,0.23,8.2
50.309658,2.909835,33.76,0.37,1.37,11.8
50.30944,2.910157,33.7,-1.03,1.2,8.26
50.30944,2.910157,33.7,-0.58,1.62,10.12
50.309217,2.910474,33.62,-0.06,1.26,9.23
50.309217,2.910474,33.62,-0.71,1.81,9.14
50.308988,2.910789,33.54,-0.53,0.51,10.65
50.308988,2.910789,33.54,-0.76,2.15,10.86
50.308761,2.911095,33.48,1.22,1.03,9.74
50.308761,2.911095,33.48,0.78,1.7,8.54
50.308533,2.911398,33.48,0.54,0.64,11.41
50.308533,2.911398,33.48,0.09,1.97,11.22
50.308299,2.911696,33.48,1.39,0.79,10.0
50.308299,2.911696,33.48,0.16,1.57,10.41
50.308056,2.911984,33.48,-0.45,1.05,8.02
50.308056,2.911984,33.48,-1.01,1.72,10.37
50.307818,2.912274,33.48,-0.08,0.96,10.36
50.307818,2.912274,33.48,-1.08,1.79,12.63
50.307582,2.912563,33.49,1.14,1.17,8.71
50.307582,2.912563,33.49,-0.29,1.88,9.77
50.307347,2.912852,33.4,-1.18,1.23,8.09
50.307347,2.912852,33.4,-1.93,2.3,10.79
50.307107,2.913136,33.51,0.91,0.89,10.25
50.307107,2.913136,33.51,-1.82,2.08,11.93
50.306871,2.913423,33.49,-0.46,1.17,9.14
50.306871,2.913423,33.49,-0.23,1.9,9.97
50.306637,2.91371,33.53,-0.77,1.36,9.7
50.306637,2.91371,33.53,-0.58,2.44,11.73
50.306396,2.913998,33.67,-0.53,0.79,10.71
50.306396,2.913998,33.67,-1.44,0.84,9.13
50.306155,2.914283,33.8,-0.97,1.83,9.81
50.306155,2.914283,33.8,-0.66,0.11,10.98
50.305913,2.914569,33.52,-1.69,1.98,10.83
50.305913,2.914569,33.52,-0.78,0.35,9.13
50.305671,2.914854,33.37,-0.28,0.5,11.72
50.305671,2.914854,33.37,0.07,1.25,10.89
50.30543,2.915139,33.51,-0.91,1.33,11.29
50.30543,2.915139,33.51,-0.24,0.21,10.09
50.305191,2.915421,33.64,-1.06,1.72,10.82
50.304951,2.915709,33.86,-0.31,0.11,8.53
50.304951,2.915709,33.86,-2.07,2.06,12.03
50.304714,2.916003,34.0,0.24,0.57,8.21
50.304714,2.916003,34.0,-0.78,0.18,8.62
50.304472,2.916305,34.12,-0.67,1.74,9.85
50.304472,2.916305,34.12,-0.35,0.8,10.07
50.304235,2.916605,34.18,-0.79,0.0,8.54
50.304235,2.916605,34.18,-1.8,2.34,12.41
50.303997,2.916912,34.42,-0.02,1.11,9.74
50.303997,2.916912,34.42,-1.24,1.44,8.83
50.303763,2.917233,34.39,-0.35,1.43,9.96
50.303763,2.917233,34.39,-1.2,1.62,9.16
50.303532,2.917552,34.46,-1.22,2.27,11.75
50.303532,2.917552,34.46,-0.41,0.52,8.16
50.303305,2.917882,34.51,0.4,0.08,9.64
50.303305,2.917882,34.51,-0.86,0.45,9.89
50.303075,2.91821,34.64,-0.01,2.18,9.24
50.303075,2.91821,34.64,0.4,1.92,10.74
50.302851,2.918547,34.48,-0.1,1.16,11.86
50.302851,2.918547,34.48,-0.38,0.55,9.25
50.30263,2.918897,34.63,-0.24,1.06,10.58
50.30263,2.918897,34.63,-1.03,0.73,9.91
50.302421,2.919247,34.65,-1.13,0.9,11.32
50.302421,2.919247,34.65,0.28,1.51,11.19
50.302214,2.919606,34.79,-0.91,0.88,8.89
50.302214,2.919606,34.79,0.23,0.5,10.04
50.30201,2.919974,34.88,0.41,0.87,10.33
50.30201,2.919974,34.88,0.43,0.91,10.36
50.301809,2.920351,34.88,0.6,0.13,9.82
50.301809,2.920351,34.88,-1.31,1.58,10.53
50.301608,2.92073,34.83,-1.72,1.73,10.9
50.301608,2.92073,34.83,-0.79,1.42,11.37
50.301416,2.921121,34.8,-1.02,1.86,10.25
50.301416,2.921121,34.8,-1.42,-0.57,10.24
50.301227,2.921504,34.7,0.55,-0.34,8.88
50.301227,2.921504,34.7,-0.45,0.95,10.32
50.301042,2.921886,34.15,-0.84,-0.1,9.16
50.301042,2.921886,34.15,0.22,0.87,10.92
50.300862,2.922263,33.85,-0.46,1.49,8.64
50.300862,2.922263,33.85,-0.23,1.14,8.91
50.300686,2.922649,33.91,-0.57,1.3,10.35
50.300686,2.922649,33.91,-0.94,2.34,10.58
50.300516,2.923044,34.1,-0.96,2.07,8.8
50.300348,2.923453,34.3,0.36,1.96,10.48
50.300348,2.923453,34.3,-0.8,1.99,8.79
50.300182,2.923859,34.43,0.38,0.77,9.9
50.300182,2.923859,34.43,0.43,1.41,10.0
50.300019,2.924267,34.49,0.16,1.67,10.1
50.300019,2.924267,34.49,-0.27,1.21,8.79
50.299859,2.924685,34.57,-0.77,1.71,9.73
50.299859,2.924685,34.57,-0.73,2.07,11.24
50.299704,2.925101,34.68,-1.28,1.07,7.57
50.299704,2.925101,34.68,-0.86,1.43,10.17
50.299548,2.925528,34.75,0.04,1.3,10.48
50.299548,2.925528,34.75,-0.26,1.75,9.42
50.299399,2.925962,34.71,-1.95,1.7,9.82
50.299399,2.925962,34.71,-0.9,0.99,10.0
50.299255,2.926395,34.4,-0.55,0.84,9.5
50.299255,2.926395,34.4,-0.16,1.52,8.53
50.299122,2.926822,33.99,-0.3,1.92,10.01
50.299122,2.926822,33.99,-0.62,0.99,10.57
50.298991,2.927248,33.89,-0.41,1.99,10.72
50.298991,2.927248,33.89,-0.34,1.44,11.6
50.298864,2.927673,33.76,-0.69,2.03,9.76
50.298864,2.927673,33.76,-1.15,1.26,9.93
50.29873,2.928102,33.86,-0.94,0.7,9.0
50.29873,2.928102,33.86,-0.85,1.32,8.18
50.298597,2.928529,33.61,-1.9,0.98,13.34
50.298597,2.928529,33.61,-0.77,1.53,9.16
50.298466,2.928961,33.51,-1.32,0.84,10.9
50.298466,2.928961,33.51,-0.95,1.14,10.63
50.298341,2.92938,33.31,0.1,1.44,10.22
50.298341,2.92938,33.31,-1.02,2.42,12.5
50.298218,2.929799,33.19,-0.59,1.38,9.79
50.298218,2.929799,33.19,-0.65,2.4,11.58
50.298094,2.930221,33.18,-0.31,1.27,9.83
50.298094,2.930221,33.18,-1.01,1.51,10.32
50.297968,2.930644,33.36,-0.61,0.77,7.76
50.297968,2.930644,33.36,0.49,0.99,8.7
50.297842,2.93107,33.4,-0.2,1.52,10.45
50.297842,2.93107,33.4,-0.61,1.36,11.13
50.297713,2.931495,33.42,0.14,2.27,10.59
50.297588,2.931922,33.41,1.37,0.83,10.05
50.297588,2.931922,33.41,0.07,1.46,9.25
50.297462,2.932348,33.36,-1.37,1.13,9.65
50.297462,2.932348,33.36,-0.95,1.36,9.8
50.29733,2.93277,33.36,0.29,1.27,9.06
50.29733,2.93277,33.36,-0.57,1.92,10.91
50.297195,2.933191,33.3,0.18,0.94,9.84
50.297195,2.933191,33.3,-0.74,1.41,9.63
50.297061,2.933605,33.24,-1.46,1.58,10.4
50.297061,2.933605,33.24,0.06,0.83,7.78
50.296922,2.934018,33.16,-0.05,2.04,10.29
50.296922,2.934018,33.16,-0.24,1.3,8.37
50.296781,2.934429,33.1,1.25,1.46,12.18
50.296781,2.934429,33.1,0.28,1.5,8.22
50.296633,2.934841,33.21,-1.04,1.39,8.83
50.296633,2.934841,33.21,-0.96,0.97,10.41
50.29648,2.93524,33.2,-0.44,0.97,9.59
50.29648,2.93524,33.2,0.19,0.69,13.07
50.296323,2.935633,33.23,-0.34,2.04,9.36
50.296323,2.935633,33.23,0.79,1.34,11.28
50.296162,2.936023,33.16,-1.35,1.52,10.51
50.296162,2.936023,33.16,0.04,2.03,10.21
50.295997,2.936404,33.24,-0.98,1.94,11.29
50.295997,2.936404,33.24,-1.17,0.96,8.39
50.295833,2.936794,33.19,1.57,0.55,8.25
50.295833,2.936794,33.19,0.36,2.17,10.62
50.295663,2.937181,33.28,1.66,0.67,8.97
50.295663,2.937181,33.28,-0.9,1.76,10.99
50.295492,2.937558,33.22,-0.46,1.4,8.85
50.295492,2.937558,33.22,-0.5,1.75,11.24
50.295314,2.937935,33.31,-0.08,1.03,7.43
50.295314,2.937935,33.31,1.26,1.31,9.99
50.295131,2.938307,33.18,-1.22,1.52,9.18
50.295131,2.938307,33.18,0.15,0.71,9.22
50.294945,2.938674,33.07,-1.39,0.82,11.74
50.294945,2.938674,33.07,-0.14,1.96,7.85
50.294757,2.939031,33.12,-0.94,1.02,10.66
50.294757,2.939031,33.12,-0.81,0.78,10.68
50.294566,2.939391,33.15,0.02,1.52,9.22
50.294566,2.939391,33.15,-0.82,2.66,11.93
50.294375,2.939748,33.27,-0.89,1.6,7.8
50.29419,2.940111,33.26,-1.02,1.75,11.71
50.29419,2.940111,33.26,-0.11,1.72,8.16
50.293992,2.940463,33.18,-0.94,0.74,10.74
50.293992,2.940463,33.18,-0.94,1.6,10.55
50.293794,2.940815,33.1,-0.65,1.01,8.82
50.293794,2.940815,33.1,0.64,0.17,9.09
50.2936,2.941166,33.08,-0.29,2.17,11.79
50.2936,2.941166,33.08,-0.32,1.35,9.09
50.293409,2.941519,32.94,0.81,0.56,9.31
50.293409,2.941519,32.94,-0.17,1.96,9.94
50.293218,2.941876,32.87,-0.12,1.25,8.88
50.293218,2.941876,32.87,-0.77,1.29,9.19
50.293027,2.942228,32.75,-1.68,1.08,11.14
50.293027,2.942228,32.75,-1.09,1.77,11.0
50.292834,2.942574,32.72,0.23,1.88,8.55
50.292834,2.942574,32.72,1.18,0.62,10.18
50.292643,2.942921,32.71,-0.55,2.21,10.45
50.292643,2.942921,32.71,-0.68,1.78,10.53
50.292458,2.943277,32.75,-0.03,1.78,8.77
50.292458,2.943277,32.75,0.38,1.36,12.77
50.292266,2.943633,32.74,-0.83,1.81,11.51
50.292266,2.943633,32.74,-0.91,1.39,9.36
50.292073,2.943978,32.72,-0.72,1.1,8.52
50.292073,2.943978,32.72,0.86,1.46,9.3
50.29188,2.944326,32.74,-1.36,1.78,10.06
50.29188,2.944326,32.74,0.11,1.96,9.84
50.291689,2.944678,32.84,0.73,0.73,10.3
50.291689,2.944678,32.84,-1.26,1.76,11.02
50.291498,2.945036,32.89,-0.75,2.08,9.39
50.291498,2.945036,32.89,-1.02,1.54,8.25
50.291303,2.945388,32.93,-1.36,1.18,10.17
50.291303,2.945388,32.93,-0.88,1.74,10.2
50.291112,2.945739,32.89,-0.49,1.03,9.09
50.291112,2.945739,32.89,-1.13,1.62,11.31
50.290919,2.946095,32.91,-1.44,2.07,12.38
50.290919,2.946095,32.91,-1.1,1.4,7.47
50.290728,2.946442,32.97,-0.2,1.46,11.46
50.290728,2.946442,32.97,-0.72,1.4,9.31
50.29054,2.946797,33.01,-0.74,1.24,8.75
50.290355,2.947155,33.09,-1.32,1.82,11.69
50.290355,2.947155,33.09,-1.41,2.19,8.96
50.290165,2.947514,33.19,-0.58,1.47,9.53
50.290165,2.947514,33.19,-0.99,1.66,10.9
50.289974,2.947868,33.18,0.09,1.04,9.47
50.289974,2.947868,33.18,-0.32,0.82,12.06
50.289778,2.94822,33.28,0.0,1.8,10.64
50.289778,2.94822,33.28,-1.49,1.07,9.16
50.289584,2.948573,33.34,-2.26,1.81,11.19
50.289584,2.948573,33.34,0.09,1.41,8.17
50.289396,2.94894,33.45,-0.3,1.72,10.6
50.289396,2.94894,33.45,-1.63,1.31,7.85
50.289204,2.949296,33.56,-1.5,2.39,9.83
50.289204,2.949296,33.56,0.02,1.58,8.97
50.289008,2.949657,33.62,-0.9,1.47,11.6
50.289008,2.949657,33.62,0.15,0.67,7.64
50.288816,2.950026,33.58,0.21,1.97,9.98
50.288816,2.950026,33.58,0.71,0.19,8.13
50.288625,2.950385,33.62,-0.29,1.19,9.74
50.288625,2.950385,33.62,0.31,0.87,10.65
50.288429,2.950742,33.57,-1.51,2.15,10.49
50.288429,2.950742,33.57,0.01,0.8,10.69
50.288231,2.951097,33.52,-0.12,1.89,9.12
50.288231,2.951097,33.52,-0.34,1.68,7.32
50.288033,2.951454,33.49,-0.93,2.2,12.11
50.288033,2.951454,33.49,0.77,0.95,10.38
50.287837,2.951815,33.59,-0.82,1.41,8.0
50.287837,2.951815,33.59,-0.19,1.15,8.93
50.287643,2.952178,33.67,-0.48,1.54,8.12
50.287643,2.952178,33.67,-0.33,2.31,11.19
50.287445,2.952537,33.69,0.79,2.65,10.05
50.287445,2.952537,33.69,-0.69,1.32,10.9
50.287247,2.952899,33.6,-0.57,0.9,8.2
50.287247,2.952899,33.6,-0.36,2.15,8.96
50.287049,2.953258,33.65,0.91,0.99,7.77
50.287049,2.953258,33.65,-0.62,2.37,10.86
50.286849,2.953613,33.64,0.68,1.01,9.84
50.286849,2.953613,33.64,-0.72,2.34,10.82
50.28665,2.953966,33.65,-0.24,0.28,10.72
50.28665,2.953966,33.65,-1.79,1.24,8.49
50.28644,2.954312,33.62,0.33,0.64,9.77
50.286237,2.954663,33.58,0.38,1.37,10.06
50.286237,2.954663,33.58,-0.7,1.44,9.95
50.286028,2.955008,33.53,-0.19,0.92,8.9
50.286028,2.955008,33.53,-1.48,1.28,11.96
50.285819,2.955351,33.5,-0.8,1.38,7.81
50.285819,2.955351,33.5,-0.56,0.99,8.77
50.285619,2.955692,33.61,0.5,1.98,11.54
50.285619,2.955692,33.61,-0.81,2.12,9.81
50.285413,2.956032,33.9,0.05,1.76,8.99
50.285413,2.956032,33.9,-1.39,1.86,11.04
50.285207,2.956377,33.76,0.71,0.39,10.19
50.285207,2.956377,33.76,-0.85,1.53,11.38
50.284995,2.956712,33.8,0.53,0.55,6.49
50.284995,2.956712,33.8,0.44,2.04,8.25
50.284784,2.957056,33.69,1.3,1.24,11.49
50.284784,2.957056,33.69,-0.26,1.44,10.7
50.28457,2.957395,33.77,0.08,1.56,11.46
50.28457,2.957395,33.77,0.13,1.7,10.4
50.284356,2.957726,33.72,-0.66,1.23,10.28
50.284356,2.957726,33.72,1.08,0.57,6.87
50.284137,2.958054,33.69,0.08,1.93,9.54
50.284137,2.958054,33.69,-0.97,0.69,7.69
50.283918,2.958382,33.63,-0.79,2.32,12.61
50.283918,2.958382,33.63,-0.67,1.47,9.52
50.283702,2.958705,33.63,-0.42,1.59,9.03
50.283702,2.958705,33.63,-1.55,0.99,10.21
50.283488,2.959031,33.65,-0.18,0.97,7.95
50.283488,2.959031,33.65,-1.43,2.15,9.95
50.283274,2.959355,33.56,-0.15,1.14,9.49
50.283274,2.959355,33.56,-1.41,2.38,10.26
50.283056,2.959678,33.54,0.03,0.65,11.3
50.283056,2.959678,33.54,-0.64,2.15,11.39
50.282831,2.959999,33.58,0.45,0.64,9.0
50.282831,2.959999,33.58,-0.87,1.71,9.79
50.282609,2.960319,33.64,0.74,1.38,7.84
50.282609,2.960319,33.64,-0.49,1.57,10.53
50.282392,2.960645,33.57,0.12,0.92,10.55
50.282392,2.960645,33.57,0.04,1.65,11.08
50.282172,2.960959,33.63,0.26,0.39,10.09
50.282172,2.960959,33.63,-1.19,0.95,8.6
50.281944,2.961274,33.54,0.64,0.71,9.78
50.28172,2.961593,33.6,0.27,1.36,9.06
50.28172,2.961593,33.6,0.66,2.27,11.63
50.281493,2.961903,33.65,-0.21,1.31,9.61
50.281493,2.961903,33.65,-1.06,0.91,10.18
50.281263,2.962214,33.72,0.36,0.94,8.01
50.281263,2.962214,33.72,-1.77,2.34,10.92
50.281032,2.962521,33.84,-0.56,0.9,11.18
50.281032,2.962521,33.84,-0.96,1.82,8.77
50.280795,2.962829,33.95,-0.88,0.58,10.77
50.280795,2.962829,33.95,0.19,0.84,7.98
50.280559,2.963131,34.09,-0.48,0.84,11.07
50.280559,2.963131,34.09,-0.74,1.42,11.61
50.280319,2.963433,34.18,-0.84,1.45,10.79
50.280319,2.963433,34.18,1.3,0.63,7.81
50.280078,2.963732,34.27,-1.56,2.84,12.24
50.280078,2.963732,34.27,-0.51,1.62,10.68
50.279838,2.964035,34.41,-1.13,0.95,10.13
50.279838,2.964035,34.41,-0.93,0.72,8.96
50.279599,2.964339,34.36,-0.97,1.95,8.84
50.279599,2.964339,34.36,-2.25,1.32,10.48
50.279359,2.964638,34.27,0.62,0.16,9.35
50.279359,2.964638,34.27,0.07,1.5,11.17
50.279121,2.964938,33.64,0.42,1.19,11.79
50.279121,2.964938,33.64,-0.81,2.36,10.3
50.278889,2.96523,33.45,0.42,0.45,8.35
50.278889,2.96523,33.45,-0.55,1.18,9.9
50.278649,2.965519,33.37,-0.4,1.21,11.96
50.278649,2.965519,33.37,-0.62,1.92,9.67
50.27841,2.965803,33.45,-0.7,0.83,9.61
50.27841,2.965803,33.45,-1.37,1.83,9.13
50.278173,2.966088,33.55,0.15,0.51,8.56
50.278173,2.966088,33.55,-1.1,1.93,10.9
50.277933,2.966377,33.56,-0.04,1.12,10.99
50.277933,2.966377,33.56,0.85,1.27,8.67
50.277692,2.966663,33.58,-1.45,0.5,10.05
50.277692,2.966663,33.58,-0.36,2.05,8.92
50.277453,2.966951,33.62,-0.3,0.57,10.12
50.277453,2.966951,33.62,-1.17,1.66,8.82
50.277214,2.967235,33.6,-0.28,1.21,11.25
50.277214,2.967235,33.6,-0.8,1.89,8.59
50.276974,2.967522,33.52,-1.85,0.95,9.85
50.276974,2.967522,33.52,-0.55,1.62,8.77
50.276742,2.967814,33.49,-0.58,0.5,8.95
50.27651,2.968101,33.55,-1.07,1.51,10.29
50.27651,2.968101,33.55,-1.04,0.4,10.23
50.276275,2.968398,33.58,-1.27,2.01,8.55
50.276275,2.968398,33.58,-0.91,0.99,11.03
50.276037,2.968695,33.57,-0.6,1.57,10.08
50.276037,2.968695,33.57,-0.83,1.06,9.6
50.275803,2.968992,33.63,-0.09,2.15,10.94
50.275803,2.968992,33.63,-0.87,1.64,10.7
50.275569,2.969291,33.74,0.01,0.52,9.39
50.275569,2.969291,33.74,-0.62,1.84,11.41
50.275334,2.969594,33.76,-0.95,0.64,9.18
50.275334,2.969594,33.76,-0.56,1.38,10.37
50.275101,2.969901,33.81,0.48,0.7,10.07
50.275101,2.969901,33.81,-0.69,0.48,9.39
50.27487,2.970205,33.88,-1.66,2.16,10.35
50.27487,2.970205,33.88,-0.73,-0.03,8.84
50.274639,2.970517,33.96,-0.06,1.46,10.73
50.274639,2.970517,33.96,-1.64,1.81,9.14
50.274408,2.970823,33.93,-1.16,1.45,9.71
50.274408,2.970823,33.93,-1.64,1.97,10.52
50.27418,2.971143,33.9,-1.31,0.96,10.71
50.27418,2.971143,33.9,-1.13,1.68,8.64
