Location-lat,Location-long,Speed,Accelerometer-X,Accelerometer-Y,Accelerometer-Z
49.278364,4.101002,29.5,0.45,2.35,10.17
49.278364,4.101002,29.5,-1.05,1.64,9.57
49.278243,4.100636,29.6,-0.42,1.38,9.61
49.278243,4.100636,29.6,-0.72,1.91,9.2
49.278121,4.10027,29.63,-0.19,1.6,8.97
49.278121,4.10027,29.63,0.06,1.9,8.37
49.277995,4.099912,29.62,0.24,2.3,8.29
49.277995,4.099912,29.62,-1.02,1.57,9.14
49.277869,4.099554,29.54,-0.2,1.53,9.27
49.277869,4.099554,29.54,-1.15,0.6,7.66
49.277741,4.099193,29.49,0.1,1.16,8.03
49.277741,4.099193,29.49,-0.34,1.48,9.29
49.277611,4.098843,29.5,-0.02,1.49,10.56
49.277611,4.098843,29.5,-0.81,1.45,9.71
49.277487,4.098486,29.4,-0.29,0.77,9.62
49.277487,4.098486,29.4,-1.47,0.62,9.92
49.277359,4.098133,29.35,-0.23,2.16,11.03
49.277359,4.098133,29.35,-0.96,0.99,9.69
49.277227,4.097786,29.26,0.37,0.84,9.29
49.277227,4.097786,29.26,-0.53,1.6,11.4
49.277095,4.097435,29.16,-1.94,0.62,9.39
49.277095,4.097435,29.16,-2.02,1.59,8.6
49.276956,4.097095,29.1,-0.45,2.02,8.83
49.276956,4.097095,29.1,-0.59,1.43,9.91
49.276815,4.096764,29.09,-1.04,0.53,8.88
49.276672,4.096433,28.99,0.11,1.25,7.39
49.276672,4.096433,28.99,-1.11,1.07,10.11
49.27653,4.096111,28.97,-0.69,1.28,8.83
49.27653,4.096111,28.97,-0.81,0.68,9.49
49.276383,4.095785,28.99,-0.07,1.38,8.41
49.276383,4.095785,28.99,-1.05,1.55,8.44
49.276223,4.095471,29.04,-1.04,1.02,9.45
49.276223,4.095471,29.04,-0.83,1.86,10.78
49.276057,4.095164,29.07,0.35,1.87,10.75
49.276057,4.095164,29.07,-1.25,1.18,8.75
49.27589,4.094854,29.05,-0.94,1.05,9.9
49.27589,4.094854,29.05,-0.41,2.1,9.69
49.275722,4.094539,29.12,-0.91,2.49,10.66
49.275722,4.094539,29.12,-1.11,1.53,10.54
49.275551,4.094227,29.22,-1.77,1.12,9.78
49.275551,4.094227,29.22,-0.84,1.37,10.23
49.275378,4.09392,29.29,-0.03,0.89,9.01
49.275378,4.09392,29.29,-0.69,1.7,10.48
49.275199,4.093611,29.36,-1.77,1.11,9.42
49.275199,4.093611,29.36,-0.19,1.84,9.94
49.275015,4.093308,29.5,-1.14,0.7,9
49.275015,4.093308,29.5,-1.75,1.65,9.41
49.274832,4.093011,29.59,-0.08,0.93,9.62
49.274832,4.093011,29.59,-1.26,1.86,10.41
49.274647,4.092717,29.64,-1.46,1.43,8.89
49.274647,4.092717,29.64,-1.32,1.17,10.24
49.274457,4.09243,29.86,-1.44,1.53,9.81
49.274457,4.09243,29.86,0.02,1.4,10.24
49.274259,4.092163,29.87,-0.72,1.81,7.99
49.274259,4.092163,29.87,-0.9,1.45,9.38
49.274061,4.091895,29.91,-0.53,1.35,10.91
49.274061,4.091895,29.91,-2.08,2.04,10.55
49.273859,4.091626,29.98,-0.64,1.69,11.41
49.273859,4.091626,29.98,-1.15,1.58,10.21
49.273656,4.091367,30.09,-0.2,1.69,9.05
49.273656,4.091367,30.09,-2.05,1.61,10.29
49.273453,4.091111,30.05,-0.18,0.75,10.14
49.273453,4.091111,30.05,0.15,2.15,9.91
49.273243,4.090853,29.99,-1.42,0.79,8.53
49.273243,4.090853,29.99,-1.46,1.57,9.98
49.273031,4.090597,29.86,-1.97,1.92,10.43
49.273031,4.090597,29.86,-0.53,1.62,9.28
49.272816,4.090355,29.84,-0.97,1.02,10.13
49.272816,4.090355,29.84,-0.62,1.37,9.44
49.272598,4.09013,29.98,-1.48,1.24,10.65
49.272379,4.089908,30,-0.7,1.09,8.04
49.272379,4.089908,30,-0.38,1.71,8.79
49.272157,4.089684,30.02,-0.39,1.46,8.75
49.272157,4.089684,30.02,-0.47,2.03,9.2
49.271939,4.089457,30.01,-1.65,1.08,10.03
49.271939,4.089457,30.01,-0.23,1.76,8.81
49.271716,4.089237,30.06,-0.82,1.04,8.8
49.271716,4.089237,30.06,-1.44,2.24,11.06
49.271488,4.089016,30.05,-0.72,1.47,9.02
49.271488,4.089016,30.05,-0.39,1.59,9.73
49.271239,4.088819,30.11,-0.68,2.04,9.14
49.271239,4.088819,30.11,-1.38,1.11,11.28
49.270995,4.088617,30.16,-1.08,1.85,9.73
49.270995,4.088617,30.16,-0.28,0.81,8.65
49.270752,4.08842,30.19,-1.22,1.73,10.92
49.270752,4.08842,30.19,-1.04,1.88,9.94
49.27051,4.088227,30.17,-1.43,1,8.84
49.27051,4.088227,30.17,-1.36,1.66,9.26
49.270263,4.088037,30.17,-1.2,1.48,10.41
49.270263,4.088037,30.17,-1.37,1.97,9.39
49.270013,4.087861,30.15,0.15,1.98,10.88
49.270013,4.087861,30.15,-1.47,1.04,10.15
49.269763,4.087683,30.04,-0.31,1.42,9.25
49.269763,4.087683,30.04,-1.33,1.71,9.3
49.269514,4.087517,29.99,-0.99,1.81,10.6
49.269514,4.087517,29.99,-1.14,1.82,9.41
49.269263,4.08736,29.8,-1.11,1.45,10.38
49.269263,4.08736,29.8,-2.16,0.66,7.64
49.269013,4.087203,29.75,-0.45,1.21,8.8
49.269013,4.087203,29.75,-1.02,2.27,10.34
49.268763,4.08706,29.64,-0.89,1.06,9.61
49.268763,4.08706,29.64,-1.8,1.73,11.32
49.268507,4.086919,29.43,-1.17,1.91,10.92
49.268507,4.086919,29.43,-1.71,1.46,10.08
49.268253,4.086793,29.3,-1.4,1.13,9.53
49.268253,4.086793,29.3,-1.28,1.65,8.47
49.267999,4.086669,29.09,-1.18,1.6,7.67
49.267999,4.086669,29.09,-1.36,1.47,11.08
49.267742,4.086553,29.05,-1.16,1.99,9.74
49.267494,4.086447,29.08,-0.97,1.6,8.98
49.267494,4.086447,29.08,-0.1,1.86,8.36
49.267245,4.086346,29.03,-1.65,1.58,8.78
49.267245,4.086346,29.03,-1.38,2.05,10.89
49.266993,4.086254,28.99,-0.56,1.2,10.19
49.266993,4.086254,28.99,-0.99,1.15,9.63
49.26674,4.086171,28.95,-1.5,1.26,9
49.26674,4.086171,28.95,-0.7,1.48,10.35
49.266485,4.086097,28.9,-1.1,1.87,8.02
49.266485,4.086097,28.9,-0.1,2.03,10.46
49.266231,4.086019,28.84,-0.74,1.18,8.94
49.266231,4.086019,28.84,-1.02,1.62,9.06
49.265979,4.085955,28.81,-0.52,2.17,9.14
49.265979,4.085955,28.81,-0.78,2,9.7
49.265727,4.085887,28.79,-1.2,1.5,9.47
49.265727,4.085887,28.79,-0.71,0.98,9.3
49.265475,4.085831,28.77,-1.75,1.56,9.67
49.265475,4.085831,28.77,-1.45,2.16,11.07
49.265218,4.085786,28.75,-0.81,1.37,9.12
49.265218,4.085786,28.75,-0.56,1.88,9.91
49.264959,4.085744,28.75,-2.55,1.7,8.99
49.264959,4.085744,28.75,-0.98,2.01,10.69
49.264702,4.085699,28.9,-0.45,1.26,10.3
49.264702,4.085699,28.9,-2.45,2.09,10.52
49.264442,4.085666,29.02,-1.71,1.69,8.49
49.264442,4.085666,29.02,-2.14,2.14,12.12
49.264183,4.08564,29.14,-0.35,2.1,8.53
49.264183,4.08564,29.14,-1.49,1.8,10.41
49.263926,4.085617,29.17,0.26,2.22,10.19
49.263926,4.085617,29.17,-1.34,1.3,8.71
49.26367,4.0856,29.35,-0.57,1.07,10.34
49.26367,4.0856,29.35,-0.74,1.82,8.6
49.263412,4.08558,29.46,-0.41,1.79,9.39
49.263412,4.08558,29.46,-0.79,1.99,10.01
49.263147,4.085575,29.42,-0.11,1.98,9.3
49.263147,4.085575,29.42,-0.3,1.89,10.83
49.262881,4.085562,29.72,1.61,1.67,8
49.262881,4.085562,29.72,-0.29,1.74,10.19
49.262614,4.085556,29.71,0.98,2.43,9.11
49.262351,4.08555,29.73,-1.09,2.38,8.67
49.262351,4.08555,29.73,-1.19,2.18,10.08
49.262083,4.085551,29.95,-0.65,1.51,9.84
49.262083,4.085551,29.95,0.45,1.74,9.92
49.261813,4.085542,30.12,-0.82,2.56,8.94
49.261813,4.085542,30.12,-0.98,2.11,11.11
49.26154,4.085541,30.14,1.03,2.15,9.65
49.26154,4.085541,30.14,-1.22,1.64,10.3
49.261267,4.085546,30.43,-0.28,1.88,10.74
49.261267,4.085546,30.43,0.32,1.55,10.24
49.260989,4.085542,30.61,-0.63,1.77,7.96
49.260989,4.085542,30.61,-0.9,1.72,9.53
49.26071,4.085528,30.65,-0.1,0.97,11.05
49.26071,4.085528,30.65,0.18,2.12,8.43
49.260435,4.08552,30.79,-1.11,1.44,9.57
49.260435,4.08552,30.79,-0.88,2.51,11.11
49.26016,4.085513,30.64,-0.23,1.17,10.23
49.26016,4.085513,30.64,-0.35,1.5,10.47
49.259888,4.085503,30.58,0.28,2.52,10.35
49.259888,4.085503,30.58,-1,1.12,9.36
49.259616,4.085493,30.6,-0.59,1.46,9.37
49.259616,4.085493,30.6,1.05,1.94,9.93
49.25934,4.085477,30.53,1.42,3.98,9.2
49.25934,4.085477,30.53,-1.65,0.68,9.24
49.259066,4.085466,30.51,1.5,1.59,10.2
49.259066,4.085466,30.51,-0.58,1.09,7.13
49.258793,4.085457,30.39,0.12,1.29,7.92
49.258793,4.085457,30.39,-0.45,1.63,11.25
49.25852,4.085448,30.28,-1.3,1.61,9.39
49.25852,4.085448,30.28,-0.13,1.79,8.46
49.258248,4.085434,29.98,-1.1,2.07,8.49
49.258248,4.085434,29.98,-0.24,1.49,10.98
49.257982,4.085433,29.94,-0.4,2.74,9.34
49.257982,4.085433,29.94,-0.27,1.88,8.4
49.257715,4.085415,29.71,-1.56,1.33,10.91
49.257715,4.085415,29.71,0.3,1.9,10.75
49.257448,4.085396,29.6,0.5,1.77,11.38
49.257448,4.085396,29.6,1.04,1.98,8.77
49.25718,4.085366,29.48,-0.26,1.5,10.89
49.25718,4.085366,29.48,0.64,1.66,10.02
49.256916,4.085331,29.38,-0.96,1.8,11.19
49.256916,4.085331,29.38,0.62,1.81,9.08
49.256652,4.085288,29.37,0.09,1.69,10.19
49.256391,4.085234,29.26,0.06,2.32,10.11
49.256391,4.085234,29.26,-1.02,2.24,10.18
49.256127,4.085176,29.23,0.09,1,10.42
49.256127,4.085176,29.23,-0.03,2.63,11.34
49.255866,4.085119,29.25,-1.05,1.81,9.96
49.255866,4.085119,29.25,0.41,2.16,9.84
49.255604,4.085058,29.13,-0.06,2.2,9.37
49.255604,4.085058,29.13,-1,1.82,9.15
49.255338,4.084984,29.1,0.92,1.68,9.63
49.255338,4.084984,29.1,0.22,1.87,9.47
49.255085,4.084904,28.92,-0.37,1.73,9.22
49.255085,4.084904,28.92,0.29,2.02,9.53
49.254833,4.084824,29.02,-1.12,1.48,9.18
49.254833,4.084824,29.02,0.36,1.59,9.05
49.254582,4.084742,29.05,0.37,2.03,10.34
49.254582,4.084742,29.05,1.06,2.09,8.25
49.25433,4.084654,29.03,-0.57,2.17,10.46
49.25433,4.084654,29.03,-0.34,1.55,8.47
49.254081,4.084559,29.15,-0.51,2.01,10.16
49.254081,4.084559,29.15,-0.42,1.33,8.15
49.253828,4.084461,29.14,-0.74,1.67,9.08
49.253828,4.084461,29.14,0.88,1.68,7.59
49.253569,4.084366,29.25,0.07,2.28,9.92
49.253569,4.084366,29.25,0.24,2.02,8.67
49.25331,4.084263,29.29,-1.18,1.11,8.23
49.25331,4.084263,29.29,-1.01,2.12,10.72
49.253054,4.08416,29.35,-0.07,1.89,9.12
49.253054,4.08416,29.35,-0.97,1.73,10.05
49.252799,4.084061,29.44,-0.07,0.83,11.22
49.252799,4.084061,29.44,-0.83,2.21,9.82
49.252545,4.08396,29.45,0.04,1.66,9.05
49.252545,4.08396,29.45,-0.17,2.2,9.84
49.252289,4.083864,29.5,-0.73,1.69,9.29
49.252289,4.083864,29.5,-1.1,1.04,9.32
49.252033,4.083764,29.46,-0.65,2.53,10.23
49.252033,4.083764,29.46,-0.34,1.94,8.98
49.25178,4.08366,29.47,-0.79,1.66,10.7
49.25178,4.08366,29.47,-0.99,2.53,13.39
49.251522,4.083566,29.33,-0.61,1.01,9.1
49.251265,4.083467,29.33,-0.25,2.32,9.36
49.251265,4.083467,29.33,-0.6,2.5,8.99
49.251014,4.083364,29.14,-1.13,0.89,10.54
49.251014,4.083364,29.14,-0.05,1.74,11.65
49.250757,4.083268,29.16,-0.34,1.91,10.72
49.250757,4.083268,29.16,-1.67,1.66,10.7
49.250501,4.083174,29.05,-0.57,0.93,9.6
49.250501,4.083174,29.05,-0.15,1.89,10.09
49.25025,4.083079,28.96,-0.29,1.27,9.12
49.25025,4.083079,28.96,0.36,1.55,9.27
49.249997,4.082982,28.88,0.68,2.35,9.54
49.249997,4.082982,28.88,-0.72,2.19,11.2
49.24975,4.08288,28.74,-1.5,2.27,9.55
49.24975,4.08288,28.74,-1.25,1.81,8.61
49.249502,4.082779,28.71,-0.99,1.64,9.02
49.249502,4.082779,28.71,-1.82,1.22,9.73
49.249255,4.082683,28.61,-1.42,1.3,9.98
49.249255,4.082683,28.61,-1.65,1.3,9.86
49.249006,4.082592,28.58,-1.12,1.6,11.79
49.249006,4.082592,28.58,-1.15,1.25,9.34
49.248756,4.082497,28.47,-0.33,1.51,9.25
49.248756,4.082497,28.47,-0.53,1.78,9.29
49.248504,4.0824,28.43,0.16,1.99,8.98
49.248504,4.0824,28.43,0,1.52,9.07
49.248252,4.082309,28.35,-0.14,2.1,10.62
49.248252,4.082309,28.35,-0.81,1.14,12.06
49.248005,4.082214,28.26,-1.2,0.92,10.06
49.248005,4.082214,28.26,0.42,1.42,9.59
49.247754,4.082117,28.17,-0.9,1.08,10.23
49.247754,4.082117,28.17,-0.08,1.44,8.12
49.247512,4.082019,28.17,-0.51,0.84,9.9
49.247512,4.082019,28.17,0.38,1.22,8.95
49.247265,4.081922,28.13,-1.19,1.81,11.23
49.247265,4.081922,28.13,-1.13,2.23,9.75
49.24702,4.081826,28.1,-0.48,2.43,11.05
49.24702,4.081826,28.1,-1.79,2.15,9.7
49.246782,4.081729,28.05,-0.08,2.53,10.52
49.246782,4.081729,28.05,-1,2.16,9.8
49.246536,4.08163,28.06,-0.52,2.25,10.87
49.246536,4.08163,28.06,-0.13,2.8,10.15
49.246293,4.081525,28.02,0.3,2.42,9.46
49.246055,4.081421,28,-0.09,2.13,9.4
49.246055,4.081421,28,0.37,1.56,9.68
49.245816,4.081317,28.01,-0.29,1.34,8
49.245816,4.081317,28.01,-0.47,2.33,8.66
49.245574,4.08121,28.01,0.72,1.29,7.99
49.245574,4.08121,28.01,-0.05,1.75,8.71
49.245333,4.081096,28.06,-0.01,2.08,9.71
49.245333,4.081096,28.06,-0.23,2.45,11.4
49.245091,4.080979,28.1,-1.56,2.07,8.36
49.245091,4.080979,28.1,-0.34,2.28,9.9
49.244847,4.080857,28.3,0.05,1.72,8.11
49.244847,4.080857,28.3,0.88,1.8,10.07
49.244601,4.080728,28.39,0.07,1.49,10.76
49.244601,4.080728,28.39,-1.48,1.34,7.83
49.24436,4.0806,28.62,-0.27,2.16,9.76
49.24436,4.0806,28.62,-0.11,1.79,9.8
49.244111,4.080466,28.72,-0.37,0.76,9.25
49.244111,4.080466,28.72,-0.11,0.87,7.84
49.243867,4.080335,28.71,-0.56,0.41,9.82
49.243867,4.080335,28.71,-0.06,1.46,10.5
49.243621,4.080199,28.23,-0.86,0.54,9.72
49.243621,4.080199,28.23,0.01,0.73,8.87
49.243381,4.080066,27.71,0.2,0.55,9.27
49.243381,4.080066,27.71,-0.11,0.63,7.26
49.243156,4.079939,27.08,-0.05,0.55,10.98
49.243156,4.079939,27.08,-0.56,1.54,10.03
49.242931,4.079803,26.61,0.17,0.98,9.98
49.242931,4.079803,26.61,-0.1,1.03,10.85
49.242719,4.07967,26.13,-0.13,0.58,9.8
49.242719,4.07967,26.13,0.4,1.64,8.87
49.242509,4.079531,25.69,0.04,1.07,9.55
49.242509,4.079531,25.69,-0.91,0.88,10.4
49.242292,4.079395,25.24,0.35,1.02,10.96
49.242292,4.079395,25.24,0.97,1.59,9.45
49.242082,4.079254,24.87,0.66,1.25,8.94
49.242082,4.079254,24.87,-0.65,1.43,10.62
49.241884,4.079113,24.92,-0.24,1.09,9.16
49.241884,4.079113,24.92,-0.92,1.32,8.3
49.241681,4.078976,24.76,-0.1,1.75,11.52
49.241681,4.078976,24.76,-1.77,0.49,11.89
49.241477,4.078835,24.74,-0.45,1.71,9.89
49.241276,4.078706,24.63,-0.34,1.38,9.83
49.241276,4.078706,24.63,-0.56,1.05,10.3
49.241074,4.07858,24.53,-0.23,1.17,11.95
49.241074,4.07858,24.53,-1.13,1.34,12.14
49.240879,4.078453,24.47,-0.79,1.39,11.41
49.240879,4.078453,24.47,0.02,2.15,11.34
49.240678,4.078325,24.6,-1.25,1.42,11.13
49.240678,4.078325,24.6,0.43,1.98,10.91
49.240477,4.078188,24.73,-0.17,1.83,9.35
49.240477,4.078188,24.73,-0.71,1.11,10.3
49.240273,4.078054,24.72,-0.76,0.79,10.64
49.240273,4.078054,24.72,1.03,1.22,8.69
49.240066,4.077923,24.77,0.02,1.48,8.21
49.240066,4.077923,24.77,-0.02,1.3,8.99
49.23986,4.077784,24.6,-1.59,0.63,11.35
