Location-lat,Location-long,Speed,Accelerometer-X,Accelerometer-Y,Accelerometer-Z
49.275659,4.088361,21.09,0.2,2.46,10.02
49.275756,4.088612,21.44,0.26,1.72,9.17
49.275756,4.088612,21.44,-1.5,2.75,9.73
49.275858,4.088862,21.99,-0.65,1.27,10.08
49.275858,4.088862,21.99,-0.66,0.54,8.21
49.275956,4.08912,21.36,-0.71,2.14,8.52
49.275956,4.08912,21.36,0.26,1.43,8.06
49.276054,4.089373,21.49,-0.46,1.24,10.83
49.276054,4.089373,21.49,0,1.14,9.92
49.276153,4.089629,21.8,0.18,1.12,7.93
49.276153,4.089629,21.8,-0.03,1.72,9.6
49.276252,4.089891,22.07,-0.71,2.03,10.56
49.276252,4.089891,22.07,0.01,1.31,11.59
49.27635,4.090159,22.61,-0.13,1.82,10.69
49.27635,4.090159,22.61,-0.03,2.95,11.13
49.276451,4.090431,22.89,-0.54,0.91,10.42
49.276451,4.090431,22.89,-0.35,2.41,9.43
49.276553,4.090706,23.16,-0.71,2.15,9.08
49.276553,4.090706,23.16,-0.79,2.36,9.71
49.276657,4.090985,23.47,-0.52,3.18,9.76
49.276657,4.090985,23.47,0.35,1.35,10.97
49.276762,4.091268,23.68,-0.39,1.07,8.38
49.276762,4.091268,23.68,-0.83,1.05,9.53
49.276867,4.091547,23.34,-0.33,1.93,9.71
49.276867,4.091547,23.34,0.41,1.47,10.68
49.276972,4.091825,23.34,-0.5,1.82,9.53
49.276972,4.091825,23.34,-0.94,1.71,9.86
49.277076,4.092102,23.39,-0.74,0.66,11.49
49.277076,4.092102,23.39,-0.2,2.39,9.43
49.27718,4.092379,23.49,-0.66,1.56,10.99
49.27718,4.092379,23.49,-0.69,2.4,10.29
49.277286,4.092659,23.71,-0.05,1.47,10.22
49.277286,4.092659,23.71,-0.88,1.48,8.32
49.277392,4.092943,23.83,-0.25,2,10.81
49.277392,4.092943,23.83,-0.67,0.68,8.77
49.277502,4.093227,23.97,-1.58,2.62,8.35
49.277611,4.093515,24.12,-0.45,1.48,10.45
49.277611,4.093515,24.12,-0.73,1.19,10.85
49.277718,4.093805,24.27,-1.07,2.3,8.2
49.277718,4.093805,24.27,-0.77,1.13,10.22
49.277825,4.094097,24.44,-0.24,1.32,11.23
49.277825,4.094097,24.44,-0.83,1.48,10.4
49.277936,4.094389,24.54,0.08,0.61,8.77
49.277936,4.094389,24.54,-0.28,1.17,9.11
49.278044,4.094681,24.24,0.27,0.61,7.88
49.278044,4.094681,24.24,-0.72,1.42,10.58
49.278153,4.094965,23.96,-2,1.26,10.48
49.278153,4.094965,23.96,-0.52,1.38,10.74
49.278259,4.095253,24.06,-0.67,1.63,9.04
49.278259,4.095253,24.06,-0.51,1.33,10.71
49.278369,4.095543,24.31,-0.56,2.32,9.9
49.278369,4.095543,24.31,-0.51,1.58,10.01
49.278479,4.095835,24.53,-0.64,1.99,8.66
49.278479,4.095835,24.53,-1.29,2.4,11.38
49.27859,4.096128,24.72,-0.5,1.73,10.17
49.27859,4.096128,24.72,-0.7,1.29,10.53
49.278701,4.096424,24.92,-0.17,0.86,10.12
49.278701,4.096424,24.92,0.11,1.27,10.5
49.278814,4.096723,25.12,-0.04,0.38,11.36
49.278814,4.096723,25.12,-0.33,0.71,9.29
49.278926,4.097023,24.84,-0.13,0.44,12.3
49.278926,4.097023,24.84,-1.16,2.18,8.73
49.279035,4.097318,24.31,-0.78,2.04,10.16
49.279035,4.097318,24.31,-0.43,0.84,10.64
49.279143,4.097608,24.28,0.06,1.47,9.45
49.279143,4.097608,24.28,-0.33,1.4,9.93
49.279253,4.097898,24.37,-1.21,1.76,9.17
49.279253,4.097898,24.37,-0.07,1.23,9.65
49.279364,4.098189,24.48,0.35,1.98,9.37
49.279364,4.098189,24.48,-1.05,1.26,9.82
49.279474,4.098479,24.51,-0.14,0.33,11.9
49.279474,4.098479,24.51,-0.43,0.29,9.92
49.279586,4.098769,24.18,0.12,1.47,8.6
49.279586,4.098769,24.18,0.1,1.33,10.5
49.279695,4.099054,23.6,0.63,0.98,8.79
49.279695,4.099054,23.6,-0.06,0.5,11.18
49.279801,4.099333,23.31,0.22,1.42,11.06
49.279904,4.099611,23.14,-0.42,1.87,8.96
49.279904,4.099611,23.14,0,0.86,8.71
49.280005,4.099887,23.05,-0.95,1.34,10.4
49.280005,4.099887,23.05,0.31,1.58,9.19
49.280107,4.100162,22.96,-0.03,1.98,11.2
49.280107,4.100162,22.96,-0.78,2.2,9.14
49.280208,4.100434,22.93,-0.82,0.83,8.47
49.280208,4.100434,22.93,-0.09,1.45,10.72
49.280305,4.100709,22.88,-1.04,0.43,7.58
49.280305,4.100709,22.88,-0.36,1.68,9.25
49.280404,4.100985,22.9,-1.25,1.57,8.79
49.280404,4.100985,22.9,-0.32,0.45,8.79
49.280508,4.10126,22.96,-0.59,0.9,9.76
49.280508,4.10126,22.96,-0.99,1.26,9.05
49.280607,4.101536,23.06,-0.67,0.56,10.83
49.280607,4.101536,23.06,0.1,1.17,10.86
49.28071,4.101815,23.27,0.17,1.61,8.18
49.28071,4.101815,23.27,-0.79,1.05,9.39
49.280812,4.102095,23.4,0.27,1.04,10.08
49.280812,4.102095,23.4,0.1,0.31,11.14
49.280913,4.102373,22.93,0.36,0.61,10.55
49.280913,4.102373,22.93,0.12,0.33,11.46
49.28101,4.102642,22.34,-0.54,0.76,9.94
49.28101,4.102642,22.34,-0.63,0.56,9.76
49.281103,4.102907,21.92,-1.18,0.67,10.38
49.281103,4.102907,21.92,-0.34,-0.02,9.99
49.281195,4.103161,21.19,0.05,0.04,8.9
49.281195,4.103161,21.19,0.2,0.52,8.32
49.28128,4.103415,20.6,-1.07,0.11,7.52
49.28128,4.103415,20.6,-1.09,-0.52,13.05
49.281365,4.103655,19.51,-0.71,-0.47,10.43
49.281365,4.103655,19.51,0.15,-0.14,9.16
49.281444,4.103879,18.24,0.16,0.27,7.35
49.281444,4.103879,18.24,-0.73,-0.13,9.15
49.281519,4.104091,17.23,-1.27,0.21,8.35
49.281519,4.104091,17.23,-0.58,1.13,10.54
49.281594,4.10429,16.71,-0.04,1.04,9.44
49.281594,4.10429,16.71,0.38,1.94,9.22
49.281671,4.10449,16.68,-0.7,0.36,9.53
49.281671,4.10449,16.68,-1.1,0.7,8.33
49.281745,4.10469,16.26,-0.29,0.75,9.59
49.281817,4.104884,15.98,0.27,1.26,9.43
49.281817,4.104884,15.98,-0.68,-0.71,6.16
49.281887,4.105073,15.68,-1,0.88,9.73
49.281887,4.105073,15.68,0.08,0.49,9.18
49.281954,4.105255,15.01,-0.62,0.21,10.11
49.281954,4.105255,15.01,-0.41,-0.03,9.18
49.282019,4.105428,13.93,-1.35,0.2,10.29
49.282019,4.105428,13.93,-0.46,-0.3,8.46
49.282076,4.105591,13.23,-0.32,0.29,11.25
49.282076,4.105591,13.23,-0.22,1.07,10.86
49.282133,4.105741,12.72,-0.58,0.66,10.39
49.282133,4.105741,12.72,-1.14,0.56,11.32
49.282185,4.105888,12.07,-0.43,1,11.07
49.282185,4.105888,12.07,-0.09,1.17,9.68
49.282239,4.106032,11.53,-0.73,0.09,9.17
49.282239,4.106032,11.53,0.39,1.4,9.89
49.282289,4.106168,11.08,0.9,0.76,9.32
49.282289,4.106168,11.08,0.24,0.23,10.43
49.282325,4.106309,10.65,-0.09,0.04,9.93
49.282325,4.106309,10.65,0.82,0.77,10.21
49.282354,4.106439,9.72,1.71,1.1,9.21
49.282354,4.106439,9.72,2.72,1.13,10.63
49.282373,4.106566,9.72,2.91,2.03,10.15
49.282373,4.106566,9.72,2.45,2.29,10.89
49.282372,4.106697,10.46,1.74,2.19,10.4
49.282372,4.106697,10.46,3.35,1.1,11.27
49.282349,4.106839,11.11,4.01,1.65,9.49
49.282349,4.106839,11.11,2.69,1.59,9.52
49.282285,4.10697,10.86,2.36,2.07,10.28
49.282285,4.10697,10.86,1.07,2.84,9.07
49.282205,4.107067,11.82,0.61,2.51,10.78
49.282205,4.107067,11.82,0.37,2.05,8.71
49.282105,4.107155,12.82,1.38,1.72,10.16
49.282105,4.107155,12.82,1.13,1.2,10
49.281998,4.107231,13.38,1.15,0.91,9.93
49.281998,4.107231,13.38,1.9,2.51,11.13
49.281891,4.107297,13.22,1.25,1.71,9.3
49.281891,4.107297,13.22,0.13,1.81,10.65
49.281777,4.107352,13.04,-0.22,1.7,8.03
49.281777,4.107352,13.04,-0.26,2.84,10
49.281652,4.107387,13.45,-0.45,2.64,10.34
49.281524,4.107427,14.19,-1.15,2.83,9.44
49.281524,4.107427,14.19,-1.06,0.39,11.54
49.281396,4.107463,13.95,-0.89,1.65,10.11
49.281396,4.107463,13.95,0.03,2.95,9.2
49.28127,4.107502,14.31,-1.59,2.41,10.52
49.28127,4.107502,14.31,-1.07,2.29,10.7
49.281146,4.107521,14.66,-0.51,2.87,8.83
49.281146,4.107521,14.66,-0.92,1.74,8.75
49.281021,4.107556,14.91,-0.93,2.39,9.96
49.281021,4.107556,14.91,0.4,1.94,9.22
49.28089,4.107595,15.37,0.34,1.88,11.82
49.28089,4.107595,15.37,0.5,0.63,2.25
49.280751,4.107639,15.52,0.03,2.03,7.69
49.280751,4.107639,15.52,-0.78,0.94,10.53
49.280611,4.10768,15.84,0,1.07,9.75
49.280611,4.10768,15.84,0.01,1.23,9.98
49.280471,4.107723,15.41,-0.49,2.01,9.41
49.280471,4.107723,15.41,-0.63,2.92,10.88
49.280332,4.107765,15.61,-0.86,1.75,12.3
49.280332,4.107765,15.61,0.22,2.19,9.63
49.28019,4.107811,15.83,-0.86,2.22,10.68
49.28019,4.107811,15.83,-0.81,1.94,9.08
49.280047,4.107858,16,0.37,1.99,9.75
49.280047,4.107858,16,-0.97,1.12,8.08
49.279901,4.107903,16.04,-0.57,1.46,8.4
49.279901,4.107903,16.04,-1.22,1.08,9.41
49.279755,4.107948,15.96,-0.47,1.97,9.74
49.279755,4.107948,15.96,0.33,2.53,9.8
49.279613,4.107981,15.99,-0.39,1.65,9.53
49.279613,4.107981,15.99,0.43,2.31,9.62
49.27947,4.108006,16.18,0.19,2.5,10.55
49.27947,4.108006,16.18,-1.32,1.13,9.44
49.279319,4.108032,16.43,0.19,1.64,8.93
49.279319,4.108032,16.43,-0.79,0.92,9.23
49.279172,4.108038,16.09,-0.99,0.57,10.89
49.279172,4.108038,16.09,-0.78,0.35,10.3
49.279033,4.108041,15.36,-0.6,-0.29,8.93
49.279033,4.108041,15.36,-1.59,-0.08,9.32
49.278905,4.108038,14.21,-0.39,0.04,10.26
49.278786,4.108029,12.93,0.58,0.13,9.62
49.278786,4.108029,12.93,-0.2,0.16,8.01
49.27868,4.108017,11.88,0.19,1.18,10.31
49.27868,4.108017,11.88,1.67,0.13,10.01
49.278582,4.108,11.03,1.36,-0.03,10.95
49.278582,4.108,11.03,1.66,0.78,8.24
49.278488,4.107964,10.35,1.65,0.71,10.73
49.278488,4.107964,10.35,2.04,1.9,10.15
49.278404,4.1079,10.02,3.51,1.74,10.09
49.278404,4.1079,10.02,3.08,1.59,9.87
49.278335,4.107803,10.75,3.22,2.07,9.17
49.278335,4.107803,10.75,2.61,1.47,9.59
49.278289,4.107663,11.77,3.52,2.61,10.36
49.278289,4.107663,11.77,3.17,1.83,9.98
49.278265,4.107498,12.55,3.5,1.77,9.82
49.278265,4.107498,12.55,2.56,2.24,11.13
49.278271,4.107308,13.7,2.45,2.16,10.86
49.278271,4.107308,13.7,3.12,2.45,10.61
49.278301,4.107112,14.74,2.15,1.79,9.45
49.278301,4.107112,14.74,2.23,0.92,9.79
49.278364,4.106919,15.06,1.89,0.94,9.69
49.278364,4.106919,15.06,1.64,0.8,8.75
49.278442,4.106738,15.09,1.73,1.27,10.37
49.278442,4.106738,15.09,1.4,1.27,9.67
49.278541,4.106584,15.1,1.19,2.07,8.86
49.278541,4.106584,15.1,1.22,0.94,9.09
49.278647,4.106448,15.79,1.08,1.47,8.5
49.278647,4.106448,15.79,1.13,2.2,10.61
49.278771,4.106327,16.8,0.37,0.9,8.8
49.278771,4.106327,16.8,0.75,0.94,9.96
49.278909,4.106226,17.11,0.88,0.82,10.07
49.278909,4.106226,17.11,0.11,0.49,12.4
49.27905,4.106129,17.09,0.67,-0.19,9.65
49.27905,4.106129,17.09,0.04,-0.68,12.04
49.279198,4.106039,16.35,0.93,0.65,9.13
49.279198,4.106039,16.35,1.74,-0.39,10.62
49.279335,4.105959,15.54,2.54,0.26,10.51
49.279335,4.105959,15.54,3.82,0.25,10.64
49.279466,4.105901,14.96,3.56,0.34,9.63
49.279605,4.105881,14.96,3.34,0.78,9.18
49.279605,4.105881,14.96,3.93,1.74,9.28
49.279744,4.10593,15.95,4.77,0.87,11.16
49.279744,4.10593,15.95,4.87,0.91,10.75
49.279873,4.106037,15.5,4.17,1.13,9.69
49.279873,4.106037,15.5,2.69,1.77,9.68
49.279981,4.106201,15.68,0.57,2.22,9.54
49.279981,4.106201,15.68,0.55,2.3,10.04
49.28006,4.106407,16.5,0.76,0.47,10.06
49.28006,4.106407,16.5,1.55,2.48,9.45
49.280134,4.106618,16.61,0.06,2.41,8.06
49.280134,4.106618,16.61,-0.07,2.45,10.19
49.280208,4.106834,17.8,0.26,2.79,10.21
49.280208,4.106834,17.8,-0.04,2.22,9.2
49.280286,4.107064,18.87,-1.2,1.56,9.46
49.280286,4.107064,18.87,0.55,2.21,9.84
49.280375,4.107304,19.78,-1.05,2.13,8.55
49.280375,4.107304,19.78,0.32,3.41,8.84
49.280459,4.107552,20.62,-0.68,2.33,9.22
49.280459,4.107552,20.62,-1.09,2.06,10.25
49.280546,4.107811,21.39,-0.61,1.96,10.87
49.280546,4.107811,21.39,-1.03,1.92,9.54
49.280638,4.108081,22.52,-0.86,2.08,8.22
49.280638,4.108081,22.52,-0.27,3.04,9.84
49.280738,4.108353,23.53,-0.09,2.68,8.91
49.280738,4.108353,23.53,0.24,1.6,7.11
49.280843,4.108635,24.32,0,2.23,9.73
49.280843,4.108635,24.32,-1.48,2.87,11.1
49.280953,4.108933,25.25,-0.29,2.83,10.42
49.280953,4.108933,25.25,-1.05,0.45,8.39
49.281066,4.109242,25.53,-0.62,1.4,8.64
49.281066,4.109242,25.53,-0.22,1.76,7.4
49.281172,4.109549,25.3,-0.42,1.3,7.98
49.281172,4.109549,25.3,0.41,1.55,8.75
49.281278,4.109861,25.64,-0.6,1.36,9.41
49.281278,4.109861,25.64,-0.35,1.18,11.18
49.281387,4.110183,26.41,0.13,2.3,9.36
49.281387,4.110183,26.41,-0.68,1.47,10.49
49.281498,4.110509,27.03,0.3,1.25,10.77
49.281498,4.110509,27.03,-1.84,1.13,10.74
49.281613,4.11084,27.54,-1.04,0.59,10.73
49.281728,4.111174,27.25,0.28,1.95,10.35
49.281728,4.111174,27.25,-2.26,1.12,9.94
49.281842,4.111508,27.1,-0.77,1.1,9.05
49.281842,4.111508,27.1,-1.11,2.09,9.28
49.281956,4.111835,27.3,-0.68,2.05,11.12
49.281956,4.111835,27.3,-0.45,-0.07,10.88
49.282071,4.112166,27.32,-2,0.74,9.61
49.282071,4.112166,27.32,-0.6,0.41,9.63
49.282186,4.112495,27.34,0.23,2.39,9.08
49.282186,4.112495,27.34,0.28,1.15,11.5
49.282302,4.112829,27.61,-0.22,0.48,8.26
49.282302,4.112829,27.61,0.37,1.58,9.79
49.282419,4.113171,27.95,-0.32,1.06,9.74
49.282419,4.113171,27.95,-0.97,1.62,12.45
49.282537,4.113517,28.05,-0.31,1,11.21
49.282537,4.113517,28.05,-0.05,1.91,10.87
49.282654,4.113854,28.12,-0.24,1.05,8.67
49.282654,4.113854,28.12,0.78,-0.14,12.65
49.282771,4.114195,27.92,-0.52,0.1,8.59
49.282771,4.114195,27.92,-1.2,1.49,8.26
49.282889,4.114537,27.77,-1.23,0.8,10.19
49.282889,4.114537,27.77,-1.8,0.53,8.72
49.283008,4.114868,27.94,-0.43,1.45,9.42
49.283008,4.114868,27.94,0.52,2.01,10.96
49.283134,4.1152,28.37,-1.47,1.36,8.12
49.283134,4.1152,28.37,-0.54,0.39,10.19
49.283265,4.115535,28.76,-1.45,0.98,9.9
49.283265,4.115535,28.76,-1.31,2.23,10.03
49.283401,4.115872,29.08,-1.03,1.23,8.99
49.283401,4.115872,29.08,-0.79,2.3,9.69
49.283539,4.116213,29.58,-1.8,0.57,9.65
49.283539,4.116213,29.58,-0.21,1.49,10.73
49.283683,4.11655,29.89,-1.59,-0.6,10.74
49.283683,4.11655,29.89,-1.62,0.51,10.55
49.283829,4.116891,29.66,-0.7,0.42,11.25
49.283829,4.116891,29.66,-0.94,1.14,9.11
49.283977,4.117227,29.35,-0.82,0.25,11.45
49.283977,4.117227,29.35,-0.66,1.03,10.67
49.284129,4.11756,29.42,-1.21,1.44,9.94
49.28428,4.117891,29.59,-0.45,1.39,11.41
49.28428,4.117891,29.59,-1.06,1.36,8.18
49.284434,4.118223,29.71,-1.49,1.01,11.03
49.284434,4.118223,29.71,-1.33,1.66,9.69
49.284592,4.118553,29.79,-0.25,1.15,10.37
49.284592,4.118553,29.79,-0.45,1.06,9.28
49.284755,4.118878,29.44,-0.68,1.86,7.72
49.284755,4.118878,29.44,-1.47,0.43,10.86
49.28492,4.119201,29.38,0.26,1.27,9.81
49.28492,4.119201,29.38,-1.3,1.12,10.06
49.285084,4.119519,29.55,-0.16,1.94,11.21
49.285084,4.119519,29.55,-1.04,1.72,9.12
49.285252,4.119837,29.8,-1.25,1.93,9.63
49.285252,4.119837,29.8,-2.12,-0.23,9.46
49.285422,4.120152,29.92,-1.69,1.58,9.02
49.285422,4.120152,29.92,0.81,1.69,8.69
49.285593,4.120464,29.84,-1.04,0.27,10.79
49.285593,4.120464,29.84,-1.48,1.27,8
49.285766,4.120768,29.39,-0.65,2.12,8.85
49.285766,4.120768,29.39,-1.59,0.91,9.66
49.28594,4.121067,29.21,-1.55,1.14,13.49
49.28594,4.121067,29.21,-2.31,1.95,8.82
49.286119,4.121364,29.37,-0.06,1.81,9.78
49.286119,4.121364,29.37,-1.8,0.98,8.23
49.286303,4.121659,29.63,-0.97,1.92,10.23
49.286303,4.121659,29.63,-0.62,1.7,10.46
49.286487,4.121954,29.83,-0.42,1.03,11.27
49.286487,4.121954,29.83,-1.47,1.64,10.82
49.28668,4.122242,29.87,-1.29,1.05,9.5
49.28668,4.122242,29.87,-0.66,1.13,10.47
49.286874,4.122534,29.78,-0.19,0.89,10.4
49.286874,4.122534,29.78,-1.22,1.57,10
49.287069,4.122819,29.77,-0.14,1.34,9.53
49.287069,4.122819,29.77,-0.23,1.33,11.02
49.287267,4.123099,29.82,-1.02,1.22,10.06
49.287267,4.123099,29.82,-0.55,1.76,9.47
49.287467,4.123377,29.89,-0.88,1.03,9.81
49.287467,4.123377,29.89,-1,2.22,9.62
49.287667,4.123654,29.96,-0.44,0.59,11.43
49.287667,4.123654,29.96,-0.7,1.54,10.09
49.287867,4.123928,30.04,-0.91,0.27,10.85
49.288072,4.124199,29.99,-1.25,0.91,9.47
49.288072,4.124199,29.99,-0.13,2.14,9.19
49.288276,4.124472,29.92,-1.36,0.53,9.74
49.288276,4.124472,29.92,-0.49,2.16,8.33
49.288483,4.124732,29.9,-0.13,0.99,10.77
49.288483,4.124732,29.9,-0.62,1.59,9.42
49.288689,4.124988,29.82,-1.21,1.43,7.84
49.288689,4.124988,29.82,-1.47,0.75,10.35
49.288896,4.125241,29.73,-0.83,1.23,9.39
49.288896,4.125241,29.73,-0.18,0.05,10.02
49.289106,4.125489,29.7,-1.49,0.92,11.47
49.289106,4.125489,29.7,-0.68,1.42,7.2
49.289319,4.125731,29.64,-0.28,0.52,9.25
49.289319,4.125731,29.64,-1.79,0.61,11.03
49.289534,4.125968,29.54,-1.21,1.37,10.78
49.289534,4.125968,29.54,-1.35,1.17,11.76
49.289751,4.126203,29.5,-1.96,1.67,12.78
49.289751,4.126203,29.5,-1.21,1.24,9.45
49.289967,4.126434,29.54,-0.67,1.16,8.63
49.289967,4.126434,29.54,-0.81,0.23,11.2
49.290184,4.12666,29.47,0.66,2.25,11.59
49.290184,4.12666,29.47,-0.57,2.03,10.64
49.290406,4.126876,29.5,-1.68,1.13,9
49.290406,4.126876,29.5,-0.66,2,9.73
49.290628,4.127094,29.63,-0.94,1.27,7.65
49.290628,4.127094,29.63,-0.87,1.03,9.46
49.290854,4.127307,29.77,-0.76,1.75,10.52
49.290854,4.127307,29.77,0.23,2.59,8.82
49.291084,4.127518,29.91,-0.55,1.56,9.17
49.291084,4.127518,29.91,-0.92,0.98,9.63
49.291313,4.127727,29.95,-1,0.62,11.17
49.291313,4.127727,29.95,-2.06,1.45,8.45
49.291546,4.127935,29.94,-0.11,0.21,9.12
49.291546,4.127935,29.94,-0.22,1.48,9.37
49.291788,4.128135,30.03,-1.17,0.99,12.09
49.292028,4.12833,30.11,-1.4,1.14,8.28
49.292028,4.12833,30.11,-1.21,1.16,9.01
49.292274,4.128518,30.1,-0.68,0.75,9.61
49.292274,4.128518,30.1,-0.62,0.76,8.43
49.292517,4.128706,29.51,-0.7,0.42,11.02
49.292517,4.128706,29.51,-0.5,0.52,11.44
49.292754,4.128885,29.11,0.59,1.42,11.34
49.292754,4.128885,29.11,-0.15,1.3,10.52
49.292984,4.129052,28.89,-0.94,1.58,9.46
49.292984,4.129052,28.89,-1.02,1.99,7.17
49.293214,4.129215,28.78,-0.54,1.79,7.71
49.293214,4.129215,28.78,0.16,2.18,11.43
49.293445,4.129378,28.89,-0.88,1.58,9.79
49.293445,4.129378,28.89,1.19,1.76,9.17
49.29368,4.129543,29.13,-2.09,2.36,10.72
49.29368,4.129543,29.13,-0.6,1.24,9.82
49.293921,4.12971,29.27,-1.5,1.4,7.68
49.293921,4.12971,29.27,-0.52,-0.23,10.14
49.294163,4.129872,29.14,-0.5,0.75,9.76
49.294163,4.129872,29.14,0.13,0.68,9.5
49.294401,4.130034,28.8,-0.73,1.93,12.88
49.294401,4.130034,28.8,-0.1,1.64,9.06
49.294637,4.130197,28.82,-0.7,0.49,10.38
49.294637,4.130197,28.82,-0.63,1.05,9.05
49.29487,4.130358,28.49,0,2.15,7.95
49.29487,4.130358,28.49,-0.74,1.51,10.81
49.295101,4.130519,28.23,-0.18,0.71,11.16
49.295101,4.130519,28.23,-0.26,1,7.51
49.295332,4.130679,28.27,0.65,1.01,9.54
49.295332,4.130679,28.27,-0.74,1.38,8.27
49.295562,4.130841,28.37,-0.53,1.07,11.63
49.295562,4.130841,28.37,-0.78,0.03,9.51
49.295795,4.131002,28.5,-1.06,1.87,8.83
49.295795,4.131002,28.5,-1.21,0.83,8.95
49.29603,4.131161,28.62,0.05,1.45,8.1
49.29603,4.131161,28.62,-0.39,1.06,12.03
49.296266,4.13132,28.73,0.15,0.53,12.46
49.296266,4.13132,28.73,0.86,1.28,12.2
49.296504,4.131478,28.57,0.67,0.48,12.59
49.296504,4.131478,28.57,-0.9,0.96,8.95
49.296738,4.131637,28.42,0.46,1.28,9.95
49.296972,4.131798,28.53,0.31,1.36,9.38
49.296972,4.131798,28.53,-0.11,2.38,9.35
49.297207,4.131959,28.64,-1.03,0.76,9.64
49.297207,4.131959,28.64,-0.64,1.01,9.9
49.297442,4.132121,28.73,-0.15,0.64,12.26
49.297442,4.132121,28.73,-0.05,1.69,11.06
49.297678,4.132284,28.8,-2.41,0.49,12.99
49.297678,4.132284,28.8,-1.92,1.28,10.93
49.297914,4.132447,28.83,-0.29,1.68,10.19
49.297914,4.132447,28.83,-0.79,1.58,8.75
49.298149,4.132611,28.81,0.16,1.57,9.74
49.298149,4.132611,28.81,-0.18,1.68,10.72
49.298384,4.132775,28.8,-1.06,1.29,7.57
49.298384,4.132775,28.8,-0.06,2.36,10.93
49.298621,4.132938,28.81,-0.79,2.44,7.99
49.298621,4.132938,28.81,-0.66,0.97,9.63
49.298857,4.133101,28.8,-0.29,1.19,10.31
49.298857,4.133101,28.8,0.01,1.07,10.66
49.299094,4.133261,28.8,-0.36,1.19,10.38
49.299094,4.133261,28.8,-0.01,1.19,9.34
49.299331,4.133423,28.85,-1.4,1.16,9.28
49.299331,4.133423,28.85,0,0.98,10.33
49.299568,4.133585,28.87,-0.91,0.6,9.97
49.299568,4.133585,28.87,-0.1,1.12,9.49
49.299806,4.133747,28.97,-0.5,1.27,6.22
49.299806,4.133747,28.97,-0.23,0.91,9.05
49.300046,4.133908,28.83,-0.45,0.56,7.93
49.300046,4.133908,28.83,-0.35,-0.01,12.2
49.300279,4.134072,28.7,1.26,0.54,10.29
49.300279,4.134072,28.7,1.2,0.86,10.87
49.300514,4.134247,28.72,0.62,1.07,10.7
49.300514,4.134247,28.72,-0.33,1.1,10.09
49.300746,4.134428,28.9,0,1.28,11.58
49.300746,4.134428,28.9,-0.83,0.48,10.54
49.300976,4.134618,29,-0.77,1.31,9.94
49.300976,4.134618,29,0.22,1.42,9.21
49.301204,4.134815,29.27,-0.1,-0.13,9.88
49.301204,4.134815,29.27,-0.4,1.71,9.81
49.301435,4.135021,29.35,-0.68,0.05,10.96
49.301435,4.135021,29.35,-0.51,0.66,7.56
49.301664,4.135227,29.16,-0.52,1.13,9.84
49.301888,4.135441,29.05,0.43,0.23,10.3
49.301888,4.135441,29.05,-0.23,0.43,11.37
49.302109,4.135655,29.31,0.56,1.04,9.71
49.302109,4.135655,29.31,-1.19,1.03,9.41
49.302325,4.135877,29.52,-0.57,1.78,7.86
49.302325,4.135877,29.52,-0.32,1.19,10.96
49.302542,4.136104,29.7,0.07,1.59,9.25
49.302542,4.136104,29.7,0.39,0.34,9.65
49.302759,4.136335,29.86,-0.08,0.54,9.97
49.302759,4.136335,29.86,-0.03,1.88,9.26
49.302972,4.13657,29.51,0.8,0.63,11.42
49.302972,4.13657,29.51,-0.09,0.93,9.84
49.303182,4.136814,29.57,0.35,1.91,10.89
49.303182,4.136814,29.57,0.7,0.37,10.03
49.303393,4.137063,29.61,0.46,0.98,11.74
49.303393,4.137063,29.61,0.09,1.67,10.44
49.303601,4.137319,29.56,-1.1,1.42,9.08
49.303601,4.137319,29.56,-1.3,0.36,9.95
49.303807,4.137572,29.52,-0.67,0.72,11.88
49.303807,4.137572,29.52,-0.87,1.52,7.01
49.304012,4.137828,29.52,-0.25,0.22,11.27
49.304012,4.137828,29.52,-0.25,1.24,10.5
49.304217,4.138085,29.43,-1.61,0.91,7.95
49.304217,4.138085,29.43,-1.25,0.44,9.16
49.304425,4.138337,29.32,-0.54,0.75,10.59
49.304425,4.138337,29.32,-0.64,1.39,8.83
49.304633,4.138585,29.19,0.45,0.76,11.32
49.304633,4.138585,29.19,-0.94,1.33,8.83
49.304836,4.138833,28.97,-0.95,1.45,9.11
49.304836,4.138833,28.97,-1.63,1.69,9.53
49.30504,4.139081,28.76,-0.02,1.49,8.72
49.30504,4.139081,28.76,-0.07,1.04,9.64
49.305242,4.13933,28.68,0.14,1.08,9.4
49.305242,4.13933,28.68,0.91,0.21,11.54
49.305443,4.139581,28.73,0.19,0.73,10.22
49.305443,4.139581,28.73,-1.2,0.96,11.78
49.305645,4.13983,28.83,-1.6,1.88,8.95
49.305846,4.14008,28.92,-0.45,1.99,7.83
49.305846,4.14008,28.92,0.07,1.38,9.7
49.306048,4.140328,29,-1.46,1.86,7.24
49.306048,4.140328,29,-1.11,1.38,8.71
49.306249,4.140579,29.12,-0.95,1.02,11.51
49.306249,4.140579,29.12,-1.65,-0.14,9.73
49.306454,4.14083,29.1,-1.07,1.6,11.17
49.306454,4.14083,29.1,-0.11,1.48,9.24
49.306661,4.141079,29.07,-1.53,1.67,7.98
49.306661,4.141079,29.07,-1.13,1.72,10.87
49.306867,4.141326,28.93,-1.04,2.03,10.3
49.306867,4.141326,28.93,-0.41,0.65,9
49.307071,4.141571,28.88,-0.45,0.23,10.25
49.307071,4.141571,28.88,0.01,0.63,9.07
49.307276,4.141821,28.85,-0.88,0.65,6.13
49.307276,4.141821,28.85,-0.51,1.56,10.45
49.307478,4.142066,28.88,0.3,2.25,8.98
49.307478,4.142066,28.88,-0.19,1.54,7.51
49.307684,4.142312,28.97,-1.24,2.11,6.85
49.307684,4.142312,28.97,-0.47,2.63,8.7
49.307888,4.142557,29.08,-0.58,1.06,8.21
49.307888,4.142557,29.08,-0.29,0.34,11.07
49.308092,4.14281,28.98,0.09,0.86,11.14
49.308092,4.14281,28.98,-0.95,1.51,10.56
49.308291,4.143064,28.67,-0.53,0.5,10.27
49.308291,4.143064,28.67,0.62,1.22,7.58
49.308492,4.143313,28.53,-1.21,1.43,9.21
49.308492,4.143313,28.53,-1.57,0.39,10.58
49.308693,4.143558,28.5,-0.67,1.36,10.96
49.308693,4.143558,28.5,-0.39,1.62,9.95
49.308895,4.143804,28.53,0.17,1.19,9.22
49.308895,4.143804,28.53,-0.3,0.52,9.74
49.309097,4.144044,28.66,-0.47,1.3,10.05
49.309097,4.144044,28.66,-0.41,1.82,9.65
49.309297,4.144287,28.84,-1.04,1.25,10.7
49.309297,4.144287,28.84,-0.97,1.84,10.65
49.309498,4.14453,28.87,-0.63,1.45,10.38
49.309498,4.14453,28.87,0.01,1.64,8.68
49.3097,4.144776,28.83,-1.15,0.97,8.35
49.309901,4.145024,28.86,-0.77,1.59,8.76
49.309901,4.145024,28.86,0.13,0.77,7.89
49.310105,4.145272,28.92,-0.36,0.79,8.31
49.310105,4.145272,28.92,-0.85,1.81,8.94
49.310308,4.145522,29,-0.78,1.89,10.04
49.310308,4.145522,29,-0.57,1.58,10.14
49.310516,4.145773,29.18,0.4,2.85,9.6
49.310516,4.145773,29.18,-0.39,1.61,8.28
49.310723,4.146024,29.3,-0.38,0.48,10.55
49.310723,4.146024,29.3,-0.1,0.65,8.65
49.310927,4.146274,29.2,-0.31,1.03,14.62
49.310927,4.146274,29.2,-0.49,1.85,8.59
49.311131,4.146524,29,-0.08,0.59,9.08
49.311131,4.146524,29,-1.42,0.63,9.93
49.311334,4.146776,28.85,-1.28,-0.23,8.89
49.311334,4.146776,28.85,-0.7,-0.2,10.31
49.311537,4.147015,28.6,-0.61,0.32,9.01
49.311537,4.147015,28.6,0,0.23,11.56
49.311736,4.147262,28.21,-0.48,1.58,14.58
49.311736,4.147262,28.21,-0.72,2.04,9.37
49.311934,4.147505,28.1,0.51,1.67,9.89
49.311934,4.147505,28.1,0.91,2.06,12.35
49.312132,4.147742,27.87,-0.41,0.36,11.41
49.312132,4.147742,27.87,-1.41,1.37,9.74
49.312328,4.147981,27.86,-0.56,0.79,10.1
49.312328,4.147981,27.86,-0.92,0.61,9.74
49.312524,4.148212,27.47,-0.17,-0.01,10.1
49.312524,4.148212,27.47,0.02,1.47,10.78
49.312717,4.148442,27.14,0.15,1.76,9.52
49.312717,4.148442,27.14,-0.37,1.01,8.79
49.312912,4.148671,27.15,-0.39,1.88,11.17
49.312912,4.148671,27.15,-0.33,1.58,8.51
49.313107,4.148909,27.4,-0.41,2.12,10.43
49.313107,4.148909,27.4,-0.79,1.57,9.45
49.3133,4.149147,27.56,-0.01,1.55,9.49
49.3133,4.149147,27.56,-1.17,0.42,10.96
49.313496,4.149386,27.87,-0.19,1.92,7.55
49.313496,4.149386,27.87,-0.2,1.66,8.73
49.313688,4.149627,27.94,-0.19,1.27,8.77
49.313688,4.149627,27.94,-0.93,1.45,8.68
49.313884,4.149867,28.18,-0.88,1.18,8.76
49.314084,4.150109,28.46,0.22,1.36,10.61
49.314084,4.150109,28.46,0.56,1.96,8.43
49.314285,4.150353,28.8,-0.2,1.25,11.41
49.314285,4.150353,28.8,-0.19,0.77,10.39
49.314487,4.150604,28.87,-0.1,1.04,10.19
49.314487,4.150604,28.87,-1.06,1.47,8.67
49.314687,4.150848,28.57,0.11,1.59,9.89
49.314687,4.150848,28.57,-0.94,1.36,9.31
49.314888,4.151088,27.95,-0.45,1.58,7.75
49.314888,4.151088,27.95,0.17,1.93,9.05
49.315092,4.151333,29.1,-0.68,0.97,9.81
49.315092,4.151333,29.1,0.21,0.8,10.84
49.315299,4.151584,29.06,0.68,1.21,11.9
49.315299,4.151584,29.06,-0.49,0.77,9.87
49.315505,4.151826,28.93,0.03,1.22,10.96
49.315505,4.151826,28.93,-0.44,1.48,9.29
49.315708,4.152075,28.97,-0.59,1.15,8.35
49.315708,4.152075,28.97,0.28,1.55,8.49
49.315912,4.152324,29.14,0.39,0.46,11.29
49.315912,4.152324,29.14,-0.34,0.58,11.54
49.316116,4.152576,29.12,-0.11,1.43,10.35
49.316116,4.152576,29.12,-0.73,1.24,8.94
49.316319,4.152835,29.27,0.96,2.03,8.61
49.316319,4.152835,29.27,-0.76,0.65,9.77
49.316526,4.153085,29.34,-0.9,1.18,9.33
49.316526,4.153085,29.34,-0.93,1.52,10.09
49.316732,4.153344,29.41,-0.82,1.37,9.47
49.316732,4.153344,29.41,-0.54,1.5,11.13
49.31694,4.153597,29.5,0.29,2.15,10.07
49.31694,4.153597,29.5,-0.93,1.71,8.45
49.317147,4.153849,29.58,-0.52,0.57,9.68
49.317147,4.153849,29.58,-0.53,1.58,9.53
49.317355,4.154103,29.62,-1.9,1.79,14.69
49.317355,4.154103,29.62,-0.12,0.62,9.71
49.317564,4.154358,29.63,0.03,1.34,11.33
49.317564,4.154358,29.63,0.3,1.51,9.03
49.317771,4.154614,29.61,-0.48,0.75,9.52
49.317771,4.154614,29.61,-0.28,1.16,8.67
49.317979,4.154868,29.5,-0.74,1.55,8.44
49.317979,4.154868,29.5,-1.69,1.59,7.78
49.318186,4.155121,29.4,-0.44,-0.76,10.25
49.318186,4.155121,29.4,0.43,-0.03,10.09
49.318392,4.155369,28.93,-1.03,0.26,9.5
49.318596,4.155616,28.8,0.57,1.85,9.39
49.318596,4.155616,28.8,-0.72,1.68,11.87
49.318797,4.155862,28.77,-0.1,1.24,10.62
49.318797,4.155862,28.77,-0.57,1.69,9.02
49.319,4.156107,28.9,-0.27,1.23,10.76
49.319,4.156107,28.9,-0.8,2.07,7.8
49.319201,4.156357,28.87,0.08,1.55,8.72
49.319201,4.156357,28.87,0.8,1.75,10.22
49.319404,4.156605,28.98,-1.47,0.43,9.82
49.319404,4.156605,28.98,-0.75,1.43,10.41
49.319608,4.156854,29.09,0.23,1.32,10.09
49.319608,4.156854,29.09,0.2,1.71,11.62
49.319811,4.157104,29,-1.88,1.54,8.41
49.319811,4.157104,29,0.17,2.73,9.14
49.320013,4.157354,28.88,0.34,1.68,9.83
49.320013,4.157354,28.88,-0.54,1.01,9.26
49.320215,4.1576,28.74,0.52,0.95,8.29
49.320215,4.1576,28.74,0.11,1.34,9.74
49.320417,4.157843,28.73,-0.21,0.77,10.61
49.320417,4.157843,28.73,-1.23,1,9.38
49.320619,4.158093,28.76,-0.64,1.02,11.22
49.320619,4.158093,28.76,-0.1,0.84,9.5
49.320822,4.158339,28.76,0.66,0.98,10.15
49.320822,4.158339,28.76,0.63,1.65,12.42
49.321025,4.158586,28.91,0.24,1.52,10.15
49.321025,4.158586,28.91,-0.17,1.44,9.1
49.321229,4.158834,29.14,0.14,1.87,9.11
49.321229,4.158834,29.14,0.4,2.14,11.06
49.321436,4.159085,29.25,0.72,0.72,10.04
49.321436,4.159085,29.25,-1.68,2.06,8.2
49.321644,4.159337,29.3,-0.23,1.11,8.68
49.321644,4.159337,29.3,-1.15,0.1,10.74
49.321851,4.159588,28.97,-0.28,1.27,8.19
49.321851,4.159588,28.97,-0.34,0.96,9.08
49.322055,4.159835,28.63,-0.27,0.51,10.54
49.322055,4.159835,28.63,-0.32,0.59,10.45
49.322255,4.160075,28.38,-0.84,0.46,9.73
49.322255,4.160075,28.38,-0.91,1.57,9.73
49.322455,4.160318,28.32,0.05,2.03,11.21
49.322455,4.160318,28.32,0.19,1.2,10.04
49.322653,4.16056,28.3,-1.16,2.08,11.13
49.32285,4.160803,28.26,-0.9,0.32,11.09
49.32285,4.160803,28.26,-0.04,1.32,9.46
49.323048,4.161043,28.27,-0.76,1.37,10.27
49.323048,4.161043,28.27,-1.03,1.08,10.55
49.323248,4.161281,28.16,-1.08,1.42,8.82
49.323248,4.161281,28.16,0.34,1.3,9.66
49.323444,4.161521,28.14,-0.49,1.68,10.52
49.323444,4.161521,28.14,-0.53,1.67,8.74
49.323641,4.161761,28.17,0.66,1.39,9.62
49.323641,4.161761,28.17,-0.19,2.11,8.79
49.323838,4.162003,28.17,-0.89,1.06,11.36
49.323838,4.162003,28.17,-0.09,1.44,8.37
49.324036,4.162246,28.22,-0.57,1.45,10.64
49.324036,4.162246,28.22,-0.05,1.63,9.96
49.324237,4.162488,28.23,-0.77,1.9,8.32
49.324237,4.162488,28.23,-0.97,1.42,10.08
49.324437,4.162731,28.24,-0.79,1.06,10.43
49.324437,4.162731,28.24,-0.34,0.78,10.01
49.324634,4.162972,28.03,-0.78,1.42,11.47
49.324634,4.162972,28.03,-0.06,1.49,11.36
49.324831,4.163211,27.97,0.16,0.75,6.78
49.324831,4.163211,27.97,0.44,1.65,8.49
49.325027,4.163451,28.03,-0.42,1.74,8.48
49.325027,4.163451,28.03,0.72,1.33,10.69
49.325224,4.163693,28.18,0.33,1.59,10.48
49.325224,4.163693,28.18,-0.29,1.96,8.06
49.325425,4.163934,28.35,-0.6,1.29,9.31
49.325425,4.163934,28.35,-0.08,1.58,10.37
49.325626,4.16418,28.44,0.23,1.16,9.91
49.325626,4.16418,28.44,-0.45,1.14,9.99
49.325828,4.164427,28.52,-0.39,1.23,9.87
49.325828,4.164427,28.52,0.49,0.33,8.73
49.326031,4.164672,28.55,-0.31,0.62,8.53
49.326031,4.164672,28.55,-1.02,0.33,10.61
49.326232,4.164913,28.08,0.19,1.02,9.92
49.326232,4.164913,28.08,-0.61,1.49,8.58
49.32643,4.16515,27.75,0.02,1.1,10.1
49.32643,4.16515,27.75,-0.73,0.52,9.83
49.326625,4.165381,27.86,-1.05,0.59,9.6
49.326625,4.165381,27.86,-0.67,1.11,10.42
49.32682,4.165623,28.12,-0.69,2.08,10.47
49.32682,4.165623,28.12,-0.43,2.26,9.8
49.327019,4.165867,28.38,-1.18,1.52,8.47
49.327019,4.165867,28.38,-0.66,2.62,9.92
49.327221,4.166108,28.64,-0.75,2.48,9.81
49.327425,4.166353,28.88,-0.95,1.55,10.1
49.327425,4.166353,28.88,0.24,1.06,10.42
49.327628,4.166599,29.07,-0.06,1.13,10.96
49.327628,4.166599,29.07,-0.03,1.36,10.22
49.327835,4.166847,29.14,-1.09,0.97,9.72
49.327835,4.166847,29.14,-0.28,2.12,9.45
49.328042,4.167097,29.22,0.94,1.77,10.99
49.328042,4.167097,29.22,-0.93,0.89,9.7
49.328248,4.167346,29.29,0.09,2.01,10.97
49.328248,4.167346,29.29,0.81,1.33,10.02
49.328454,4.167595,28.98,-1.32,1.41,8.75
49.328454,4.167595,28.98,0.08,1.86,7.97
49.328659,4.167841,28.67,-1.33,2.02,8.28
49.328659,4.167841,28.67,0.2,2.2,8.83
49.328861,4.168086,28.73,-1.51,0.83,9.1
49.328861,4.168086,28.73,0.09,1.93,9.92
49.32906,4.168333,28.65,-0.82,1.33,8.02
49.32906,4.168333,28.65,0.27,0.76,7.38
49.329261,4.168581,28.57,-1.61,2.22,8.52
49.329261,4.168581,28.57,-1.08,1.46,9.04
49.329463,4.168825,28.56,0.15,1.02,11.84
49.329463,4.168825,28.56,0.28,0.73,6.81
49.329664,4.169065,28.19,-0.94,1.66,9.12
49.329664,4.169065,28.19,-0.27,1.58,9.98
49.329863,4.169301,27.98,-0.79,1.21,9.46
49.329863,4.169301,27.98,-0.1,-0.06,11.76
49.33006,4.169539,27.7,-0.07,0.58,11.02
49.33006,4.169539,27.7,0.32,1.87,8.66
49.330255,4.169777,27.64,-0.4,1.52,9.2
49.330255,4.169777,27.64,-1.33,1.32,8.43
49.330449,4.170017,27.63,-0.57,2.92,13.05
49.330449,4.170017,27.63,-0.43,2.02,8.94
49.330644,4.170254,27.65,0.51,2.49,10.63
49.330644,4.170254,27.65,-0.38,0.65,11.92
49.33084,4.17049,27.85,-0.52,1.37,12.36
49.33084,4.17049,27.85,-0.61,1.45,8.96
49.331035,4.170731,27.93,-0.55,1.84,9.65
49.331035,4.170731,27.93,-1.05,1.41,11.5
49.331231,4.170972,27.92,0.93,0.57,9.01
49.331231,4.170972,27.92,-0.62,1.89,10.43
49.331427,4.171212,28.01,-1.11,2.15,7.11
49.331625,4.17145,27.96,-0.43,1.41,10.55
49.331625,4.17145,27.96,-0.96,1.67,9.27
49.331823,4.171688,27.89,-1.04,0.23,10.64
49.331823,4.171688,27.89,-0.89,1.28,10.52
49.33202,4.171925,27.84,-0.32,2.39,9.32
49.33202,4.171925,27.84,-1.49,1.3,8.72
49.332216,4.172162,27.74,0.35,1.65,9.27
49.332216,4.172162,27.74,0.19,1.54,9.84
49.332412,4.172397,27.71,0.21,1.13,9.95
49.332412,4.172397,27.71,-0.84,1.76,10.16
49.332607,4.172633,27.81,-1.34,0.89,10.36
49.332607,4.172633,27.81,-0.87,0.68,9.19
49.332804,4.172872,27.98,-0.7,0.96,10.86
49.332804,4.172872,27.98,-0.74,2.13,9.99
49.333,4.173111,28.24,-0.76,1.72,8.55
49.333,4.173111,28.24,-0.95,2,9.49
49.333199,4.173353,28.42,-1.13,2.32,8.67
49.333199,4.173353,28.42,-0.08,1.57,9.16
49.333399,4.173595,28.6,1.29,2.04,8.88
49.333399,4.173595,28.6,-0.62,1.92,9.12
49.333602,4.173841,28.7,0.01,1.92,9.54
49.333602,4.173841,28.7,-0.66,2.18,8.74
49.333804,4.174088,28.86,-0.3,1.36,6.79
49.333804,4.174088,28.86,-0.79,0.98,9.42
49.334007,4.174335,29,0.18,1.13,10.46
49.334007,4.174335,29,-0.22,1.09,11.13
49.334212,4.174584,29.05,-1.5,0.68,6.84
49.334212,4.174584,29.05,0.29,1.27,10.27
49.334416,4.174833,28.99,-1.12,1.51,9.15
49.334416,4.174833,28.99,-0.65,0.55,7.39
49.334622,4.175081,29.1,0.04,0.63,9.34
49.334622,4.175081,29.1,-0.86,0.69,8.39
49.33483,4.175328,29.17,-0.58,0.8,9.31
49.33483,4.175328,29.17,0.29,2.06,7.9
49.335036,4.175572,29.24,-0.88,0.86,11.36
49.335036,4.175572,29.24,-0.92,1.73,9.45
49.335243,4.175819,29.31,-0.74,1.4,9.74
49.335449,4.176071,28.84,0.07,0.59,10.41
49.335449,4.176071,28.84,-1.03,0.89,8.99
49.335655,4.176317,28.73,-0.62,1.26,8.75
49.335655,4.176317,28.73,-0.69,1.22,9.19
49.335859,4.176562,28.83,1.26,0.98,9.33
49.335859,4.176562,28.83,-0.33,1.1,8.58
49.336062,4.176807,28.59,-0.39,2.45,7.77
49.336062,4.176807,28.59,-1.1,1.55,9.47
49.336263,4.177051,28.59,-1.35,0.8,7.7
49.336263,4.177051,28.59,-0.34,1.99,9.26
49.336464,4.177296,28.7,-0.05,0.96,7.75
49.336464,4.177296,28.7,0.68,1.34,8.24
49.336667,4.17754,28.86,-0.45,0.38,7.07
49.336667,4.17754,28.86,-1.46,1.58,9.87
49.33687,4.177787,28.93,-0.86,1.31,11.18
49.33687,4.177787,28.93,-0.94,1.79,8.07
49.337074,4.178028,28.81,0.05,1.83,10.57
49.337074,4.178028,28.81,-0.08,1.65,11.14
49.337278,4.17827,28.82,-1.39,1.65,11.37
49.337278,4.17827,28.82,-0.67,2.22,9.35
49.337483,4.178515,28.82,-0.11,1.52,8.91
49.337483,4.178515,28.82,0.3,1.51,9.37
49.337687,4.178757,28.81,-0.42,0.96,10.59
49.337687,4.178757,28.81,-0.94,0.93,8.53
49.337889,4.179,28.7,-0.67,1.09,10.1
49.337889,4.179,28.7,-0.21,1.22,10.67
49.338093,4.17924,28.68,-0.71,0.68,8.77
49.338093,4.17924,28.68,-0.66,0.54,11.4
49.338296,4.179487,28.71,-0.42,0.84,10.07
49.338296,4.179487,28.71,0.17,0.83,10.42
49.338499,4.179733,28.57,-0.86,0.32,9.72
49.338499,4.179733,28.57,-0.45,0.49,9.39
49.338697,4.179982,28.34,-1.43,1.26,9.61
49.338697,4.179982,28.34,0.16,1.13,10.08
49.338896,4.180226,27.89,-0.92,-0.04,10.2
49.338896,4.180226,27.89,-0.77,0.45,12.48
49.339092,4.180457,27.62,-0.45,1.39,12.83
49.339092,4.180457,27.62,-0.47,1.44,9.12
49.339286,4.180694,27.5,-0.15,1.43,10.46
49.339286,4.180694,27.5,-0.22,0.83,10.13
49.339481,4.180932,27.79,0.86,1.95,9.78
49.339677,4.181176,28.24,0.45,1.55,10.18
49.339677,4.181176,28.24,-1.25,2.44,6.94
49.339877,4.181419,28.36,-0.16,1.62,7.21
49.339877,4.181419,28.36,-0.94,1.51,9.84
49.340078,4.18166,28.28,-0.13,0.95,10.29
49.340078,4.18166,28.28,0.04,1.35,13.51
49.340278,4.181901,28.33,0.04,1.94,12.16
49.340278,4.181901,28.33,-0.82,1.77,10.36
49.340478,4.182145,28.48,-1.49,0.84,9.86
49.340478,4.182145,28.48,-0.8,1.14,9.62
49.340678,4.182391,28.61,-1.11,1.1,10.31
49.340678,4.182391,28.61,0.34,0.83,8.33
49.34088,4.182636,28.75,-0.31,0.67,11.65
49.34088,4.182636,28.75,-0.82,0.99,9.02
49.341082,4.182883,28.8,-1.38,1.57,9.48
49.341082,4.182883,28.8,0.09,0.83,10.41
49.341285,4.183129,28.75,0.15,1.7,9.71
49.341285,4.183129,28.75,-0.83,1.48,10.03
49.341486,4.183373,28.5,-0.39,0.82,11.97
49.341486,4.183373,28.5,-0.85,0.32,8.47
49.341686,4.183613,28.23,0.28,0.18,9.89
49.341686,4.183613,28.23,-0.91,0.29,9.13
49.341884,4.183854,27.97,0.41,-0.08,10
49.341884,4.183854,27.97,-0.81,1.06,9.65
49.34208,4.184094,27.81,-1.33,1.49,8
49.34208,4.184094,27.81,-1,1.12,10.59
49.342277,4.184332,27.87,-0.84,0.69,11.81
49.342277,4.184332,27.87,-0.94,0.93,10.34
49.342474,4.184571,28.05,-0.81,1.51,9.05
49.342474,4.184571,28.05,-1.32,1.1,5.9
49.342674,4.184812,28.16,-1.43,1.02,7.41
49.342674,4.184812,28.16,-0.02,2.57,8.98
49.342873,4.185054,28.25,-0.25,1.16,8.63
49.342873,4.185054,28.25,0.6,1.94,10.07
49.343074,4.185298,28.29,-1.08,0.43,11.6
49.343074,4.185298,28.29,-0.79,0.93,9.76
49.343273,4.185538,28.18,-0.1,0.23,9.37
49.343273,4.185538,28.18,0.11,1.17,11.83
49.34347,4.185782,28.24,-0.32,1.08,10.73
49.34347,4.185782,28.24,-0.59,1.14,9.53
49.343667,4.186028,28.38,-0.86,1.14,10.39
49.343667,4.186028,28.38,-1.32,2.17,9.4
49.343867,4.18627,28.36,-1.56,1.34,9.15
49.344067,4.186509,28.31,-1.03,1.33,9.72
49.344067,4.186509,28.31,-0.74,0.91,10.37
49.344266,4.186751,28.36,0.11,0.68,10.82
49.344266,4.186751,28.36,0.54,1.64,11.23
49.344464,4.186993,28.45,-1.08,1.34,10.48
49.344464,4.186993,28.45,-0.82,1.86,10.44
49.344665,4.187235,28.67,0.48,1.85,9.66
49.344665,4.187235,28.67,0.02,1.63,11.49
49.344868,4.187479,28.83,-0.61,2.09,10.64
49.344868,4.187479,28.83,-0.68,2.25,9.33
49.345073,4.187726,29,0.18,1.75,8.99
49.345073,4.187726,29,-0.83,0.92,9.75
49.345277,4.187975,29.06,-1.07,0.84,9.96
49.345277,4.187975,29.06,-0.81,2.11,9.58
49.345483,4.188225,29.07,-0.25,1.42,10.67
49.345483,4.188225,29.07,-0.84,2.21,10.15
49.345688,4.188476,29.08,-0.66,2.01,7.02
49.345688,4.188476,29.08,-0.35,0.81,9.39
49.345894,4.188725,29.08,0.24,0.2,10.05
49.345894,4.188725,29.08,-0.25,1.3,10.36
49.3461,4.188975,29.03,0.8,1.23,9.58
49.3461,4.188975,29.03,-0.35,1.49,10.51
49.346304,4.189226,28.98,-0.71,2.1,9.17
49.346304,4.189226,28.98,-1.33,1.57,8.66
49.346507,4.189476,28.84,0.11,1.66,9.18
49.346507,4.189476,28.84,-0.41,0.6,9.24
49.346706,4.18973,28.71,0.5,0.91,10.88
49.346706,4.18973,28.71,1.01,0.9,10.19
49.346904,4.189989,28.89,1.69,1.32,10.72
49.346904,4.189989,28.89,0.41,1.24,8.48
49.347102,4.190246,29.11,0.8,1.31,11.38
49.347102,4.190246,29.11,0.75,1.86,9.81
49.34729,4.190522,29.28,1.25,1.78,7.73
49.34729,4.190522,29.28,1,0.41,10.55
49.347468,4.190818,29.06,-0.18,-0.1,11.74
49.347468,4.190818,29.06,0.7,-0.27,11.03
49.347633,4.191126,28.7,0.3,0.04,12.63
49.347633,4.191126,28.7,-0.18,0,10.18
49.347792,4.191439,28.41,0.26,0.96,10.64
49.347943,4.191742,28.25,1.51,0.61,9.38
49.347943,4.191742,28.25,0.86,1.68,9.38
49.348093,4.192047,28.14,0.32,1.51,7.85
49.348093,4.192047,28.14,0.3,0.73,7.72
49.34823,4.192371,27.86,0.17,1.61,9.01
49.34823,4.192371,27.86,0.98,1.47,9.89
49.348344,4.192712,27.7,0.36,1.71,8.21
49.348344,4.192712,27.7,0.32,2.36,8.71
49.348456,4.193057,27.86,0.17,1.56,9.06
49.348456,4.193057,27.86,0.74,0.79,10.34
49.348557,4.193402,28.02,0.73,1.18,10
49.348557,4.193402,28.02,-0.6,0.89,9.72
49.348646,4.193761,28.19,0.33,1.76,9.05
49.348646,4.193761,28.19,1.28,2.25,8.35
49.348725,4.194134,28.34,0.79,1.49,9.67
49.348725,4.194134,28.34,1.22,1.32,8.61
49.348793,4.194508,28.54,-0.47,1.7,7.15
49.348793,4.194508,28.54,1.42,1.98,9.44
49.348847,4.194892,28.98,0.09,2.16,9.01
49.348847,4.194892,28.98,-0.52,1.27,9.74
49.348902,4.195283,29.28,0.11,1.14,9.73
49.348902,4.195283,29.28,-1.17,1.14,9.95
49.348954,4.195679,29.48,-0.25,0.54,10.76
49.348954,4.195679,29.48,0.29,0.51,12.92
49.348996,4.196078,29.09,0.57,1.01,11.55
49.348996,4.196078,29.09,-1.26,0.47,8.63
49.349037,4.196474,28.76,-0.71,0.42,10.87
49.349037,4.196474,28.76,-0.47,1.21,9.91
49.349077,4.196868,28.71,0.1,1.27,10.11
49.349077,4.196868,28.71,-0.88,1.1,10.88
49.349116,4.197263,28.79,-0.97,1.28,9.46
49.349116,4.197263,28.79,-0.93,1.38,9.12
49.349156,4.197655,28.74,-1.38,0.9,7.53
49.349156,4.197655,28.74,-1.31,1.8,9.94
49.349203,4.198044,28.86,-0.9,0.92,9.61
49.349203,4.198044,28.86,-1.78,0.76,7.59
49.34926,4.198429,28.97,-1.28,1.05,10.78
49.34926,4.198429,28.97,-1.47,1.58,9.35
49.349324,4.198812,28.92,-1.1,1.62,9.62
49.349396,4.199193,29.15,-0.94,1.41,7.76
49.349396,4.199193,29.15,-0.7,2.04,7.99
49.349489,4.19957,29.01,-1.82,1.12,8.87
49.349489,4.19957,29.01,-1.61,0.58,10.51
49.349593,4.199941,29.01,-1.71,0.84,9.48
49.349593,4.199941,29.01,-1.08,2,10.92
49.349701,4.200309,28.86,-2.04,1.47,10.13
49.349701,4.200309,28.86,-0.91,1.56,10.27
49.349812,4.200671,28.77,-1.56,1.6,7.97
49.349812,4.200671,28.77,-1.86,1.38,7.26
49.349932,4.201028,28.77,-1.22,1.26,9.43
49.349932,4.201028,28.77,-0.26,2.02,9.39
49.350063,4.201371,28.53,-0.74,0.79,10.01
49.350063,4.201371,28.53,-1.65,0.48,10.99
49.350206,4.201693,28.53,-0.54,0.5,11.72
49.350206,4.201693,28.53,-1.18,0.83,10.05
49.35036,4.202008,28.61,-0.82,0.29,11.36
49.35036,4.202008,28.61,-0.42,0.91,9.36
49.350522,4.20232,28.6,-1.64,2.49,8.21
49.350522,4.20232,28.6,-0.66,0.86,9.09
49.350692,4.202622,28.56,-1.69,1.04,12.37
49.350692,4.202622,28.56,-1.88,-0.29,8.5
49.350866,4.202911,28.56,-0.72,2.02,10.53
49.350866,4.202911,28.56,-0.76,1.09,9.77
49.35105,4.203186,28.45,-1.1,1.51,10.5
49.35105,4.203186,28.45,-1.56,0.19,10.26
49.351242,4.203447,28.47,-2.3,-0.29,11.47
49.351242,4.203447,28.47,-0.98,0.82,9.81
49.351442,4.203696,28.46,-1.2,0.22,11
49.351442,4.203696,28.46,0.65,1.22,10.34
49.351642,4.203944,28.44,-1,1.54,8.55
49.351642,4.203944,28.44,-1.52,1.79,9.39
49.351843,4.204183,28.45,-1.74,0.9,10.13
49.351843,4.204183,28.45,-1.4,1.39,11.29
49.352055,4.204406,28.3,0.11,1.58,10.77
49.352055,4.204406,28.3,-1.13,0.61,10.84
49.352277,4.204609,28.36,-0.45,2.09,11.21
49.352277,4.204609,28.36,-1.53,1.22,9.59
49.352504,4.20478,28.22,-0.96,2.41,9.14
49.352731,4.204942,28.32,-1.51,2.34,8.16
49.352731,4.204942,28.32,-0.94,1.45,9.79
49.352968,4.205092,28.38,-0.9,2.6,9.36
49.352968,4.205092,28.38,-0.45,1.71,8.95
49.353206,4.205236,28.35,-0.4,1.63,9.76
49.353206,4.205236,28.35,-0.55,1.03,11.6
49.353445,4.205374,28.3,0.03,0.91,10.98
49.353445,4.205374,28.3,-1.39,1.22,9.36
49.353688,4.205517,28.35,-1.4,1.54,9.71
49.353688,4.205517,28.35,-1.13,0.79,8.93
49.353929,4.20565,28.35,-0.17,1.08,11.28
49.353929,4.20565,28.35,-0.76,0.91,10.19
49.354173,4.20578,28.49,-0.37,1.62,8.63
49.354173,4.20578,28.49,-0.3,1.25,10.73
49.354417,4.205906,28.53,0.37,1.11,11.69
49.354417,4.205906,28.53,0.22,1.19,10.07
49.35466,4.206038,28.72,-0.45,1.27,9.27
49.35466,4.206038,28.72,-0.56,1.45,11.02
49.354904,4.206174,28.68,-0.49,1.35,10.39
49.354904,4.206174,28.68,-2.07,1.78,8.94
49.355148,4.206309,28.79,-1.68,1.99,9.47
49.355148,4.206309,28.79,-0.76,1.28,9.01
49.355395,4.206438,28.79,-0.31,0.8,11.13
49.355395,4.206438,28.79,-1.07,1.5,9.86
49.355645,4.206558,28.63,-2.02,0.42,10.99
49.355645,4.206558,28.63,-1,0.81,10.22
49.355886,4.20667,28.39,0.11,0.36,10.98
49.355886,4.20667,28.39,0.38,0.36,11.08
49.356126,4.206776,28.46,0.24,1.86,11.25
49.356126,4.206776,28.46,-0.89,1.07,10.18
49.356374,4.206884,28.61,-1.66,0.98,8.5
49.356374,4.206884,28.61,-1.23,0.36,10.95
49.356621,4.206994,28.77,-0.44,1.48,9.28
49.356621,4.206994,28.77,-1.74,1.6,8.76
49.35687,4.207096,28.86,-1.84,1.78,8.2
49.35687,4.207096,28.86,-1.4,1.13,11.93
49.357124,4.207191,28.68,-0.72,1.09,10.41
49.357124,4.207191,28.68,-1.64,0.98,10.09
49.357377,4.20728,28.57,-1.47,0.77,9.71
49.357377,4.20728,28.57,-0.5,1.45,9.62
49.357625,4.207367,28.55,-1.39,0.78,6.14
49.357625,4.207367,28.55,-1.08,1.94,8.48
49.357874,4.207449,28.24,-1.5,1.42,10.47
49.358122,4.207526,28.16,-0.05,1.58,10
49.358122,4.207526,28.16,-0.03,0.52,8.75
49.358372,4.2076,28.11,-0.59,1.64,9.68
49.358372,4.2076,28.11,-0.97,1.3,10.66
49.358623,4.207668,28.09,0.47,1.58,10.96
49.358623,4.207668,28.09,-0.23,1.83,9.14
49.358867,4.207737,28.12,-2.01,1.75,10.24
49.358867,4.207737,28.12,-2.09,1.58,11.07
49.359114,4.2078,28.07,0.29,1.09,10.78
49.359114,4.2078,28.07,-0.32,1.43,10.42
49.359368,4.207852,28.12,-1.45,1.75,10.11
49.359368,4.207852,28.12,-1.15,2.23,11
49.359622,4.207905,28.17,-0.03,1.34,8.62
49.359622,4.207905,28.17,-0.08,1.56,8.97
49.359875,4.207957,28.35,-0.18,1.39,9.87
49.359875,4.207957,28.35,-0.09,1.82,9.42
49.360133,4.208006,28.36,-1.5,1.62,7.85
49.360133,4.208006,28.36,-0.37,1.13,9.29
49.360392,4.208055,28.29,-2.12,1.86,9.39
49.360392,4.208055,28.29,-0.75,1.18,11.99
49.36064,4.208096,28.35,-1.44,1.35,10.04
49.36064,4.208096,28.35,0.16,0.79,10.87
49.360891,4.20813,28.21,-0.66,1.3,10.59
49.360891,4.20813,28.21,-0.21,1.23,10.05
49.361141,4.208159,28.06,-0.96,1.6,10.69
49.361141,4.208159,28.06,0.21,1.82,10.56
49.36139,4.208182,28.21,0.01,1.02,9.61
49.36139,4.208182,28.21,0.39,1.56,8.63
49.361642,4.208205,28.23,0.23,0.95,5.06
49.361642,4.208205,28.23,0.13,2.26,9.15
49.361894,4.208237,28.2,1.82,1.51,9.51
49.361894,4.208237,28.2,0.68,0.76,9.93
49.362145,4.208278,28.15,0.52,1.66,10.42
49.362145,4.208278,28.15,0.44,1.94,11.92
49.362396,4.208337,28.02,0.52,0.6,9.01
49.362396,4.208337,28.02,1.75,1.85,7.59
49.362643,4.20841,27.98,0.9,1.65,9.4
49.362643,4.20841,27.98,1.07,2.69,12.37
49.362886,4.208498,27.84,-0.47,1.98,10.56
49.363122,4.208607,27.85,-0.27,1.42,10.31
49.363122,4.208607,27.85,1.35,1.17,8.71
49.363356,4.208732,27.76,-0.27,1.24,10.99
49.363356,4.208732,27.76,0.37,1.56,9.29
49.363583,4.208873,27.75,0.67,1.36,8.53
49.363583,4.208873,27.75,0.32,1.68,8.47
49.363815,4.209022,27.82,1.16,1.9,8.52
49.363815,4.209022,27.82,1.9,1.33,7.31
49.364046,4.209197,27.68,1.38,1.81,8.14
49.364046,4.209197,27.68,0.04,1.14,12.94
49.36427,4.209387,27.71,0.25,2.03,7.45
49.36427,4.209387,27.71,-0.56,1.48,10.4
49.364486,4.209581,27.69,0.39,1.8,9.57
49.364486,4.209581,27.69,-0.1,1.02,8.81
49.364694,4.209787,27.64,0.92,1.47,8.36
49.364694,4.209787,27.64,-0.61,1.66,9.75
49.364902,4.209993,27.65,-0.91,1.85,11.76
49.364902,4.209993,27.65,0.11,1.08,7.72
49.365109,4.210204,27.79,-0.21,2.16,8.82
49.365109,4.210204,27.79,-0.55,2.09,9.81
49.365319,4.210413,27.84,-0.15,1.26,12.13
49.365319,4.210413,27.84,-0.59,1.61,9.5
49.365528,4.21062,27.93,0.47,1.89,9.79
49.365528,4.21062,27.93,-0.12,1.32,9.78
49.365738,4.21083,28,0.22,1.93,8.32
49.365738,4.21083,28,-1.21,0.54,11.28
49.365949,4.211043,28.15,-1.76,1.46,9.2
49.365949,4.211043,28.15,-1.07,1.25,9.05
49.36616,4.211258,28.24,-0.75,2.27,11.21
49.36616,4.211258,28.24,-1.02,1.67,9.28
49.366372,4.211474,28.3,1.61,2.95,10.39
49.366372,4.211474,28.3,-0.63,1.6,9.99
49.366584,4.211685,28.38,-1.39,0.92,9.58
49.366584,4.211685,28.38,-2.01,1.05,9.76
49.366797,4.211898,28.37,-1.24,1.31,11.31
49.366797,4.211898,28.37,-1.34,0.73,10.73
49.367012,4.21211,28.38,-0.82,0.77,10.32
49.367227,4.212314,28.25,-0.63,0.85,7.78
49.367227,4.212314,28.25,-1.22,1.56,8.84
49.367441,4.212523,28.47,-0.68,1.99,12.97
49.367441,4.212523,28.47,0.54,0.96,7.55
49.367654,4.212733,28.48,-1.02,1.77,8.79
49.367654,4.212733,28.48,-2.27,0.4,6.89
49.367871,4.212943,28.47,-1.31,0.57,9.84
49.367871,4.212943,28.47,0.42,2.03,12.23
49.368095,4.213154,28.58,-0.36,0.51,11.16
49.368095,4.213154,28.58,-1.34,1.25,8.42
49.368313,4.213367,28.67,-0.61,1.45,9.13
49.368313,4.213367,28.67,-0.45,0.8,8.49
49.368531,4.213575,28.69,0.23,1.21,11.15
49.368531,4.213575,28.69,-0.23,1.66,9.74
49.36875,4.213783,28.77,-0.55,1.49,10.79
49.36875,4.213783,28.77,-1.12,0.67,10.42
49.368968,4.213996,28.88,-0.34,2.09,10.29
49.368968,4.213996,28.88,-0.12,1.58,11.84
49.369184,4.214212,28.96,-0.81,1.75,10.13
49.369184,4.214212,28.96,0.43,2.04,9.83
49.369404,4.214425,29.11,0.1,0.51,10.09
49.369404,4.214425,29.11,-0.45,1.58,9.29
49.36963,4.214643,29.17,-0.16,1.74,9.8
49.36963,4.214643,29.17,-1.86,-0.16,11.53
49.369854,4.214858,29.12,-1.15,1.11,8.64
49.369854,4.214858,29.12,0.07,1.45,7.9
49.370074,4.215073,28.71,-1.37,1.49,11.16
49.370074,4.215073,28.71,-0.22,1.67,9.97
49.370291,4.215286,28.79,-0.78,1.34,13.33
49.370291,4.215286,28.79,-0.34,0.46,8.77
49.370509,4.2155,28.88,-0.06,0.92,9.25
49.370509,4.2155,28.88,1.27,2.35,10.59
49.37073,4.215711,28.93,-0.8,0.71,11.01
49.37073,4.215711,28.93,0.27,1.49,11.56
49.370952,4.215924,29.12,0.8,1.73,11.14
49.370952,4.215924,29.12,-0.26,1.45,12.66
49.371178,4.216136,29.22,-1.41,0.27,6.91
49.371403,4.216349,29.3,0.1,1.92,12.65
49.371403,4.216349,29.3,-2.4,1.17,12.57
49.371628,4.216563,29.31,0.52,1.75,7.55
49.371628,4.216563,29.31,0.62,1.07,8.66
49.371851,4.216781,29.27,-0.84,0.77,11.04
49.371851,4.216781,29.27,0.34,1.85,13.53
49.372073,4.216994,29.24,-1.67,1.23,7.67
49.372073,4.216994,29.24,-0.78,1.23,8.51
49.372292,4.217213,29.17,0.33,0.76,11.35
49.372292,4.217213,29.17,-0.41,1.42,8.84
49.372514,4.217427,29.13,-0.78,1.81,8.5
49.372514,4.217427,29.13,-0.22,2.11,10.49
49.372736,4.217643,29.18,-1.03,2.22,7.26
49.372736,4.217643,29.18,-0.68,1.14,7.89
49.372959,4.217859,29.23,-1.68,1.67,7.02
49.372959,4.217859,29.23,-0.11,1.46,8.88
49.373181,4.218072,29.32,-1.24,2.75,8.44
49.373181,4.218072,29.32,0.57,1.85,12.48
49.373402,4.218292,29.41,-1.81,1.21,10.69
49.373402,4.218292,29.41,-0.86,1.24,10.58
49.373626,4.218513,29.49,-0.81,1.94,9.45
49.373626,4.218513,29.49,-0.5,0.84,9.41
49.373848,4.218739,29.57,-0.08,1.24,10.13
49.373848,4.218739,29.57,-0.07,1.43,10.47
49.374074,4.218957,29.61,-0.93,0.22,10.37
49.374074,4.218957,29.61,-0.34,1,9.45
49.374297,4.219175,29.18,0.38,2.69,12.11
49.374297,4.219175,29.18,-0.49,1.72,10.26
49.374516,4.21939,28.83,-1.02,1.85,6.62
49.374516,4.21939,28.83,0.19,1.8,9.61
49.374734,4.219599,28.76,0.41,0.82,11.55
49.374734,4.219599,28.76,0.57,1,10.07
49.374953,4.219811,28.75,-0.67,0.93,12.55
49.374953,4.219811,28.75,-0.4,0.93,9.81
49.375173,4.220026,28.79,-0.42,0.52,9.57
49.375173,4.220026,28.79,-0.57,1.63,10.52
49.375388,4.220243,28.82,-1.28,1.58,9.28
49.375388,4.220243,28.82,0.34,0.78,11.69
49.375601,4.220463,28.9,-0.3,1.19,10.36
49.375821,4.220681,28.94,-0.11,1.7,5.23
49.375821,4.220681,28.94,0.1,0.96,8.99
49.376043,4.220899,28.96,-0.03,0.62,11.2
49.376043,4.220899,28.96,-1.09,0.8,11.1
49.376263,4.221109,29.01,-0.92,1.04,11.3
49.376263,4.221109,29.01,-1.5,1.34,8.52
49.376487,4.221318,29.12,0.03,2.19,12.97
49.376487,4.221318,29.12,-1.34,1.35,7.8
49.376714,4.221524,29.16,-0.11,1.01,10.11
49.376714,4.221524,29.16,0.72,1.36,9.46
49.376937,4.221728,29.15,0.26,0.26,8.89
49.376937,4.221728,29.15,-0.06,1.26,10.73
49.37716,4.221934,28.77,1.31,1.33,11.45
49.37716,4.221934,28.77,0.12,1.81,9.59
49.37738,4.22214,28.67,0.33,1.41,12.08
49.37738,4.22214,28.67,-0.16,1.47,10.22
49.377596,4.22235,28.78,-0.84,1.35,7.71
49.377596,4.22235,28.78,-0.02,1.97,10.55
49.377811,4.222561,28.87,0.4,1.89,8.7
49.377811,4.222561,28.87,0.02,0.51,10.18
49.378031,4.222773,28.98,0.51,0.66,8.58
49.378031,4.222773,28.98,0.51,0.38,11.05
49.378253,4.222986,29.02,-1.36,1.03,9.52
49.378253,4.222986,29.02,0.65,1.28,9.28
49.378478,4.223199,29.03,0.37,1.4,12.97
49.378478,4.223199,29.03,0.1,1.58,9.18
49.378701,4.223411,28.94,-1.05,1.2,9.4
49.378701,4.223411,28.94,0.34,1.66,8.88
49.378918,4.223623,28.89,0.52,0.9,8.29
49.378918,4.223623,28.89,-0.19,0.32,13.76
49.379131,4.22384,28.78,-0.48,0.65,10.37
49.379131,4.22384,28.78,0.92,-0.11,10.12
49.379345,4.224058,28.78,0.54,1.6,10.45
49.379345,4.224058,28.78,-0.63,2.17,10.89
49.37956,4.224273,28.76,0.75,1.24,11.75
49.37956,4.224273,28.76,1.46,1.33,11.67
49.379777,4.224488,28.65,0.79,1.55,12.1
49.379777,4.224488,28.65,-0.09,1.72,8.7
49.379991,4.224702,28.54,-1.05,1.11,12.15
49.380204,4.224914,28.45,0.07,0.83,9.57
49.380204,4.224914,28.45,-1,1,9.86
49.380418,4.225126,28.36,-0.58,0.97,10.74
49.380418,4.225126,28.36,-0.81,1.15,10.69
49.380634,4.225335,28.44,0.44,1.13,11.61
49.380634,4.225335,28.44,-1.14,1.17,7.87
49.380851,4.225543,28.55,-0.48,1.52,8.95
49.380851,4.225543,28.55,-0.31,1.4,10.57
49.381071,4.225748,28.56,0.16,0.86,13.2
49.381071,4.225748,28.56,-0.46,1.02,9.73
49.381288,4.225954,28.51,-0.03,0.14,11.92
49.381288,4.225954,28.51,-2.25,-0.1,11.54
49.381507,4.226159,28.43,-0.92,0.88,6.92
49.381507,4.226159,28.43,-0.35,1.57,9.95
49.381723,4.22636,28.36,-1.66,0.96,6.72
49.381723,4.22636,28.36,-0.68,1.32,11.97
49.381942,4.226559,28.31,-1.52,1.23,6.32
49.381942,4.226559,28.31,0.43,2.35,12.67
49.382159,4.226758,28.26,-1.1,2.3,8.4
49.382159,4.226758,28.26,0.13,1.67,9.53
49.382376,4.226963,28.25,0.25,1.42,11.88
49.382376,4.226963,28.25,-0.28,0.79,13.29
49.382583,4.227169,28.28,-0.56,1.63,8.8
49.382583,4.227169,28.28,-0.39,0.55,13.93
49.382794,4.227372,28.32,-1.17,0.16,9.19
49.382794,4.227372,28.32,-0.28,1.5,10.7
49.383011,4.227576,28.35,0.27,1.03,8.38
49.383011,4.227576,28.35,-0.45,1.55,10.41
49.383231,4.227779,28.44,0.71,0.86,12.13
49.383231,4.227779,28.44,-0.18,0.97,7.86
49.38345,4.227987,28.52,-1.77,0.81,7.46
49.38345,4.227987,28.52,-1.35,0.78,9.33
49.383671,4.228194,28.57,-0.49,1.42,11.79
49.383671,4.228194,28.57,-0.61,1.28,9.31
49.383891,4.228405,28.64,-0.79,1.5,10.94
49.383891,4.228405,28.64,-0.11,0.34,9.17
49.384112,4.228615,28.75,-0.36,1.02,8.44
49.384112,4.228615,28.75,-2.51,1.18,7.8
49.384336,4.228822,28.75,-0.95,1.29,11.19
49.384336,4.228822,28.75,-0.03,1.95,10.07
49.384558,4.22903,28.76,-1.05,1.99,9.49
49.38478,4.229233,28.79,0.23,1.86,10.43
49.38478,4.229233,28.79,-1.86,0.4,7.38
49.385005,4.229433,28.78,0.07,1.33,11.25
49.385005,4.229433,28.78,-0.26,1.65,8.77
49.385229,4.229631,28.74,-0.45,1.94,9.51
49.385229,4.229631,28.74,-0.65,0.9,10.1
49.385454,4.229826,28.71,-0.07,1.13,8.8
49.385454,4.229826,28.71,-0.53,1.47,10.41
49.38568,4.23002,28.68,-1.07,1.15,10.87
49.38568,4.23002,28.68,-0.28,0.78,8.8
49.385904,4.230216,28.6,-0.56,0.62,9.69
49.385904,4.230216,28.6,-0.76,-0.09,8.38
49.386127,4.230416,28.55,-0.15,1.02,9.7
49.386127,4.230416,28.55,-0.37,1.47,8.87
49.386348,4.230618,28.58,0.33,1.1,10.8
49.386348,4.230618,28.58,-1.24,0.8,5.31
49.386566,4.230821,28.5,-0.31,0.77,11.89
49.386566,4.230821,28.5,-1.44,0.32,9.73
49.386784,4.231025,28.38,0.4,1.69,11.04
49.386784,4.231025,28.38,-0.13,1.89,9.03
49.387001,4.23123,28.36,-0.62,2.38,9.98
49.387001,4.23123,28.36,0.34,1.83,8.5
49.387216,4.231437,28.32,-0.49,1,8.22
49.387216,4.231437,28.32,-1.06,1.71,9.69
49.387431,4.231646,28.28,-0.45,1.21,11.01
49.387431,4.231646,28.28,-0.59,1.19,12.29
49.387644,4.231856,28.25,-0.76,1.14,8.34
49.387644,4.231856,28.25,-0.31,1.92,11.75
49.387859,4.232068,28.41,0.96,1,9.63
49.387859,4.232068,28.41,0.67,0.7,11.71
49.388073,4.232277,28.41,0.14,1.65,11.53
49.388073,4.232277,28.41,-0.58,0.24,9.35
49.388283,4.23249,28.46,-0.32,1.34,12.39
49.388283,4.23249,28.46,-1.24,0.91,9.26
49.388493,4.23271,28.49,-0.73,0.92,6.41
49.388493,4.23271,28.49,-0.39,0.77,10.7
49.388704,4.232936,28.56,0.05,0.91,11.8
49.388704,4.232936,28.56,-0.74,0.71,10.33
49.388915,4.233162,28.68,-0.32,1.19,6.84
49.389127,4.233388,28.64,0.23,1,10.3
49.389127,4.233388,28.64,0.38,1.37,7.56
49.389337,4.233615,28.58,-0.52,1.67,8.15
49.389337,4.233615,28.58,0.62,1.68,7.47
49.389547,4.233845,28.62,0.74,1.97,11.21
49.389547,4.233845,28.62,0.47,1.57,10.72
49.389756,4.234079,28.58,-0.11,1.28,12.54
49.389756,4.234079,28.58,-0.15,1.24,12.99
49.389963,4.234313,28.61,0.92,2.12,11.35
49.389963,4.234313,28.61,-1.03,1.96,6.81
49.39017,4.234548,28.66,-1.46,1.25,10.64
49.39017,4.234548,28.66,-1.11,0.95,9.68
49.390376,4.234785,28.64,-1.79,1.76,7.6
49.390376,4.234785,28.64,-0.29,1.68,10.72
49.390582,4.235026,28.66,-0.6,3.11,10.5
49.390582,4.235026,28.66,-1.44,2.01,8.49
49.390787,4.235261,28.7,-0.45,1.6,13.32
49.390787,4.235261,28.7,0.86,0.76,10.74
49.390995,4.235497,28.74,-0.93,1.37,9.93
49.390995,4.235497,28.74,-1.13,0.77,9.52
49.391204,4.23573,28.65,0.52,2.45,12.1
49.391204,4.23573,28.65,0.65,1.8,11.09
49.391414,4.235961,28.64,-1.02,0.64,10.22
49.391414,4.235961,28.64,-0.92,0.51,8.55
49.39162,4.236194,28.62,-1.05,1.02,7.69
49.39162,4.236194,28.62,-1.03,0.71,11.17
49.39183,4.236422,28.63,-1.18,1.16,9.89
49.39183,4.236422,28.63,-1.14,1.25,8.72
49.39204,4.23665,28.65,-1.01,1.95,7.59
49.39204,4.23665,28.65,-1.16,1.62,7.03
49.392252,4.236874,28.66,-0.39,1.63,9.38
49.392252,4.236874,28.66,0.02,1.29,6.76
49.392467,4.237083,28.74,-0.72,1.75,9.53
49.392467,4.237083,28.74,-0.9,2.15,7.75
49.392685,4.237307,28.82,0.35,1.42,11.09
49.392685,4.237307,28.82,0.2,2.35,11.87
49.392906,4.237528,28.99,-0.23,1.69,9.57
49.392906,4.237528,28.99,-1.32,1.79,7.57
49.393127,4.23775,29.1,0.17,2.31,10.05
49.393345,4.237974,29.27,-1.31,1.32,8.73
49.393345,4.237974,29.27,0.15,1.54,10.34
49.393564,4.238197,29.33,-0.51,1.54,11.03
49.393564,4.238197,29.33,-0.25,1.51,10.14
49.393785,4.238426,29.44,-1.65,1.6,10.54
49.393785,4.238426,29.44,-0.63,1.62,9.18
49.394006,4.238653,29.41,-0.75,0.26,11.71
49.394006,4.238653,29.41,-0.34,0.78,14.03
49.394226,4.238874,28.94,-0.37,0.45,8.46
49.394226,4.238874,28.94,-1.01,1.7,9.45
49.394445,4.23909,28.9,-2.35,1.47,7.89
49.394445,4.23909,28.9,-1.24,1.16,10.45
49.394664,4.239305,29.04,-0.61,1.8,6.85
49.394664,4.239305,29.04,-1.4,0.01,9.63
49.394888,4.239515,29.05,-0.54,0.21,9.95
49.394888,4.239515,29.05,0.46,1.31,13.18
49.395109,4.239726,29.11,-0.83,1.24,8.39
49.395109,4.239726,29.11,-1.04,0.83,10.73
49.395326,4.239943,28.81,-0.59,1.03,7.27
49.395326,4.239943,28.81,0.5,1.66,9.83
49.395542,4.24016,28.82,-1.06,0.51,9.69
49.395542,4.24016,28.82,-0.74,1.68,9.67
49.395756,4.24038,28.92,0.15,0.86,11.52
49.395756,4.24038,28.92,-0.75,0.96,10.15
49.395969,4.240602,28.94,-0.75,0.61,9.76
49.395969,4.240602,28.94,0.62,1.58,10.74
49.396178,4.240825,28.84,0.31,1.54,11.55
49.396178,4.240825,28.84,-1.09,1.53,9.32
49.39639,4.24105,28.83,-0.45,1.54,10.7
49.39639,4.24105,28.83,-0.39,1.15,8.01
49.396605,4.241276,28.97,-0.27,0.24,10.93
49.396605,4.241276,28.97,-0.59,0.71,8.93
49.396823,4.241499,29.04,-0.52,0.75,9.05
49.396823,4.241499,29.04,0.31,1.58,12.73
49.397041,4.241723,29.19,-1.24,1.52,9.05
49.397041,4.241723,29.19,-0.83,1,10.61
49.39726,4.241948,29.29,-0.29,0.38,10.85
49.39726,4.241948,29.29,0.4,1.47,10.04
49.397479,4.242176,29.31,-0.67,0.8,8.69
49.397698,4.242406,29.37,0.06,0.56,14.36
49.397698,4.242406,29.37,-0.45,0.38,9.57
49.397918,4.242636,29.39,-0.17,1.67,12.15
49.397918,4.242636,29.39,-0.39,2.15,9.62
49.398139,4.242868,29.72,-1.68,1.19,9.94
49.398139,4.242868,29.72,0.66,1.81,10.21
49.398363,4.243099,30.03,-0.47,0.14,10.64
49.398363,4.243099,30.03,-0.63,0.57,7.76
49.398589,4.243331,30.04,-0.49,1,9.46
49.398589,4.243331,30.04,-1.72,-0.6,12.21
49.398812,4.243563,29.65,-0.69,1.21,10.93
49.398812,4.243563,29.65,-1.21,1.69,8.96
49.39903,4.243792,29.52,-0.3,0.45,11.32
49.39903,4.243792,29.52,-0.14,0.88,8.89
49.399248,4.244017,29.42,0.02,1,9.85
49.399248,4.244017,29.42,-0.57,1.35,9.37
49.399466,4.244242,29.47,-0.97,1.24,10.26
49.399466,4.244242,29.47,-1.25,0.01,7.68
49.399685,4.244472,29.59,-0.77,1.95,8.91
49.399685,4.244472,29.59,-1.12,0.39,12.08
49.399903,4.244704,29.61,-0.33,0.35,10.84
49.399903,4.244704,29.61,-1.12,1.87,8.59
49.400121,4.244935,29.56,-0.55,1.24,10.41
49.400121,4.244935,29.56,-0.04,1.3,11.22
49.400342,4.245162,29.56,-0.32,0.97,10.39
49.400342,4.245162,29.56,1.02,1.24,11.85
49.400562,4.245389,29.61,-1.13,1.13,11.35
49.400562,4.245389,29.61,-0.1,1.68,9.03
49.400779,4.245618,29.59,-0.68,1.79,8.87
49.400779,4.245618,29.59,-0.53,0.83,10.64
49.400993,4.245847,29.56,-0.94,1.08,10.12
49.400993,4.245847,29.56,-0.14,1.36,9.52
49.401211,4.246074,29.3,-1.3,1.19,7.21
49.401211,4.246074,29.3,0.11,1.88,9.23
49.401428,4.246304,29.21,-1.37,0.52,12.8
49.401428,4.246304,29.21,0.63,1.33,10.51
49.401645,4.24653,29.06,-0.27,0.81,9.06
49.401645,4.24653,29.06,0.23,1.82,12.24
49.401862,4.246753,28.94,-1.42,1.28,7.65
49.402076,4.246978,28.73,-0.13,1.81,9.58
49.402076,4.246978,28.73,0.2,2.47,7.83
49.402289,4.247204,28.77,-0.44,2.22,12.33
49.402289,4.247204,28.77,-0.33,1.03,10.16
49.402502,4.247431,28.85,-0.92,2.01,11.07
49.402502,4.247431,28.85,0.57,1.81,10.63
49.402716,4.247655,29.02,-0.78,1.5,7.93
49.402716,4.247655,29.02,-1.59,1.58,9.2
49.402931,4.247883,29.28,0.86,2.4,9.57
49.402931,4.247883,29.28,-0.39,1.32,12.31
49.403149,4.248112,29.52,-1.27,1.37,8.38
49.403149,4.248112,29.52,-0.15,1.44,11.05
49.403367,4.248345,29.59,-0.1,0.85,11.07
49.403367,4.248345,29.59,-1.15,1.81,7.47
49.403585,4.24858,29.68,-1.13,1.17,8.56
49.403585,4.24858,29.68,-0.77,1.97,10.7
49.403805,4.248816,29.81,0.78,1.92,10.58
49.403805,4.248816,29.81,0.27,0.66,12.64
49.404024,4.249054,29.91,-0.38,1.03,8.03
49.404024,4.249054,29.91,-0.86,1.18,8.88
49.404243,4.249298,29.98,0.21,1.13,9.76
49.404243,4.249298,29.98,-1,2.11,9.01
49.404463,4.24954,30.05,-0.82,0.2,9.76
49.404463,4.24954,30.05,-0.76,1.33,12.17
49.404684,4.249781,30.24,-0.33,0.69,10.36
49.404684,4.249781,30.24,-0.7,0.31,10.16
49.404905,4.25002,30.16,-0.79,1.45,7.82
49.404905,4.25002,30.16,-0.38,1.4,11.28
49.405123,4.250261,29.64,0.32,1.44,10.31
49.405123,4.250261,29.64,-0.44,1.24,8.77
49.40534,4.250497,29.55,-0.4,0.97,9.45
49.40534,4.250497,29.55,-0.31,0.92,10.6
49.405555,4.250736,29.57,-0.86,1.07,7.26
49.405555,4.250736,29.57,-0.96,0.68,11.57
49.405771,4.250974,29.2,0.51,1.92,11.97
49.405771,4.250974,29.2,-0.41,1.68,11.01
49.405983,4.251209,29.15,-0.67,1.49,10.49
49.405983,4.251209,29.15,-0.52,1.01,9.96
49.406196,4.251442,29.1,-0.29,1.73,9.08
49.406196,4.251442,29.1,-0.61,2.04,10.26
49.406408,4.251674,29.03,0.09,1.38,12.55
49.406618,4.251909,29.02,0.22,1.21,12.89
49.406618,4.251909,29.02,-0.83,1.59,7.56
49.406828,4.252144,28.99,0.14,1.47,12.57
49.406828,4.252144,28.99,-0.34,1.8,9.56
49.407038,4.252382,28.96,-1.79,1.69,8.5
49.407038,4.252382,28.96,-0.95,1.03,8.51
49.40725,4.252618,28.92,-0.79,0.68,10.92
49.40725,4.252618,28.92,-1.65,0.2,13.08
49.407461,4.25285,28.83,-0.66,0.68,8.53
49.407461,4.25285,28.83,-0.9,0.84,9.48
49.407671,4.25308,28.78,0.72,1.75,10.79
49.407671,4.25308,28.78,-0.42,1.78,12.22
49.407882,4.253312,28.79,-0.69,1.46,10.79
49.407882,4.253312,28.79,0.15,1.29,9.05
49.408092,4.253545,28.7,-0.22,1.24,11.96
49.408092,4.253545,28.7,-0.54,1.12,9.72
49.408303,4.253779,28.7,-0.73,0.81,11.71
49.408303,4.253779,28.7,-1.19,2.02,6.1
49.408517,4.254007,28.79,0.1,1.14,6.63
49.408517,4.254007,28.79,-0.66,1.07,8.37
49.408729,4.254239,28.91,-1.39,0.53,10.26
49.408729,4.254239,28.91,-1.45,0.87,10.44
49.408943,4.254467,29.03,-0.47,0.74,10.71
49.408943,4.254467,29.03,-0.45,0.78,10.85
49.409161,4.254691,28.99,-1.36,0.69,10.21
49.409161,4.254691,28.99,-1.18,0.41,10.75
49.409378,4.25491,28.65,-1.63,1.57,8.34
49.409378,4.25491,28.65,-1.19,1.65,8.53
49.409594,4.255125,28.53,-0.83,0.96,9.19
49.409594,4.255125,28.53,-1.29,1.08,9.53
49.409809,4.255343,28.42,-0.62,1.51,9.84
49.409809,4.255343,28.42,0.45,1.6,10.12
49.410021,4.255561,28.4,-0.21,1.58,12.06
49.410021,4.255561,28.4,-0.67,1.99,10.44
49.410236,4.255778,28.56,0.32,1.01,9.13
49.410236,4.255778,28.56,0.4,1.58,11.22
49.41045,4.255997,28.71,-1.27,1.42,11.08
49.41045,4.255997,28.71,-1.21,1.39,9.34
49.410666,4.256216,28.8,-0.42,1.71,7.55
49.410881,4.256439,28.88,-0.06,1.82,9.53
49.410881,4.256439,28.88,0.3,0.87,10.31
49.411094,4.256663,28.81,-0.33,0.65,11.7
49.411094,4.256663,28.81,-0.4,0.56,12.51
49.411308,4.256886,28.82,-0.79,0.07,10.74
49.411308,4.256886,28.82,-1.58,2.07,10.31
49.411526,4.257105,28.73,-0.99,0.89,9.75
49.411526,4.257105,28.73,-0.06,1.11,9.11
49.411737,4.257324,28.54,-0.32,0.79,12.58
49.411737,4.257324,28.54,-1.22,1.43,8.65
49.41195,4.257542,28.51,-1.34,0.32,11.63
49.41195,4.257542,28.51,-1.06,0.52,10.13
49.412164,4.257761,28.66,-0.46,2.06,10.89
49.412164,4.257761,28.66,-1.09,1.46,10.95
49.412377,4.257982,28.75,0.23,1.54,11.16
49.412377,4.257982,28.75,0.39,1.14,10.97
49.41259,4.258205,28.94,-0.04,1.43,10.66
49.41259,4.258205,28.94,-0.56,1.64,10.3
49.412806,4.258428,28.87,-1.17,1.82,8.07
49.412806,4.258428,28.87,-0.55,1.27,11.99
49.413021,4.258648,28.84,-0.5,1.28,11.27
49.413021,4.258648,28.84,0.45,1.01,11.14
49.413237,4.258869,28.85,-0.9,1.21,9.85
49.413237,4.258869,28.85,0.13,0.29,10.62
49.413451,4.259092,28.82,-0.67,0.84,11.08
49.413451,4.259092,28.82,-0.78,1.11,10.24
49.413666,4.259312,28.74,1.57,1.18,10.65
49.413666,4.259312,28.74,-0.69,0.95,9.5
49.413882,4.259532,28.73,0.57,1.74,10.47
49.413882,4.259532,28.73,0.41,1.44,10.91
49.414094,4.259755,28.75,-0.79,1.43,9
49.414094,4.259755,28.75,0.08,1.37,11.3
49.414306,4.259978,28.72,-1.17,0.93,9.73
49.414306,4.259978,28.72,-1.31,2.01,7.78
49.414522,4.2602,28.84,-0.95,0.9,8.83
49.414522,4.2602,28.84,0.07,0.84,9.48
49.414738,4.260423,28.97,-0.59,1.02,11.5
49.414738,4.260423,28.97,-0.86,1.2,10.6
49.414951,4.260649,29.13,-0.4,0.81,9.05
49.414951,4.260649,29.13,-1.74,2.19,9.4
49.415169,4.260875,29.24,-2.53,1.37,8.25
49.41539,4.261099,29.38,0.13,0.73,10.9
49.41539,4.261099,29.38,-0.82,0.85,9.26
49.415611,4.261323,29.36,0.38,1.11,11.24
49.415611,4.261323,29.36,-0.67,1.75,8.86
49.415829,4.261546,29.4,0.48,1.19,9.33
49.415829,4.261546,29.4,-2.36,1.57,9.69
49.416048,4.261771,29.39,-0.76,1.28,9.27
49.416048,4.261771,29.39,-0.11,1.18,9.79
49.416266,4.262,29.3,0.84,0.82,9.98
49.416266,4.262,29.3,-0.85,0.98,9.69
49.416487,4.262224,29.23,-0.59,1.36,11.75
49.416487,4.262224,29.23,-0.69,1.69,8.66
49.416705,4.262455,29.24,-1.06,1.93,8.72
49.416705,4.262455,29.24,-0.38,0.77,11.1
49.416918,4.262667,29.13,-0.44,1.91,10.83
49.416918,4.262667,29.13,-0.45,1.48,10.36
49.417133,4.262883,29.01,0.16,1.47,9.19
49.417133,4.262883,29.01,-1.24,2,9.23
49.417354,4.263107,28.84,-1.31,2.54,10.27
49.417354,4.263107,28.84,-1.37,1.97,8.46
49.417566,4.26333,28.62,-0.52,1.04,9.67
49.417566,4.26333,28.62,-1.13,2.46,9.87
49.417783,4.263549,28.57,-1.02,2.12,6.99
49.417783,4.263549,28.57,-1.78,2.03,8.18
49.417997,4.263765,28.48,-0.92,2.59,7.69
49.417997,4.263765,28.48,-0.69,1.67,9.39
49.41821,4.263979,28.49,-0.17,2.15,7.02
49.41821,4.263979,28.49,-0.84,2.19,8.45
49.418425,4.264194,28.47,-0.18,1.83,6.33
49.418425,4.264194,28.47,-1.2,2.17,8.15
49.418637,4.264412,28.53,-0.07,1.47,8.52
49.418637,4.264412,28.53,-0.26,2.11,11.43
49.418851,4.264632,28.53,-0.72,2.04,11.69
49.418851,4.264632,28.53,-0.15,1.26,8.3
49.419063,4.264853,28.49,-0.34,2.23,9.37
49.419063,4.264853,28.49,-0.91,2.64,6.85
49.419273,4.265076,28.53,0.39,0.82,12.07
49.419486,4.265297,28.56,-0.06,1.37,10.32
49.419486,4.265297,28.56,-0.58,1.24,12.24
49.4197,4.265517,28.53,0.46,1.34,11.62
49.4197,4.265517,28.53,-0.37,1.36,10.13
49.419914,4.265736,28.65,-0.99,1.51,9.52
49.419914,4.265736,28.65,-0.58,1.09,10.64
49.420128,4.265953,28.51,-0.97,1.54,9.73
49.420128,4.265953,28.51,-0.07,1.47,10.96
49.420338,4.266171,28.62,0.16,1.28,10.18
49.420338,4.266171,28.62,-0.61,0.7,9.72
49.42055,4.266384,28.53,-0.51,1.14,11
49.42055,4.266384,28.53,-0.13,1.49,11.51
49.420765,4.266597,28.47,-0.72,1.69,10.85
49.420765,4.266597,28.47,-0.19,1.54,8.09
49.420979,4.266806,28.35,-0.97,2.03,12.35
49.420979,4.266806,28.35,-0.27,1.57,10.81
49.421195,4.267014,28.37,-0.03,1.72,9.35
49.421195,4.267014,28.37,-0.37,0.91,9.64
49.421412,4.267224,28.27,-0.57,1.19,10.98
49.421412,4.267224,28.27,-0.53,1.06,10.94
49.421627,4.267434,28.17,-0.51,1.94,8.14
49.421627,4.267434,28.17,0.57,2.41,8.19
49.421839,4.267643,28.01,-0.24,1.81,9.56
49.421839,4.267643,28.01,-0.27,1.99,10.17
49.422053,4.267855,27.99,-0.17,1.24,11.08
49.422053,4.267855,27.99,-1.29,0.74,10.3
49.422266,4.268064,27.91,-0.78,1.47,10.95
49.422266,4.268064,27.91,-1.29,1.63,8.11
49.422478,4.268275,27.83,-0.68,1.08,9.97
49.422478,4.268275,27.83,-0.53,1.5,10.12
49.422689,4.268486,27.82,-0.63,1.49,10.86
49.422689,4.268486,27.82,-1.01,0.96,9.49
49.422893,4.268695,27.86,0.35,2.17,8.92
49.422893,4.268695,27.86,0.01,2.25,9.73
49.423098,4.268911,27.88,0.07,1.44,10.96
49.423098,4.268911,27.88,-0.5,1.02,10.82
49.423302,4.269131,27.96,-0.69,1.98,11.49
49.423302,4.269131,27.96,0.18,1.98,11.17
49.423506,4.269352,28.01,-1.77,0.51,9.9
49.423506,4.269352,28.01,-0.79,1.13,11.64
49.42371,4.269574,27.84,-0.55,1.18,11.44
49.42371,4.269574,27.84,-0.98,2.23,10.59
49.423916,4.269794,27.8,-1.63,1.25,9.45
49.42412,4.270012,27.77,-0.63,2.48,9.92
49.42412,4.270012,27.77,-0.19,0.62,9.07
49.424327,4.270229,27.67,-0.84,0.8,8.16
49.424327,4.270229,27.67,-1.09,1.58,11.4
49.424531,4.270444,27.68,-0.5,1.2,10.68
49.424531,4.270444,27.68,-0.76,1.35,10.74
49.424737,4.270657,27.64,0.56,1.81,9.63
49.424737,4.270657,27.64,-1.69,0.54,9.87
49.424939,4.27087,27.53,-1.05,1.03,10.41
49.424939,4.27087,27.53,-0.84,1.05,10.25
49.425146,4.271082,27.68,-0.33,1.86,8.47
49.425146,4.271082,27.68,-0.37,1.81,10.26
49.425348,4.271303,27.71,-0.79,1.64,9.33
49.425348,4.271303,27.71,-0.73,1.2,9.7
49.425555,4.271523,27.74,-0.79,1.29,10.3
49.425555,4.271523,27.74,-0.83,1.64,10.51
49.425759,4.271746,27.73,0.32,1.4,11.94
49.425759,4.271746,27.73,-0.41,0.8,11.24
49.425966,4.271961,27.75,-0.93,1.81,7.54
49.425966,4.271961,27.75,-0.85,2.16,9.46
49.426175,4.272177,27.79,0.34,2.19,9.92
49.426175,4.272177,27.79,-0.61,1.14,10.01
49.426379,4.272397,27.79,0.11,2.12,9.67
49.426379,4.272397,27.79,-0.7,2.48,8.64
49.426587,4.272612,27.92,-0.83,1.88,10.12
49.426587,4.272612,27.92,0.14,2.09,9.98
49.426796,4.272826,28.06,-0.49,0.97,9.35
49.426796,4.272826,28.06,-0.81,1.92,11.3
49.427005,4.273044,28.28,-1.34,1.79,7.72
49.427005,4.273044,28.28,-2.09,0.95,7.8
49.427214,4.273262,28.32,0.02,1.54,9.13
49.427214,4.273262,28.32,-0.65,1.12,6.88
49.427423,4.273483,28.18,-0.55,1.47,8.49
49.427423,4.273483,28.18,-0.07,0.56,10.18
49.427629,4.273703,27.35,-1.63,1,8.76
49.427629,4.273703,27.35,-0.34,0.83,10.05
49.427833,4.27392,27.16,0.03,1.25,9.7
49.428031,4.274129,27.07,-0.61,1.72,11.06
49.428031,4.274129,27.07,-0.75,-0.21,9.83
49.428229,4.274336,26.92,-0.32,0.91,11.4
49.428229,4.274336,26.92,-0.57,0.72,10.6
49.428433,4.274542,26.71,-0.78,0.69,10.06
49.428433,4.274542,26.71,-1.06,1.43,9.49
49.428633,4.274749,26.72,0.19,1.03,10.76
49.428633,4.274749,26.72,-0.97,2.17,6.63
49.428836,4.274954,26.72,-0.5,0.37,9.39
49.428836,4.274954,26.72,-1.55,0.74,9.45
49.429036,4.275159,26.31,-0.51,-0.19,10.16
49.429036,4.275159,26.31,-0.39,-0.29,10.06
49.429225,4.275353,25.06,0.03,0.19,8.09
49.429225,4.275353,25.06,-1.26,-0.22,9.67
49.429406,4.275541,23.92,-0.04,0.71,9.9
49.429406,4.275541,23.92,-0.61,1.27,10.88
49.429578,4.275724,23.14,-1.28,0.41,8.42
49.429578,4.275724,23.14,-1.08,0.79,7.9
49.429746,4.275904,22.76,-0.75,1.16,8.6
49.429746,4.275904,22.76,-0.86,0.59,9.51
49.429914,4.276082,22.44,-0.47,0.45,14
49.429914,4.276082,22.44,-1.08,1.36,9.48
49.43008,4.276252,22.16,-0.01,1.3,10.27
49.43008,4.276252,22.16,-1.13,1.65,8.34
49.430244,4.276426,22.16,0.65,1.06,9.09
49.430244,4.276426,22.16,-0.67,1.96,11.18
49.430408,4.276604,22.52,-0.4,0.48,10.09
49.430408,4.276604,22.52,-1.18,0.67,9.69
49.430574,4.276783,22.46,-0.06,0.54,9.22
49.430574,4.276783,22.46,-0.19,0.65,9.72
49.430737,4.276962,22.01,0.61,1.15,7.66
49.430737,4.276962,22.01,0.35,2.49,8.85
49.4309,4.277136,22.18,-0.69,1.81,10.46
49.4309,4.277136,22.18,-0.72,1.57,8.57
49.431066,4.277313,22.56,0.36,1.78,9.93
49.431066,4.277313,22.56,-0.91,0.66,11.31
49.431236,4.277494,22.86,-0.24,0.58,9.7
49.431236,4.277494,22.86,-0.78,1.15,8.72
49.431403,4.277675,22.64,-0.68,1.44,9.25
49.431403,4.277675,22.64,-0.39,1.4,7.76
49.43157,4.277852,22.58,-0.29,0.55,13.67
49.43174,4.278027,22.59,-0.1,1.47,10.73
49.43174,4.278027,22.59,-1.05,1.62,12.45
49.431909,4.278205,22.7,0.29,0.62,9.69
49.431909,4.278205,22.7,-1.29,1.15,9.93
49.432083,4.278381,23.13,0.52,1.67,8.46
49.432083,4.278381,23.13,-1,1.8,10.15
49.432262,4.278563,23.33,-1.62,0.84,9.91
49.432262,4.278563,23.33,0.08,0.45,10.29
49.432442,4.278713,23.24,0.25,0.3,12.23
49.432442,4.278713,23.24,-0.98,1.89,8.49
49.432624,4.27884,23.22,-1.94,1.9,10.47
49.432624,4.27884,23.22,-1.32,1.03,9.51
49.432815,4.278968,23.54,-1.35,2.56,10.03
49.432815,4.278968,23.54,-0.73,1.58,9.99
49.433012,4.279087,23.96,-0.28,1.54,9.81
49.433012,4.279087,23.96,0.27,1.74,10.59
49.43322,4.279194,24.21,-0.13,0.75,9.93
49.43322,4.279194,24.21,0.21,0.67,9.86
49.433429,4.279294,23.8,0.3,0.42,10.35
49.433429,4.279294,23.8,-0.45,1.09,8.41
49.433632,4.279385,23.4,-0.44,0.23,8.03
49.433632,4.279385,23.4,-0.7,0.45,10.63
49.433831,4.279469,22.79,-1.4,0.3,11.27
49.433831,4.279469,22.79,-1.09,0.38,10.45
49.434029,4.279544,21.96,-0.6,0.47,9.8
49.434029,4.279544,21.96,-1.11,-0.04,8.89
49.434219,4.279608,21.04,-0.57,0.29,11.01
49.434219,4.279608,21.04,-1.33,0.38,9.62
49.434401,4.279662,20.25,-0.89,-0.25,11.27
49.434401,4.279662,20.25,-1.03,-0.91,8.85
49.434577,4.279702,18.96,0.15,0.78,10.6
49.434577,4.279702,18.96,-0.03,0.27,8.79
49.434744,4.279732,17.65,-0.09,0.28,10.74
49.434744,4.279732,17.65,-0.52,0.12,10.28
49.434897,4.279755,16.18,0.5,1,8.37
49.434897,4.279755,16.18,-0.78,-0.09,9.81
49.435035,4.279755,15.5,-0.8,0.2,10.46
49.435164,4.279767,14.2,-0.6,-0.41,7.38
49.435164,4.279767,14.2,-0.2,0.35,9.76
49.435278,4.279771,13.06,-0.11,0.11,8.8
49.435278,4.279771,13.06,-0.44,0.45,10.78
49.435379,4.279776,12.38,-1.05,0.76,9.76
49.435379,4.279776,12.38,-1.15,0.88,10.17
49.435486,4.279777,12.02,-0.89,0.34,10.66
49.435486,4.279777,12.02,-2.11,1.18,9.18
49.435593,4.279765,11.71,-1.68,1.37,10.24
49.435593,4.279765,11.71,-1.89,1.74,8.31
49.435701,4.279739,11.74,-1.47,2.01,10.09
49.435701,4.279739,11.74,1.67,2.55,9.47
49.43581,4.279705,11.94,2.68,1.12,12.16
49.43581,4.279705,11.94,2.32,1.66,9.25
49.435915,4.279671,12.2,1.4,2.15,9.32
49.435915,4.279671,12.2,0.67,1.14,9.28
49.436031,4.279667,13,0.13,1.09,9.32
49.436031,4.279667,13,0.29,1.18,9.43
49.436146,4.279676,12.66,-0.08,2.34,9.27
49.436146,4.279676,12.66,-0.25,2.01,10.68
49.436261,4.279686,13.26,0.08,2.51,9.04
49.436261,4.279686,13.26,0.62,1.98,11.36
49.436378,4.279701,13.97,0,1.47,9.94
49.436378,4.279701,13.97,-0.4,1.23,11.61
49.436503,4.27971,14.09,-0.32,0.9,7.37
49.436503,4.27971,14.09,0.14,1.01,12.5
49.436618,4.279718,13.96,-0.54,1.21,9.84
49.436618,4.279718,13.96,-0.05,0.88,11.53
49.436742,4.279727,13.46,0.4,1.09,9.38
49.436742,4.279727,13.46,0.23,1.25,9.96
49.436865,4.279736,13.25,0.37,2.37,9.86
49.436865,4.279736,13.25,0.69,1.99,10.67
49.436991,4.279745,13.59,-0.26,2.57,8.81
49.436991,4.279745,13.59,-0.36,1.65,9.23
49.437121,4.279753,14.05,0.64,1.86,9.62
49.437121,4.279753,14.05,0.73,1.58,9.38
49.437258,4.279767,14.41,-0.36,1.46,10.35
49.437258,4.279767,14.41,0.37,1.93,8.76
49.437393,4.27978,14.86,-0.05,2.19,10.08
49.43753,4.279789,15.26,0.07,2.05,10.17
49.43753,4.279789,15.26,-0.18,1.84,9.82
49.437671,4.279795,15.76,-0.75,1.87,9.71
49.437671,4.279795,15.76,0.11,1.78,8.71
49.437818,4.279802,16.42,-0.02,1.87,10.24
49.437818,4.279802,16.42,-0.61,1.67,10.38
49.437965,4.27981,16.85,-0.51,1.81,10.48
49.437965,4.27981,16.85,-0.4,1.95,9.13
49.438119,4.279814,17.46,0.09,1.83,9.32
49.438119,4.279814,17.46,-0.94,1.37,9.84
49.438278,4.279822,17.73,0.14,1.92,9.28
49.438278,4.279822,17.73,0.03,1.58,9.25
49.438434,4.279832,17.82,-0.92,0.89,10.35
49.438434,4.279832,17.82,0.36,1.47,8.74
49.438596,4.279843,17.98,-0.27,1.84,8.94
49.438596,4.279843,17.98,-0.38,1.88,9.62
49.438761,4.279853,18.37,0.13,2.03,9.27
49.438761,4.279853,18.37,0,1.87,11.52
49.438928,4.279862,18.7,-0.67,1.91,9.47
49.438928,4.279862,18.7,0.06,1.74,10.2
49.439096,4.279862,19.28,-0.48,1.5,8.85
49.439096,4.279862,19.28,-0.88,1.37,9.23
49.439264,4.279862,19.3,-0.97,1.72,11.19
49.439264,4.279862,19.3,0.17,1.27,10.11
49.439435,4.279872,19.47,1.47,1.44,11.52
49.439435,4.279872,19.47,-0.96,1.31,9.59
49.439608,4.279889,19.22,-0.83,1.92,7.87
49.439608,4.279889,19.22,-0.42,1.55,9.64
49.43978,4.279917,19.29,-0.25,1.76,6.96
49.43978,4.279917,19.29,0.25,1.84,8.77
49.439951,4.279959,19.57,0.67,1.61,10.85
49.439951,4.279959,19.57,-0.77,1.86,10.7
49.440134,4.280014,19.95,-0.2,1.86,9.93
49.440134,4.280014,19.95,-0.6,2.39,7.15
49.440315,4.280078,20.22,-0.03,1.59,10.81
49.440315,4.280078,20.22,-0.69,1.86,8.29
49.440496,4.280147,20.29,0.48,1.62,10.5
49.440496,4.280147,20.29,-0.69,1.63,10.21
49.440677,4.280213,20.41,-1.14,1.25,12.65
49.440677,4.280213,20.41,-0.61,1.62,9.37
49.440857,4.280288,20.72,-0.5,1.87,10.68
49.440857,4.280288,20.72,1.26,1.39,9.32
49.441038,4.280372,21.06,-0.22,1.86,9.86
49.44122,4.280465,21.39,-0.5,1.59,9.46
49.44122,4.280465,21.39,-0.14,1.07,10.25
49.441403,4.280564,21.3,-0.69,1.47,10.07
49.441403,4.280564,21.3,0.29,1.14,8.26
49.441582,4.280665,20.96,0.39,1.32,8.82
49.441582,4.280665,20.96,-0.64,2.02,10.56
49.441757,4.280774,21.2,-0.08,1.89,8.37
49.441757,4.280774,21.2,0.8,2.02,7.72
49.441934,4.280893,21.42,1.73,1.08,12.21
49.441934,4.280893,21.42,0.16,1.15,10.11
49.442107,4.281012,21.93,0.21,1.71,10.37
49.442107,4.281012,21.93,0.6,2.24,11.27
49.442282,4.281148,22.21,0.56,1.21,11.51
49.442282,4.281148,22.21,-0.3,2.25,9.51
49.442458,4.281294,22.38,-0.37,1.39,9.17
49.442458,4.281294,22.38,-0.41,1.57,9.41
49.44263,4.281454,22.58,0.06,1.96,9.47
49.44263,4.281454,22.58,0.56,1.99,10.42
49.442806,4.281622,22.84,-0.03,1.51,8.68
49.442806,4.281622,22.84,0.29,2.13,8.99
49.442978,4.281797,23.03,0.62,1.47,10.08
49.442978,4.281797,23.03,-0.01,1.6,9.58
49.443149,4.281978,23.14,0.2,2.02,9.53
49.443149,4.281978,23.14,1.07,1.62,9.05
49.443318,4.282164,23.4,0.3,1.31,11.8
49.443318,4.282164,23.4,0.52,1.36,10.72
49.443484,4.282371,23.52,-0.03,2.24,10.2
49.443484,4.282371,23.52,-0.48,1.01,10.59
49.443645,4.282579,23.64,0.94,0.96,10.3
49.443645,4.282579,23.64,-0.04,0.28,9.76
49.443802,4.282793,23.41,0.2,0.94,8.79
49.443802,4.282793,23.41,0.19,1.27,10.01
49.443948,4.283014,22.94,1.06,0.68,9.53
49.44409,4.28324,22.13,0.44,0.74,8.45
49.44409,4.28324,22.13,0.03,0.6,9.8
49.444227,4.283469,21.72,0.58,1.28,9.21
49.444227,4.283469,21.72,0.42,1.81,10
49.444362,4.283695,21.8,-0.56,1.14,10.27
49.444362,4.283695,21.8,0.33,0.83,10.54
49.444488,4.283921,21.44,0.11,0.81,11.23
49.444488,4.283921,21.44,0.41,1.06,10.64
49.444609,4.284156,20.97,-0.46,0.59,10.19
49.444609,4.284156,20.97,-0.2,1.89,10.5
49.44472,4.284393,20.89,0.25,0.9,10.67
49.44472,4.284393,20.89,0.59,1.49,9.97
49.444834,4.284625,21.13,-0.57,1.76,10.35
49.444834,4.284625,21.13,0.09,2.09,7.05
49.444944,4.284861,21.37,0.27,2.1,8.9
49.444944,4.284861,21.37,-0.51,0.98,11.21
49.44505,4.285104,21.87,-0.03,0.86,10.41
49.44505,4.285104,21.87,-0.08,0.75,10.57
49.44515,4.285359,21.68,0.01,1.32,10.56
49.44515,4.285359,21.68,0.31,2.03,9.1
49.445245,4.285623,21.7,-0.49,1.56,9.19
49.445245,4.285623,21.7,0.07,2.17,8.18
49.445331,4.285903,22.08,-0.04,1.43,9.91
49.445331,4.285903,22.08,0.23,1.28,10.62
49.445416,4.286179,21.98,-0.25,1.39,9.49
49.445416,4.286179,21.98,0.34,1.36,10.97
49.445498,4.286453,22.09,-0.36,1.53,12.02
49.445498,4.286453,22.09,0.11,1.47,11.49
49.445576,4.286729,22.46,-0.06,1.77,10.82
49.445576,4.286729,22.46,0.45,1.32,10.4
49.445651,4.287021,22.79,-0.01,1.98,7.87
49.445651,4.287021,22.79,0.13,1.76,9.25
49.445727,4.28732,23.02,-0.5,2,10.91
49.445727,4.28732,23.02,0.3,1.64,9.67
49.445802,4.287619,23.37,0.14,0.37,10.16
49.445802,4.287619,23.37,-0.55,1.49,10.06
49.445875,4.287924,23.22,-0.29,0.74,9.63
49.445952,4.288222,23,0.2,0.51,8.03
49.445952,4.288222,23,0.03,1.84,9.75
49.446029,4.288517,23,0.41,0.99,9.92
49.446029,4.288517,23,0.41,1.26,9.47
49.446105,4.288811,23.2,-0.43,1.12,9.9
49.446105,4.288811,23.2,0.01,0.35,11.24
49.44618,4.289107,23.04,-0.11,1.09,9.42
49.44618,4.289107,23.04,0.64,1.42,10.02
49.446255,4.289402,23.06,-0.69,1.72,9.36
49.446255,4.289402,23.06,-0.69,2.18,9.93
49.44633,4.289701,23.21,-0.25,0.57,11.65
49.44633,4.289701,23.21,-0.37,1.02,11.55
49.446406,4.289997,23,-0.36,1.4,9.82
49.446406,4.289997,23,-0.68,1.45,10.36
49.446482,4.290292,22.97,-0.47,1.3,11.71
49.446482,4.290292,22.97,0.24,0.87,8.93
49.446562,4.29058,22.68,0.14,1.11,8.13
49.446562,4.29058,22.68,0.16,0.67,11.17
49.446641,4.290866,22.65,-0.57,1.18,10.56
49.446641,4.290866,22.65,-0.58,1.42,8.52
49.446726,4.291152,22.69,0.03,0.47,10.52
49.446726,4.291152,22.69,-0.78,0.9,11.23
49.446814,4.29143,22.76,-0.56,0.98,10.2
49.446814,4.29143,22.76,0.45,1.58,9.25
49.446907,4.291706,22.96,-1.14,0.93,10.14
49.446907,4.291706,22.96,-0.09,0.98,9.66
49.447005,4.291985,22.84,-1.1,1.42,8.86
49.447005,4.291985,22.84,-0.03,0.68,10.2
49.447101,4.292257,22.6,-0.66,0.87,10.68
49.447101,4.292257,22.6,-0.37,0.68,11.21
49.447205,4.292526,22.39,-1.19,1.57,9.87
49.447205,4.292526,22.39,-0.45,1.71,9.65
49.447311,4.292786,22.33,-0.51,1.1,10.7
49.447311,4.292786,22.33,-0.77,1.68,10.45
49.447422,4.293029,22.4,0.06,1.64,8.06
49.447422,4.293029,22.4,0.01,1.48,10.32
49.447539,4.293278,22.57,-0.4,1.34,9.65
49.447539,4.293278,22.57,-0.95,1.81,8.72
49.447663,4.293527,22.59,-0.23,1.44,9.23
49.447663,4.293527,22.59,-0.82,1.22,10.69
49.447791,4.293772,22.53,-1.24,1.47,7.39
49.447924,4.294013,22.12,-0.63,0.81,10.08
49.447924,4.294013,22.12,-0.87,1.03,8.13
49.448062,4.294246,21.82,-0.58,1.19,9.62
49.448062,4.294246,21.82,-0.86,1.15,9.69
49.448195,4.294474,21.6,-0.71,1.15,10.96
49.448195,4.294474,21.6,-0.74,1.29,9.48
49.448326,4.294697,21.44,-1.02,1.42,9
49.448326,4.294697,21.44,0.02,1.6,10.05
49.448454,4.294915,21.53,-0.53,1.07,10.3
49.448454,4.294915,21.53,0.24,1.37,9.13
49.44859,4.295122,21.6,-1.08,1.81,7.56
49.44859,4.295122,21.6,-0.11,1.3,11.14
49.448734,4.295318,21.61,-1.1,1.47,8.71
49.448734,4.295318,21.61,-1.22,1.58,9.46
49.448867,4.295502,21.63,-0.65,1.5,8.58
49.448867,4.295502,21.63,-0.98,1.18,9.6
49.449022,4.295694,21.62,-0.1,1.21,9.68
49.449022,4.295694,21.62,-1.06,0.97,11.94
49.449172,4.295883,21.3,-0.32,1.75,8.38
49.449172,4.295883,21.3,-0.5,1.69,10.79
49.449324,4.296068,21.29,-0.57,1.85,7.06
49.449324,4.296068,21.29,-0.12,1.42,12.45
49.449478,4.296249,21.2,0.16,0.34,10.01
49.449478,4.296249,21.2,0.06,1.26,12.02
49.449632,4.296422,20.8,-0.32,1.52,8.5
49.449632,4.296422,20.8,-0.48,1.14,11.25
49.449784,4.296587,20.55,-0.29,2.25,9.41
49.449784,4.296587,20.55,0.84,1.75,8.29
49.449937,4.296744,20.48,-0.11,1.79,7.2
49.449937,4.296744,20.48,-0.21,1.69,8.25
49.450098,4.296894,20.62,-0.94,1.26,10.39
49.450098,4.296894,20.62,-0.96,1.71,9.85
49.450258,4.297044,20.81,0.77,1.65,8.83
49.450258,4.297044,20.81,-0.56,1.93,8.44
49.450422,4.297194,21.11,-0.53,1.77,8.71
49.450422,4.297194,21.11,-0.13,1.04,10.51
49.450585,4.297341,21.27,-0.61,0.51,9.86
49.450585,4.297341,21.27,0.18,0.59,10.47
49.450747,4.297495,21.43,-0.7,0.36,10.41
49.450912,4.297646,20.95,0.24,0.94,10.2
49.450912,4.297646,20.95,-0.16,1.06,10.15
49.451074,4.297794,20.7,0.09,1.26,8.83
49.451074,4.297794,20.7,0.08,2.38,9.16
49.451236,4.29794,20.74,0.86,1.28,9.33
49.451236,4.29794,20.74,0.01,2.25,9.4
49.451397,4.298086,20.7,-0.61,0.86,10.14
49.451397,4.298086,20.7,-0.18,1.82,7.63
49.451556,4.298234,20.68,0.1,1.42,8.14
49.451556,4.298234,20.68,-0.17,1.88,9.6
49.451716,4.298383,21.1,-0.72,1.59,9.9
49.451716,4.298383,21.1,-0.73,1.92,11.26
49.451875,4.298532,21.33,-0.4,1.55,10
49.451875,4.298532,21.33,0.67,1.37,9.4
49.452039,4.298684,21.21,-0.01,1.26,9.45
49.452039,4.298684,21.21,0.39,1.74,9.44
49.452209,4.298831,21.09,-0.15,1.04,10.7
49.452209,4.298831,21.09,0.49,0.98,10.75
49.45237,4.298984,20.97,0.07,0.52,9.2
49.45237,4.298984,20.97,-0.68,0.28,11.17
49.452525,4.299139,20.46,-0.37,1.55,10.77
49.452525,4.299139,20.46,-0.5,1.48,9.19
49.452676,4.299293,20.31,0.16,1.37,11.98
49.452676,4.299293,20.31,-0.36,1.23,11.67
49.452823,4.299454,20.44,-0.29,1.43,10.95
49.452823,4.299454,20.44,-0.62,1.45,9.28
49.452974,4.299622,20.69,0.03,1.66,6.74
49.452974,4.299622,20.69,0.36,0.9,9.78
49.453125,4.299792,20.66,-0.28,0.81,7.88
49.453125,4.299792,20.66,-0.33,0.78,9.86
49.453273,4.299966,20.32,0.68,2.06,9.74
49.453273,4.299966,20.32,0.79,1.73,6.39
49.453414,4.300137,20.23,0.05,1.62,10.71
49.453414,4.300137,20.23,0.25,1.19,8.47
49.453554,4.300314,20.48,0.57,2.13,9.48
49.453554,4.300314,20.48,0.88,1.57,10.61
49.4537,4.300489,20.68,-0.77,1.58,8.06
49.4537,4.300489,20.68,0.22,1.81,7.37
49.453846,4.300665,20.79,1.34,1.17,9.51
49.453994,4.300842,21.1,-0.6,1.26,10.1
49.453994,4.300842,21.1,-0.27,1.46,11.77
49.454144,4.301021,21.28,-0.79,0.97,10.22
49.454144,4.301021,21.28,-0.57,0.84,10.8
49.454295,4.301202,21.41,0.89,1.56,10.19
49.454295,4.301202,21.41,-0.04,1.62,8.51
49.454448,4.301383,21.4,-0.84,1.45,10.16
49.454448,4.301383,21.4,0.21,2.2,7.58
49.454598,4.301559,21.25,-0.33,0.93,9.71
49.454598,4.301559,21.25,-0.19,0.41,10.53
49.454749,4.301736,21.2,-0.15,1.43,10.71
49.454749,4.301736,21.2,-0.37,1.6,12.82
49.454901,4.301912,21.13,-0.99,1.07,9.96
49.454901,4.301912,21.13,0.49,1.6,10.54
49.455052,4.302088,21.14,-0.71,1.91,9.83
49.455052,4.302088,21.14,0.05,1.99,10.89
49.455204,4.302263,21.14,-0.21,1.51,12.49
49.455204,4.302263,21.14,0.65,1.52,8.89
49.455353,4.302433,21.09,-1.35,1.16,10.16
49.455353,4.302433,21.09,-0.55,1.6,8.42
49.455509,4.302597,20.98,-0.39,1.21,11.43
49.455509,4.302597,20.98,-0.56,1.48,9.28
49.455666,4.302758,20.92,-0.23,1.83,10.83
49.455666,4.302758,20.92,0.07,1.39,9.9
49.455823,4.302921,20.9,-1.27,1.17,9.33
49.455823,4.302921,20.9,-0.25,1.01,10.53
49.455981,4.303074,20.83,0.71,1.14,10.61
49.455981,4.303074,20.83,-0.55,0.74,8.92
49.45614,4.303225,20.8,-0.34,0.89,8.96
49.45614,4.303225,20.8,-0.46,0.92,10.11
49.456297,4.303382,20.72,1.11,1.21,13.38
49.456297,4.303382,20.72,1.5,1.44,11.94
49.456449,4.303539,20.72,-0.44,1.37,9.72
49.456449,4.303539,20.72,1.54,1.86,8.25
49.456604,4.303698,20.84,0,0.82,11.37
49.456604,4.303698,20.84,-0.56,0.89,9.77
49.45676,4.303861,21.03,-0.51,1.37,12.24
49.45676,4.303861,21.03,0.32,1.51,9.64
49.456916,4.304032,21.23,-0.66,1.74,10.28
49.456916,4.304032,21.23,0.38,0.75,11.56
49.457073,4.304202,21.33,-1.58,1.79,9.19
49.457231,4.304369,21.4,-1.03,1.93,8.77
49.457231,4.304369,21.4,0.77,1.76,10.84
49.457388,4.304539,21.49,0.39,1.63,7.77
49.457388,4.304539,21.49,0.13,1.94,7.39
49.457549,4.304699,21.49,0.23,1.25,9.66
49.457549,4.304699,21.49,0.62,1.71,11.35
49.457709,4.304862,21.56,-0.28,1.27,8.9
49.457709,4.304862,21.56,-0.26,1.07,8.57
49.457868,4.30503,21.36,-0.72,0.78,11.29
49.457868,4.30503,21.36,0.11,0.99,11.31
49.458025,4.305198,20.77,-0.78,1.13,10.43
49.458025,4.305198,20.77,-0.38,1.19,8.45
49.458176,4.305363,20.68,-0.48,1.47,10.4
49.458176,4.305363,20.68,-0.72,0.93,11.64
49.458328,4.305526,20.7,-0.88,1.3,9.53
49.458328,4.305526,20.7,0.27,0.57,10.78
49.45848,4.305688,20.38,-0.54,1.32,12.66
49.45848,4.305688,20.38,0.03,1.47,10.21
49.458632,4.305846,20.32,0.11,2.04,11.28
49.458632,4.305846,20.32,-0.58,1.36,9.21
49.458782,4.306004,20.46,0.19,1.28,12.42
49.458782,4.306004,20.46,1.03,1.68,10.13
49.458935,4.306168,20.45,-0.45,1.45,9.55
49.458935,4.306168,20.45,1.87,1.04,11.58
