Location-lat,Location-long,Speed,Accelerometer-X,Accelerometer-Y,Accelerometer-Z
49.2788,4.032106,12.18,-0.44,-1.32,9.82
49.278886,4.032058,0.0,-1.32,-2.57,12.46
49.278886,4.032058,0.0,-1.2,-1.88,9.51
49.278976,4.032026,11.01,-1.97,-1.6,10.36
49.278976,4.032026,11.01,-2.14,-2.05,10.18
49.279081,4.032007,10.87,-2.32,-2.44,10.51
49.279181,4.031995,11.14,-1.57,-2.24,9.71
49.279181,4.031995,11.14,-1.94,-2.26,9.5
49.279286,4.031995,11.61,-1.45,-2.67,8.35
49.279286,4.031995,11.61,-1.75,-2.55,9.39
49.279394,4.031997,12.12,-2.22,-2.72,10.97
49.279394,4.031997,12.12,-1.75,-2.82,8.97
49.279506,4.032005,12.69,-1.98,-2.42,9.3
49.279506,4.032005,12.69,-2.22,-2.15,9.22
49.279634,4.032018,13.73,-1.54,-2.5,9.32
49.279634,4.032018,13.73,-2.22,-2.07,8.95
49.279766,4.032053,14.16,-2.53,-1.69,8.04
49.279766,4.032053,14.16,-1.83,-2.3,9.6
49.279898,4.032105,14.51,-2.02,-2.41,9.8
49.279898,4.032105,14.51,-2.36,-1.9,8.24
49.280028,4.032173,14.89,-1.76,-2.38,9.58
49.280028,4.032173,14.89,-1.68,-2.72,9.16
49.280158,4.032255,15.46,-0.69,-3.29,10.64
49.280158,4.032255,15.46,-1.46,-1.71,9.07
49.280291,4.032353,16.12,-0.57,-2.77,8.92
49.280291,4.032353,16.12,-1.93,-2.8,7.96
49.280424,4.032446,16.42,-1.26,-1.93,10.05
49.280424,4.032446,16.42,-0.57,-1.54,10.18
49.28056,4.032542,16.19,0.0,-1.54,11.3
49.28056,4.032542,16.19,-0.64,-1.23,8.75
49.280692,4.032635,15.77,-0.34,-0.93,9.23
49.280692,4.032635,15.77,-0.76,-0.64,10.51
49.280819,4.032723,14.83,0.01,-0.15,12.04
49.280819,4.032723,14.83,-0.16,-0.33,10.31
49.280938,4.032805,13.37,0.13,0.1,10.28
49.280938,4.032805,13.37,-0.5,-0.47,10.21
49.281041,4.032875,11.55,-0.28,0.05,10.75
49.281127,4.032933,9.15,0.25,0.27,10.75
49.281127,4.032933,9.15,-0.01,0.22,11.83
49.281195,4.032977,6.61,-0.06,0.1,11.36
49.281195,4.032977,6.61,-0.62,-1.53,10.3
49.281246,4.033004,4.94,-0.65,0.65,15.82
49.281246,4.033004,4.94,-0.99,-2.32,10.3
49.281287,4.033024,4.93,-1.4,-3.06,8.78
49.281287,4.033024,4.93,-1.41,-2.93,9.35
49.281325,4.03304,5.43,-1.12,-3.22,9.33
49.281325,4.03304,5.43,-1.09,-3.39,9.75
49.281377,4.033065,6.12,-0.72,-3.26,10.01
49.281377,4.033065,6.12,-0.96,-3.22,10.09
49.28144,4.033092,7.84,-0.59,-3.09,9.19
49.28144,4.033092,7.84,-0.63,-3.26,9.65
49.281516,4.033107,8.63,-0.47,-3.24,10.0
49.281516,4.033107,8.63,-0.37,-3.21,9.78
49.2816,4.033117,10.1,-0.49,-2.34,8.47
49.2816,4.033117,10.1,-0.49,-3.09,10.29
49.281693,4.033121,10.83,-1.05,-3.03,9.6
49.281693,4.033121,10.83,-0.81,-2.67,9.38
49.281795,4.033121,11.65,-0.48,-2.83,9.42
49.281795,4.033121,11.65,-0.68,-3.02,9.27
49.281905,4.033113,12.49,-0.68,-3.09,10.21
49.281905,4.033113,12.49,-1.13,-2.69,8.5
49.282022,4.033098,13.25,-1.17,-2.01,8.87
49.282022,4.033098,13.25,-1.32,-2.71,9.34
49.282144,4.033078,13.67,-1.07,-1.66,10.24
49.282144,4.033078,13.67,-1.62,-2.63,9.03
49.28227,4.033056,13.82,-0.14,-0.45,7.71
49.28227,4.033056,13.82,-0.64,-1.86,2.78
49.282396,4.033035,13.82,-1.31,-1.16,7.69
49.28252,4.033015,13.47,-0.59,-0.33,8.76
49.28252,4.033015,13.47,0.0,-1.93,12.01
49.282639,4.032995,12.98,-1.21,-0.91,11.19
49.282639,4.032995,12.98,-0.23,-1.44,9.23
49.282756,4.032976,12.68,-0.05,-0.9,11.53
49.282756,4.032976,12.68,-0.68,-1.21,11.18
49.282865,4.032956,11.76,-0.22,-0.33,11.09
49.282865,4.032956,11.76,-0.39,0.43,9.55
49.282958,4.032933,10.49,-0.45,0.33,9.31
49.282958,4.032933,10.49,-0.45,0.06,10.47
49.283039,4.032914,9.24,-0.58,0.47,11.23
49.283039,4.032914,9.24,-0.3,-0.13,9.41
49.283102,4.032902,6.7,-0.77,-0.85,10.71
49.283102,4.032902,6.7,-0.39,0.34,10.85
49.283148,4.03289,4.51,-0.37,0.44,9.93
49.283148,4.03289,4.51,-0.54,0.03,9.79
49.283175,4.032882,2.13,-0.71,-0.33,9.63
49.283175,4.032882,2.13,-1.17,-2.31,9.46
49.283186,4.032878,1.2,-1.56,-3.05,9.54
49.283186,4.032878,1.2,-1.5,-3.22,9.38
49.283199,4.032875,2.03,-1.42,-3.19,8.77
49.283199,4.032875,2.03,-1.34,-3.62,9.47
49.28322,4.032868,2.62,-1.31,-3.28,9.38
49.28322,4.032868,2.62,-1.49,-2.84,9.17
49.283257,4.032859,4.23,-1.49,-3.21,9.43
49.283257,4.032859,4.23,-1.1,-3.06,10.19
49.283307,4.032845,5.47,-0.46,-2.69,8.17
49.283307,4.032845,5.47,-1.07,-2.96,8.94
49.283368,4.032826,7.06,-1.18,-2.64,8.96
49.283368,4.032826,7.06,-1.51,-2.72,10.03
49.283445,4.032803,8.13,-0.9,-1.76,9.78
49.283445,4.032803,8.13,-0.43,-1.56,9.38
49.283529,4.032777,9.18,-0.86,-1.69,8.73
49.28362,4.032752,9.55,-0.52,-1.58,8.78
49.28362,4.032752,9.55,-0.7,-1.5,10.58
49.28371,4.032728,9.47,-0.64,-0.18,10.19
49.28371,4.032728,9.47,-0.09,0.07,10.42
49.283791,4.032708,8.08,-0.06,-0.34,10.19
49.283791,4.032708,8.08,1.3,-0.34,10.03
49.283858,4.032691,6.66,-0.23,0.44,8.09
49.283858,4.032691,6.66,-0.34,0.06,10.35
49.283911,4.032677,5.27,-0.5,0.6,10.68
49.283911,4.032677,5.27,0.08,1.36,9.59
49.283949,4.032669,2.97,-0.05,1.01,9.28
49.283949,4.032669,2.97,-0.46,-1.58,9.86
49.283949,4.032669,0.0,-0.76,-2.15,9.67
49.283949,4.032669,0.0,-0.95,-2.88,9.79
49.283974,4.032662,1.63,-0.83,-2.04,9.63
49.283974,4.032662,1.63,-0.45,-1.58,9.79
49.283993,4.032656,2.1,-0.29,-0.84,10.3
49.283993,4.032656,2.1,-0.57,-2.21,9.43
49.284014,4.032649,1.79,-1.25,-3.24,9.12
49.284014,4.032649,1.79,-0.91,-2.84,8.08
49.284034,4.032641,2.49,-0.88,-3.9,10.11
49.284034,4.032641,2.49,-0.45,-2.79,10.24
49.284059,4.032634,3.52,-1.83,-3.21,10.08
49.284059,4.032634,3.52,-1.04,-3.39,9.63
49.284099,4.032623,4.79,-0.56,-3.04,8.86
49.284099,4.032623,4.79,-1.07,-2.92,9.43
49.284157,4.032604,6.88,-1.15,-2.82,9.39
49.284157,4.032604,6.88,-1.03,-3.09,9.73
49.28423,4.032582,8.37,-1.23,-2.62,10.35
49.28423,4.032582,8.37,-1.22,-1.98,10.02
49.284306,4.03256,8.67,-0.69,-1.62,10.78
49.284306,4.03256,8.67,-0.56,-1.24,8.63
49.284391,4.032535,9.88,-0.84,-2.1,10.79
49.284391,4.032535,9.88,-1.02,-1.95,9.62
49.28449,4.03251,9.86,-0.73,-1.79,9.83
49.284583,4.032484,9.87,-1.4,-2.27,10.11
49.284583,4.032484,9.87,-0.73,-1.31,9.03
49.284671,4.032459,9.84,-0.31,-2.0,9.45
49.284671,4.032459,9.84,-1.13,-1.11,9.72
49.28476,4.032433,9.59,-0.1,-1.36,9.74
49.28476,4.032433,9.59,0.87,-1.14,10.38
49.284848,4.032405,9.44,0.99,-0.41,9.5
49.284848,4.032405,9.44,1.84,-1.32,8.31
49.284929,4.032377,8.61,1.6,-2.06,9.52
49.284929,4.032377,8.61,0.63,-1.71,10.12
49.284997,4.032341,7.54,-0.78,-1.18,10.1
49.284997,4.032341,7.54,-2.52,-0.57,8.82
49.285057,4.032292,7.17,-3.1,-0.56,8.64
49.285057,4.032292,7.17,-2.15,-1.39,10.37
49.285115,4.032241,6.58,0.57,-1.84,9.53
49.285115,4.032241,6.58,0.89,-2.14,9.0
49.285175,4.03221,6.33,1.52,-2.0,9.9
49.285175,4.03221,6.33,1.03,-2.68,8.94
49.285229,4.032181,6.21,1.5,-2.5,8.99
49.285229,4.032181,6.21,1.46,-2.97,9.93
49.285275,4.032126,6.35,1.26,-2.67,10.02
49.285275,4.032126,6.35,1.45,-2.84,9.52
49.285302,4.032037,7.01,0.61,-3.68,9.61
49.285302,4.032037,7.01,-0.97,-3.28,9.76
49.28531,4.031924,7.76,-0.88,-2.18,9.36
49.28531,4.031924,7.76,-0.58,-2.5,9.87
49.28531,4.031807,8.27,-1.68,-2.74,10.02
49.28531,4.031807,8.27,-0.65,-2.25,9.35
49.285311,4.031677,9.15,-0.5,-2.62,8.55
49.285311,4.031677,9.15,-0.73,-2.83,8.62
49.285313,4.031541,9.83,-1.0,-1.6,9.29
49.285313,4.031541,9.83,-0.97,-2.44,10.47
49.285315,4.0314,10.07,-0.7,-2.06,9.56
49.285315,4.0314,10.07,-1.2,-1.7,10.83
49.285319,4.031254,10.33,-0.7,-1.27,10.44
49.285321,4.031106,10.6,-1.84,-1.86,12.92
49.285321,4.031106,10.6,-0.98,-1.81,10.38
49.285324,4.030967,10.45,-1.13,-1.94,9.99
49.285324,4.030967,10.45,-0.96,-1.67,9.83
49.285327,4.03083,10.3,-0.91,-0.09,10.96
49.285327,4.03083,10.3,-0.33,-0.44,9.47
49.285332,4.030692,9.51,-0.46,-0.08,9.87
49.285332,4.030692,9.51,-0.67,-0.23,10.33
49.285336,4.030568,8.64,-0.87,-1.38,9.94
49.285336,4.030568,8.64,-1.42,-2.47,10.61
49.285338,4.030454,8.03,-0.52,-2.29,10.22
49.285338,4.030454,8.03,-0.61,-2.64,9.93
49.285341,4.03034,8.6,0.07,-2.78,8.85
49.285341,4.03034,8.6,-1.98,-2.67,9.87
49.285341,4.030222,9.1,-0.91,-2.74,9.73
49.285341,4.030222,9.1,-1.23,-2.97,9.62
49.285343,4.030094,9.94,-1.44,-3.12,11.02
49.285343,4.030094,9.94,-0.83,-2.95,9.0
49.285345,4.029947,10.67,-0.9,-2.93,7.89
49.285345,4.029947,10.67,-1.26,-3.37,11.38
49.285349,4.029793,10.87,-1.48,-2.82,9.32
49.285349,4.029793,10.87,-0.76,-2.41,9.27
49.285356,4.029634,11.22,-0.47,-1.32,8.77
49.285356,4.029634,11.22,-1.17,-2.27,10.3
49.285362,4.029469,11.73,-0.77,-1.83,9.03
49.285362,4.029469,11.73,-1.02,-1.05,9.53
49.285368,4.029301,11.75,-0.79,-2.0,8.71
49.285368,4.029301,11.75,0.17,-0.41,10.97
49.285373,4.029138,11.17,-0.37,-1.16,11.06
49.285373,4.029138,11.17,-1.01,-2.35,10.32
49.285377,4.028987,10.3,-1.14,-1.58,9.5
49.285377,4.028987,10.3,-0.71,-1.7,9.57
49.28538,4.028844,9.97,-0.66,-1.62,9.41
49.285384,4.028712,9.43,-0.73,-1.01,9.97
49.285384,4.028712,9.43,-0.75,-0.54,9.78
49.285388,4.028591,8.23,-0.8,-0.78,9.39
49.285388,4.028591,8.23,-1.13,-1.02,8.94
49.285392,4.028491,6.77,-1.04,0.04,9.92
49.285392,4.028491,6.77,-0.91,0.35,10.39
49.285397,4.028419,4.22,-0.18,0.56,9.8
49.285397,4.028419,4.22,-0.23,0.4,9.97
49.285401,4.028386,1.33,-0.49,-0.27,9.81
49.285401,4.028386,1.33,-0.86,-2.0,9.66
49.285401,4.028386,0.0,-0.91,-2.26,9.66
49.285401,4.028386,0.0,-0.93,-2.19,9.46
49.285401,4.028386,0.0,-1.24,-3.21,9.56
49.285401,4.028386,0.0,-1.34,-3.14,9.32
49.285407,4.028365,1.25,-0.75,-2.03,10.0
49.285407,4.028365,1.25,-0.27,0.2,9.99
49.285407,4.028365,0.0,-0.89,-1.99,9.69
49.285407,4.028365,0.0,-1.0,-2.25,9.68
49.285407,4.028365,0.0,-1.04,-2.84,9.37
49.285407,4.028365,0.0,-1.16,-3.15,9.5
49.285407,4.028365,0.0,-0.96,-2.49,9.51
49.285407,4.028365,0.0,-0.93,-2.25,9.76
49.285415,4.028326,0.94,-1.07,-2.41,9.54
49.285415,4.028326,0.94,-1.31,-3.24,9.4
49.285418,4.02831,1.39,-1.36,-3.21,8.69
49.285418,4.02831,1.39,-2.09,-3.5,10.08
49.285425,4.028285,2.48,-2.42,-3.56,9.23
49.285425,4.028285,2.48,-2.95,-2.86,9.79
49.28544,4.028244,3.74,-3.52,-1.44,9.09
49.28544,4.028244,3.74,-3.01,-1.39,8.17
49.285467,4.028194,4.95,-0.11,-3.42,9.59
49.285467,4.028194,4.95,0.8,-3.93,9.74
49.285513,4.028159,5.66,0.99,-3.53,9.97
49.285513,4.028159,5.66,1.15,-3.09,8.62
49.285567,4.028118,6.83,1.3,-3.51,9.25
49.285567,4.028118,6.83,0.11,-2.29,8.71
49.285613,4.028042,7.69,-1.14,-2.6,9.45
49.285651,4.02794,9.0,-2.15,-2.12,10.04
49.285651,4.02794,9.0,-2.35,-2.08,10.86
49.285684,4.027825,8.95,-4.42,-1.83,11.06
49.285684,4.027825,8.95,-4.49,-2.05,10.84
49.28573,4.027724,8.35,-3.47,-2.53,11.7
49.28573,4.027724,8.35,-4.23,-2.31,10.28
49.285787,4.027645,8.25,-2.9,-2.43,9.24
49.285787,4.027645,8.25,-3.12,-2.75,8.26
49.285864,4.027618,8.8,-1.05,-2.74,9.42
49.285864,4.027618,8.8,-1.43,-2.09,9.32
49.285953,4.027614,9.88,-1.03,-2.32,9.27
49.285953,4.027614,9.88,-0.17,-2.49,8.67
49.286059,4.02763,10.34,-0.57,-1.13,9.6
49.286059,4.02763,10.34,-0.18,-1.64,9.56
49.286162,4.02765,10.26,-0.59,-1.02,9.6
49.286162,4.02765,10.26,-1.31,0.28,9.7
49.286255,4.027669,9.04,-1.2,0.44,9.84
49.286255,4.027669,9.04,-0.76,-0.16,10.87
49.286329,4.027694,7.02,-1.22,-1.31,9.94
49.286329,4.027694,7.02,-1.59,-2.15,9.07
49.286389,4.027729,6.56,-2.15,-2.43,10.18
49.286389,4.027729,6.56,-2.09,-2.94,9.36
49.286441,4.027776,6.95,-1.47,-2.65,10.18
49.286441,4.027776,6.95,-1.37,-2.95,9.74
49.28649,4.027852,8.22,0.3,-3.06,9.99
49.28649,4.027852,8.22,0.6,-1.98,9.31
49.28654,4.027949,8.73,1.2,-1.63,8.75
49.28654,4.027949,8.73,1.54,-1.54,10.6
49.286597,4.028049,9.15,1.83,-2.21,9.6
49.286597,4.028049,9.15,2.48,-1.84,9.68
49.286668,4.028134,9.4,2.56,-1.78,11.01
49.286668,4.028134,9.4,2.42,-1.72,9.69
49.286749,4.028184,9.4,2.84,-2.0,9.94
49.286749,4.028184,9.4,2.53,-2.23,9.14
49.286832,4.028198,9.54,2.69,-2.02,9.21
49.286832,4.028198,9.54,2.34,-1.97,9.34
49.286917,4.028169,9.51,0.77,-2.21,9.73
49.286917,4.028169,9.51,-0.53,-3.03,9.89
49.287,4.028104,10.22,-0.46,-2.73,9.58
49.28708,4.028022,10.57,-2.28,-2.32,9.96
49.28708,4.028022,10.57,-1.95,-1.58,10.09
49.287162,4.027939,10.75,-3.03,-3.24,12.05
49.287162,4.027939,10.75,-3.28,-2.31,9.54
49.287258,4.027875,11.17,-1.92,-2.52,9.74
49.287258,4.027875,11.17,-1.7,-3.27,9.87
49.287365,4.027853,12.11,-0.53,-3.43,10.01
49.287365,4.027853,12.11,-0.04,-2.68,8.69
49.28748,4.027855,12.73,-0.07,-2.34,9.77
49.28748,4.027855,12.73,-0.15,-2.18,9.16
49.287601,4.027854,13.34,-0.05,-2.45,9.15
49.287601,4.027854,13.34,0.47,-3.05,7.88
49.287726,4.027854,13.78,0.49,-2.6,8.94
49.287726,4.027854,13.78,0.26,-2.48,10.4
49.287862,4.027855,14.87,-0.1,-2.77,9.79
49.287862,4.027855,14.87,0.16,-1.9,8.86
49.288003,4.027856,15.66,-0.37,-1.89,9.71
49.288003,4.027856,15.66,0.19,-2.57,9.12
49.288149,4.027859,16.01,0.38,-2.26,9.73
49.288149,4.027859,16.01,0.07,-0.88,7.18
49.288298,4.027862,16.28,0.17,-2.55,10.51
49.288298,4.027862,16.28,-0.26,-1.69,9.16
49.28845,4.027869,16.6,-0.55,-3.16,9.15
49.28845,4.027869,16.6,0.4,-1.44,9.48
49.288603,4.027876,17.0,0.52,-1.83,11.68
49.288603,4.027876,17.0,0.03,-1.32,9.71
49.288756,4.027886,17.0,0.04,-1.58,9.94
49.288756,4.027886,17.0,0.43,-1.5,9.93
49.288906,4.027897,16.67,0.03,-1.44,9.94
49.288906,4.027897,16.67,-0.13,-2.04,10.68
49.289053,4.027908,16.36,0.04,-1.78,9.59
49.289053,4.027908,16.36,0.91,-0.82,9.51
49.289194,4.027917,15.55,-0.4,-1.82,9.95
49.289194,4.027917,15.55,-0.2,-1.03,9.51
49.289333,4.027926,15.38,0.04,-1.35,11.31
49.289333,4.027926,15.38,-0.54,-1.1,9.91
49.289468,4.027937,14.45,-0.12,-1.57,9.64
49.289596,4.027948,14.08,-0.66,-0.96,10.62
49.289596,4.027948,14.08,-0.21,-1.34,10.41
49.289714,4.02796,12.76,-0.06,-0.95,10.3
49.289714,4.02796,12.76,0.18,-0.76,9.39
49.289824,4.02797,12.12,-0.14,-0.42,9.57
49.289824,4.02797,12.12,-0.23,-1.17,10.53
49.289927,4.02798,11.09,-0.25,-0.68,9.44
49.289927,4.02798,11.09,-0.22,-0.97,11.54
49.29002,4.027994,10.31,-0.34,-0.81,9.28
49.29002,4.027994,10.31,-1.41,-1.99,9.65
49.290107,4.028012,9.73,-1.31,-1.82,10.55
49.290107,4.028012,9.73,-1.19,-1.94,9.76
49.29019,4.028044,9.55,-1.74,-2.13,9.31
49.29019,4.028044,9.55,-1.89,-2.45,9.18
49.290269,4.028089,9.33,-0.37,-2.06,9.57
49.290269,4.028089,9.33,0.68,-1.85,9.89
49.290343,4.02815,9.32,1.83,-1.5,9.64
49.290343,4.02815,9.32,2.75,-1.36,9.83
49.290416,4.028206,8.83,2.82,-1.42,9.58
49.290416,4.028206,8.83,2.8,-1.82,9.17
49.290495,4.02823,8.67,2.86,-2.03,9.02
49.290495,4.02823,8.67,2.37,-2.27,9.85
49.290575,4.028214,9.1,0.7,-2.15,9.83
49.290575,4.028214,9.1,-1.17,-2.26,8.52
49.290654,4.028153,9.61,-2.25,-2.37,9.15
49.290654,4.028153,9.61,-2.1,-2.64,9.0
49.290736,4.028092,9.83,-2.2,-3.38,10.6
49.290736,4.028092,9.83,-1.57,-2.59,9.44
49.290828,4.028055,10.62,-0.73,-3.38,9.39
49.290828,4.028055,10.62,-1.17,-2.86,9.61
49.290927,4.028054,11.01,-0.4,-2.42,9.18
49.290927,4.028054,11.01,-0.17,-3.01,10.25
49.291036,4.028067,12.05,-0.07,-3.0,9.5
49.291036,4.028067,12.05,-0.14,-1.93,9.84
49.291157,4.028083,13.23,0.28,-1.86,10.08
49.291157,4.028083,13.23,0.2,-2.5,11.99
49.291291,4.028098,15.05,-0.12,-1.58,8.15
49.291291,4.028098,15.05,-0.25,-2.63,9.72
49.291433,4.028111,15.83,0.19,-3.45,10.35
49.291433,4.028111,15.83,-0.3,-1.83,9.61
49.291578,4.028124,16.28,0.01,-2.17,10.31
49.291729,4.028139,16.81,-0.21,-1.74,9.53
49.291729,4.028139,16.81,-0.17,-2.13,9.71
49.291884,4.028154,17.25,-0.06,-2.38,10.83
49.291884,4.028154,17.25,-1.28,-2.05,10.75
49.29204,4.02817,17.4,-0.35,-1.44,9.2
49.29204,4.02817,17.4,0.57,-1.49,9.2
49.2922,4.028186,17.58,-0.43,-2.06,10.23
49.2922,4.028186,17.58,-1.46,-2.62,9.98
49.292362,4.028204,17.7,0.07,-1.46,9.7
49.292362,4.028204,17.7,-0.28,-1.51,8.95
49.292522,4.028222,17.71,-0.67,-0.99,10.38
49.292522,4.028222,17.71,-0.75,-1.37,8.82
49.292681,4.028241,17.5,-0.32,-1.3,9.38
49.292681,4.028241,17.5,-0.63,-0.75,8.9
49.292837,4.02826,17.22,0.13,-1.08,9.38
49.292837,4.02826,17.22,-0.18,-2.0,10.64
49.292991,4.028277,16.97,-0.68,-1.86,9.81
49.292991,4.028277,16.97,0.04,-2.21,10.68
49.293143,4.028293,16.95,-0.62,-2.47,10.24
49.293143,4.028293,16.95,-0.85,-1.65,10.08
49.293296,4.028309,16.93,-0.13,-1.67,11.09
49.293296,4.028309,16.93,-0.78,-1.58,9.22
49.293449,4.028325,17.02,-0.77,-1.7,8.75
49.293449,4.028325,17.02,-0.42,-1.45,9.59
49.293602,4.028342,17.09,-0.61,-1.72,9.44
49.293602,4.028342,17.09,-0.49,-1.12,8.68
49.293756,4.02836,17.24,-0.08,-2.02,9.52
49.293756,4.02836,17.24,0.05,-1.38,9.62
49.293911,4.028377,17.39,-0.26,-1.75,9.41
49.293911,4.028377,17.39,0.23,-1.69,10.0
49.29407,4.028396,18.04,-0.92,-1.89,9.42
49.29407,4.028396,18.04,-0.14,-2.84,9.49
49.294236,4.028415,18.56,-0.79,-2.82,9.76
49.294236,4.028415,18.56,0.02,-1.81,9.89
49.294409,4.028434,19.11,-0.67,-2.2,9.53
49.29458,4.028454,19.5,-0.39,-2.05,9.41
49.29458,4.028454,19.5,-0.29,-1.83,8.24
49.294755,4.028474,19.92,-0.13,-1.77,8.49
49.294755,4.028474,19.92,-0.91,-1.58,8.6
49.294933,4.028495,20.21,-1.33,-1.95,10.36
49.294933,4.028495,20.21,0.02,-1.97,9.63
49.295115,4.028515,20.55,-0.08,-1.71,9.86
49.295115,4.028515,20.55,-0.69,-2.39,10.75
49.295301,4.028538,20.88,-0.28,-1.39,9.38
49.295301,4.028538,20.88,0.44,-2.04,9.13
49.29549,4.02856,21.0,-0.4,-1.32,9.79
49.29549,4.02856,21.0,0.14,-1.65,10.12
49.295682,4.028584,21.15,0.76,-1.93,9.66
49.295682,4.028584,21.15,-0.13,-0.99,9.5
49.295871,4.028606,21.24,0.27,-0.98,10.3
49.295871,4.028606,21.24,-0.06,-0.63,8.22
49.296062,4.028627,21.16,-0.27,-1.69,9.48
49.296062,4.028627,21.16,0.19,-1.39,10.37
49.296252,4.028649,21.03,-0.98,-0.96,8.85
49.296252,4.028649,21.03,-0.17,-2.09,10.14
49.296442,4.028668,21.07,-0.09,-1.52,11.12
49.296442,4.028668,21.07,-0.83,-1.68,8.83
49.29663,4.02869,21.0,-0.05,-1.82,10.52
49.29663,4.02869,21.0,0.14,-2.15,11.01
49.296817,4.028712,20.86,-0.17,-1.3,9.28
49.296817,4.028712,20.86,-0.36,-1.18,10.44
49.297003,4.028733,20.73,-0.82,-0.82,9.48
49.297003,4.028733,20.73,-0.47,-0.58,8.13
49.297188,4.028752,20.6,0.09,-1.61,11.02
49.297188,4.028752,20.6,-0.34,-1.34,8.94
49.297371,4.028773,20.51,-0.25,-1.76,10.22
49.297371,4.028773,20.51,0.58,-0.17,9.8
49.297555,4.028793,20.37,0.67,-1.16,7.62
49.297555,4.028793,20.37,0.31,-1.19,9.5
49.297737,4.028813,20.26,1.37,-1.24,10.82
49.297737,4.028813,20.26,1.47,0.03,11.25
49.297916,4.028833,19.93,1.12,-1.79,10.29
49.297916,4.028833,19.93,-0.35,-1.78,11.64
49.298092,4.028842,19.49,1.44,-1.37,9.47
49.298092,4.028842,19.49,0.69,-2.19,8.86
49.29826,4.028837,19.21,0.85,-0.81,10.47
49.298428,4.028819,18.87,0.9,-1.09,9.01
49.298428,4.028819,18.87,0.57,-2.16,10.69
49.298587,4.028788,18.58,0.47,-1.35,8.21
49.298587,4.028788,18.58,-0.06,-1.02,9.88
49.298746,4.028749,17.74,0.76,-0.7,9.39
49.298746,4.028749,17.74,0.4,-0.81,10.08
49.298904,4.028696,17.0,0.76,-0.79,10.49
49.298904,4.028696,17.0,0.57,-1.23,11.67
49.299056,4.028629,16.4,-0.41,-0.45,7.77
49.299056,4.028629,16.4,-0.92,-0.05,9.38
49.299194,4.02856,14.64,-0.56,-0.55,12.56
49.299194,4.02856,14.64,-1.07,-0.17,9.86
49.299317,4.02851,13.35,-0.82,-0.97,10.6
49.299317,4.02851,13.35,-1.51,-0.56,9.69
49.299433,4.028478,12.52,-2.07,-0.76,8.98
49.299433,4.028478,12.52,-1.82,-0.64,8.6
49.299541,4.028473,11.64,-1.37,-1.79,10.96
49.299541,4.028473,11.64,0.48,-0.97,11.27
49.299644,4.028488,11.11,1.2,-1.99,10.68
49.299644,4.028488,11.11,2.1,-0.87,10.09
49.299738,4.0285,10.55,2.78,-1.72,10.12
49.299738,4.0285,10.55,3.3,-1.87,10.88
49.299825,4.028485,10.4,0.47,-2.12,9.66
49.299825,4.028485,10.4,-1.65,-2.1,11.16
49.299908,4.028425,10.55,-2.82,-2.35,9.32
49.299908,4.028425,10.55,-2.63,-2.94,10.81
49.299986,4.028337,11.06,-2.19,-3.12,10.1
49.299986,4.028337,11.06,-2.06,-2.02,9.88
49.300085,4.028293,11.62,-1.51,-2.66,9.33
49.300085,4.028293,11.62,-0.54,-3.63,10.31
49.300196,4.028271,12.79,-0.88,-2.72,9.4
49.300196,4.028271,12.79,0.14,-2.79,9.69
49.300315,4.028276,13.77,-0.08,-2.34,11.12
49.300315,4.028276,13.77,0.14,-2.93,7.22
49.300444,4.028273,14.53,-0.82,-2.85,8.18
49.300444,4.028273,14.53,-0.18,-2.52,9.19
49.300581,4.028271,15.17,0.56,-3.63,9.74
49.300581,4.028271,15.17,0.59,-2.89,10.3
49.300732,4.02826,15.78,-0.59,-3.26,10.15
49.300732,4.02826,15.78,-0.88,-2.98,11.31
49.300886,4.028245,16.45,-0.06,-2.39,10.28
49.301041,4.028219,17.32,-0.04,-1.85,9.77
49.301041,4.028219,17.32,-0.14,-1.33,10.45
49.301201,4.028196,17.62,0.7,-1.88,7.98
49.301201,4.028196,17.62,0.81,-1.99,8.02
49.301364,4.028168,17.98,-0.08,-2.34,9.68
49.301364,4.028168,17.98,-0.47,-1.72,10.83
49.301528,4.028138,18.37,0.05,-2.78,10.79
49.301528,4.028138,18.37,0.48,-1.84,9.33
49.301696,4.028101,18.69,-0.04,-1.81,9.76
49.301696,4.028101,18.69,-0.07,-2.84,10.83
49.301867,4.028065,19.09,-0.16,-1.68,10.33
49.301867,4.028065,19.09,0.06,-2.06,7.7
49.302038,4.028026,19.34,0.91,-2.7,10.16
49.302038,4.028026,19.34,-0.1,-2.25,8.94
49.302215,4.02799,19.74,-0.55,-2.03,9.74
49.302215,4.02799,19.74,-0.31,-2.29,10.28
49.302392,4.027951,19.93,-0.65,-1.29,8.9
49.302392,4.027951,19.93,-0.08,-2.15,9.52
49.302569,4.027908,20.05,-0.31,-1.9,10.87
49.302569,4.027908,20.05,-0.04,-2.58,10.98
49.302749,4.027866,20.25,-0.35,-2.02,9.9
49.302749,4.027866,20.25,-0.11,-1.92,9.08
49.302932,4.027826,20.4,-0.05,-2.44,10.74
49.302932,4.027826,20.4,0.72,-1.05,9.59
49.303114,4.027779,20.57,-0.17,-1.53,10.12
49.303114,4.027779,20.57,-0.19,-1.59,9.18
49.303296,4.027736,20.62,-0.44,-2.13,9.24
49.303296,4.027736,20.62,0.3,-2.1,10.09
49.303475,4.027691,20.65,0.82,-1.94,9.27
49.303475,4.027691,20.65,0.16,-1.83,10.23
49.303657,4.027641,20.76,-0.43,-1.93,8.62
49.303657,4.027641,20.76,-0.25,-2.07,8.95
49.303841,4.027595,21.07,-0.55,-2.56,9.8
49.303841,4.027595,21.07,-0.12,-2.19,8.67
49.30403,4.027547,21.15,0.16,-2.41,9.88
49.30403,4.027547,21.15,0.53,-1.36,10.14
49.304219,4.027495,21.09,0.51,-1.16,7.82
49.304219,4.027495,21.09,-0.32,-1.55,9.77
49.304407,4.027452,21.13,0.18,-1.42,10.36
49.304407,4.027452,21.13,-0.08,-1.88,8.6
49.304594,4.0274,21.18,-1.21,-1.84,11.84
49.304594,4.0274,21.18,-0.5,-2.32,9.47
49.30478,4.027354,21.11,0.21,-1.92,9.81
49.304967,4.027307,21.15,0.36,-1.33,9.17
49.304967,4.027307,21.15,0.13,-1.24,9.59
49.305156,4.027275,21.04,0.26,-1.53,9.77
49.305156,4.027275,21.04,0.75,-1.48,10.6
49.305344,4.027245,20.94,-0.07,-1.72,10.33
49.305344,4.027245,20.94,0.17,-1.92,9.67
49.305531,4.027195,20.96,-0.18,-2.07,10.32
49.305531,4.027195,20.96,-0.06,-2.9,10.94
49.305718,4.027143,20.96,-0.14,-2.22,10.22
49.305718,4.027143,20.96,0.37,-2.19,9.87
49.305907,4.027095,21.02,-0.09,-2.23,9.96
49.305907,4.027095,21.02,0.06,-2.24,10.07
49.306098,4.027054,21.01,-0.19,-2.4,8.78
49.306098,4.027054,21.01,0.11,-1.6,9.52
49.306284,4.027015,21.01,-0.24,-1.93,8.96
49.306284,4.027015,21.01,-0.62,-1.97,9.48
49.306468,4.026974,20.97,0.24,-1.61,9.22
49.306468,4.026974,20.97,0.29,-2.19,10.86
49.306654,4.026928,21.2,-0.07,-1.7,9.43
49.306654,4.026928,21.2,-0.01,-1.89,10.42
49.30684,4.026867,21.24,0.14,-1.76,9.64
49.30684,4.026867,21.24,-0.21,-1.52,10.02
49.307028,4.026803,21.34,-0.14,-2.6,9.89
49.307028,4.026803,21.34,0.23,-2.2,10.32
49.307213,4.026731,21.43,0.1,-1.86,11.8
49.307213,4.026731,21.43,0.87,-1.59,10.51
49.307396,4.026649,21.47,0.57,-1.6,9.54
49.307396,4.026649,21.47,0.45,-2.16,10.59
49.307577,4.026556,21.47,-0.07,-2.33,9.23
49.307577,4.026556,21.47,0.4,-1.46,9.98
49.307759,4.026458,21.58,-0.51,-1.1,10.1
49.307759,4.026458,21.58,0.19,-1.9,9.21
49.307936,4.026357,21.51,0.4,-1.89,10.37
49.307936,4.026357,21.51,0.34,-1.7,9.53
49.308115,4.026254,21.62,-0.34,-2.04,8.91
49.308115,4.026254,21.62,0.97,-2.65,9.87
49.30829,4.026139,21.73,-0.29,-2.07,9.43
49.30829,4.026139,21.73,0.1,-1.58,10.34
49.308465,4.026004,21.82,0.38,-2.23,9.77
49.308465,4.026004,21.82,0.27,-1.84,9.9
49.308643,4.02586,22.07,0.23,-2.03,9.06
49.308813,4.025705,22.18,0.22,-1.69,8.64
49.308813,4.025705,22.18,0.22,-2.22,9.32
49.308985,4.02554,22.43,0.63,-2.12,8.49
49.308985,4.02554,22.43,-0.49,-1.5,11.12
49.309152,4.025371,22.56,0.19,-1.94,10.97
49.309152,4.025371,22.56,-0.4,-1.71,10.0
49.309328,4.025203,22.73,0.54,-1.82,9.46
49.309328,4.025203,22.73,-0.35,-2.11,8.53
49.309504,4.025029,22.87,0.2,-1.31,11.18
49.309504,4.025029,22.87,0.08,-1.98,10.95
49.309676,4.024861,23.05,0.66,-1.87,9.45
49.309676,4.024861,23.05,-0.03,-2.07,9.79
49.309851,4.024683,23.27,-0.14,-1.89,9.15
49.309851,4.024683,23.27,1.16,-1.83,10.51
49.310025,4.024505,23.45,-0.38,-1.47,8.84
49.310025,4.024505,23.45,-0.3,-1.89,10.34
49.3102,4.024333,23.63,0.08,-2.3,9.56
49.3102,4.024333,23.63,0.59,-2.26,11.72
49.310379,4.024158,23.76,0.42,-1.13,9.86
49.310379,4.024158,23.76,-0.22,-2.22,9.13
49.310558,4.023977,23.9,-0.66,-2.37,9.76
49.310558,4.023977,23.9,0.11,-1.41,10.7
49.310739,4.023797,24.17,-0.03,-1.74,8.82
49.310739,4.023797,24.17,-0.55,-1.93,9.82
49.310922,4.02361,24.3,-0.12,-1.5,8.14
49.310922,4.02361,24.3,0.28,-1.77,8.62
49.311106,4.02342,24.46,-0.13,-2.23,8.89
49.311106,4.02342,24.46,-0.58,-2.65,11.19
49.311295,4.023244,24.63,-1.23,-1.48,9.69
49.311295,4.023244,24.63,-0.63,-1.44,9.17
49.311483,4.023073,24.7,-0.92,-1.63,9.11
49.311483,4.023073,24.7,-0.7,-2.13,9.68
49.311677,4.022907,24.69,-1.14,-1.23,9.84
49.311677,4.022907,24.69,-1.06,-1.78,9.07
49.311876,4.022747,24.91,-0.11,-1.67,8.75
49.311876,4.022747,24.91,-1.43,-1.24,9.12
49.312078,4.022599,24.84,-2.12,-1.76,8.8
49.312078,4.022599,24.84,-1.2,-1.08,9.28
49.312287,4.022468,24.81,-1.7,-0.83,8.65
49.312287,4.022468,24.81,-1.01,-1.83,10.98
49.312497,4.022356,24.59,-1.24,-1.3,10.08
49.312497,4.022356,24.59,-1.12,-1.38,10.2
49.312711,4.022266,24.48,-0.57,-0.95,9.8
49.31293,4.022198,24.42,-0.96,-1.57,10.19
49.31293,4.022198,24.42,-1.47,-1.81,8.78
49.313149,4.022145,24.41,-0.76,-1.47,9.28
49.313149,4.022145,24.41,-1.18,0.1,7.86
49.313374,4.022114,24.45,-0.97,-2.26,7.67
49.313374,4.022114,24.45,-1.58,-1.67,9.45
49.31359,4.022096,24.4,-1.65,-1.97,9.38
49.31359,4.022096,24.4,-0.3,-2.22,10.69
49.313806,4.022099,24.22,-0.6,-1.8,7.54
49.313806,4.022099,24.22,-1.5,-1.53,8.92
49.314022,4.022116,24.17,-1.46,-1.85,10.09
49.314022,4.022116,24.17,-2.23,-1.86,9.79
49.314248,4.022138,24.31,0.1,-1.34,11.15
49.314248,4.022138,24.31,-1.59,-0.96,9.05
49.314466,4.022175,24.14,-0.09,-1.77,12.27
49.314466,4.022175,24.14,-0.59,-1.33,11.88
49.314677,4.022232,24.07,-1.12,-2.17,8.83
49.314677,4.022232,24.07,-1.17,-0.41,10.97
49.314889,4.022309,24.08,-2.17,-2.12,7.61
49.314889,4.022309,24.08,-1.59,-2.5,11.57
49.315098,4.022399,23.9,-2.38,-2.22,9.46
49.315098,4.022399,23.9,-1.26,-0.38,9.61
49.315302,4.02251,23.86,-0.82,-1.6,9.96
49.315302,4.02251,23.86,-0.94,-1.6,10.84
49.315501,4.022633,23.58,-0.41,-1.81,11.78
49.315501,4.022633,23.58,-1.57,-2.85,9.74
49.315691,4.022762,23.22,-0.43,-1.36,11.0
49.315691,4.022762,23.22,-1.53,-1.61,10.29
49.315874,4.022905,22.98,-0.57,-2.25,7.82
49.315874,4.022905,22.98,-1.13,-1.13,10.03
49.316054,4.023058,22.63,-0.71,-1.85,10.45
49.316054,4.023058,22.63,-1.66,-1.71,8.4
49.316229,4.023223,22.58,-1.01,-1.8,8.3
49.316229,4.023223,22.58,-1.3,-1.89,11.79
49.316396,4.023391,22.56,-0.84,-1.31,10.27
49.316396,4.023391,22.56,-1.1,-1.83,8.92
49.316558,4.023573,22.4,-1.18,-2.6,12.09
49.316558,4.023573,22.4,-0.67,-0.79,8.69
49.316709,4.023766,22.44,-1.53,-2.3,8.92
49.316857,4.02397,22.63,-0.52,-2.68,10.93
49.316857,4.02397,22.63,-0.35,-2.17,8.74
49.317005,4.024186,22.77,-0.65,-1.51,11.01
49.317005,4.024186,22.77,0.12,-2.51,7.95
49.317154,4.024411,23.03,0.2,-1.98,9.17
49.317154,4.024411,23.03,-0.3,-1.97,8.91
49.317305,4.024638,23.26,-0.04,-2.56,8.93
49.317305,4.024638,23.26,-0.64,-1.63,9.49
49.317461,4.02487,23.67,-0.41,-1.54,8.6
49.317461,4.02487,23.67,0.46,-1.35,10.39
49.317619,4.025101,23.96,-0.72,-2.7,9.94
49.317619,4.025101,23.96,-0.39,-2.06,6.92
49.317779,4.02534,24.42,-0.87,-2.32,9.21
49.317779,4.02534,24.42,-0.27,-1.52,9.59
49.317937,4.025579,24.57,0.56,-0.91,12.04
49.317937,4.025579,24.57,0.3,-1.49,7.67
49.318091,4.025811,24.67,-0.4,-1.15,8.2
49.318091,4.025811,24.67,-1.58,-2.89,9.59
49.318248,4.02605,24.74,1.03,-1.1,9.93
49.318248,4.02605,24.74,-0.26,-1.66,8.6
49.318404,4.026295,24.81,0.64,-2.86,8.48
49.318404,4.026295,24.81,0.03,-1.79,8.13
49.318562,4.026539,25.01,0.01,-0.84,8.71
49.318562,4.026539,25.01,0.68,-1.11,9.54
49.31872,4.026787,25.16,-0.32,-2.49,10.34
49.31872,4.026787,25.16,0.03,-1.26,9.33
49.318881,4.027032,25.46,0.53,-1.78,7.61
49.318881,4.027032,25.46,-0.45,-1.43,10.25
49.319041,4.027269,25.44,0.25,-1.98,11.07
49.319041,4.027269,25.44,-0.53,-2.31,10.72
49.319209,4.027519,25.54,-0.3,-0.81,10.96
49.319209,4.027519,25.54,0.28,-0.59,9.06
49.319378,4.027771,25.62,-0.62,-1.39,10.07
49.319378,4.027771,25.62,-0.08,-1.06,8.28
49.319538,4.028023,25.42,0.06,-1.47,10.61
49.319538,4.028023,25.42,0.06,-1.69,10.95
49.319699,4.028272,25.31,-0.03,-0.68,8.18
49.319699,4.028272,25.31,-0.75,-1.08,9.14
49.319858,4.028516,25.01,0.13,-1.55,9.17
49.319858,4.028516,25.01,-0.72,-0.84,8.43
49.32001,4.02875,24.64,0.01,-1.45,10.64
49.32018,4.028988,24.22,-0.02,-1.14,9.77
49.32018,4.028988,24.22,-0.61,-1.78,9.57
49.320345,4.029215,24.1,0.42,-0.63,10.8
49.320345,4.029215,24.1,-0.21,-1.51,10.26
49.320505,4.029436,23.83,0.34,-1.47,9.99
49.320505,4.029436,23.83,-0.29,-1.3,9.03
49.320665,4.029634,23.74,0.82,-1.48,10.5
49.320665,4.029634,23.74,0.06,-1.54,10.68
49.320833,4.029829,23.66,0.38,-0.86,8.85
49.320833,4.029829,23.66,-0.28,-1.58,11.0
49.320999,4.030019,23.57,-0.23,-1.75,10.12
49.320999,4.030019,23.57,-0.24,-1.85,8.88
49.321173,4.0302,23.48,0.36,-1.7,10.44
49.321173,4.0302,23.48,0.12,-1.98,10.01
49.321351,4.030357,23.71,0.33,-1.13,6.39
49.321351,4.030357,23.71,0.01,-1.42,9.84
49.32153,4.030515,23.82,-0.19,-1.4,8.48
49.32153,4.030515,23.82,0.69,-1.88,9.72
49.321721,4.030654,23.85,0.32,-1.48,9.51
49.321721,4.030654,23.85,-0.1,-1.51,8.55
49.321921,4.030801,24.0,-0.08,-1.08,8.45
49.321921,4.030801,24.0,-0.21,-1.49,9.8
49.322124,4.030943,24.16,-0.4,-2.36,10.22
49.322124,4.030943,24.16,-0.15,-1.76,9.1
49.322323,4.031071,23.97,-0.18,-1.24,11.31
49.322323,4.031071,23.97,-0.69,-1.98,10.57
49.322532,4.031202,24.26,-0.14,-1.58,9.22
49.322532,4.031202,24.26,0.48,-1.78,11.36
49.322737,4.031319,24.26,-0.79,-2.39,10.2
49.322737,4.031319,24.26,0.06,-1.98,9.86
49.322939,4.031446,24.36,1.2,-1.44,10.72
49.322939,4.031446,24.36,0.08,-1.47,9.61
49.323146,4.031545,24.25,1.5,-1.19,9.98
49.323146,4.031545,24.25,1.4,-1.42,8.79
49.323354,4.031625,24.23,0.73,-1.24,9.14
49.323354,4.031625,24.23,1.0,-1.24,11.15
49.323566,4.031701,24.28,0.48,-1.24,9.94
49.323566,4.031701,24.28,0.35,-1.16,9.83
49.323782,4.031758,24.3,1.09,-1.96,12.79
49.323782,4.031758,24.3,-0.64,-0.87,11.08
49.323996,4.03179,24.11,-1.01,-2.17,10.6
49.323996,4.03179,24.11,-0.81,-1.89,8.11
49.324215,4.031821,24.08,-1.22,-1.98,9.06
49.32443,4.031841,23.72,0.03,-1.75,11.09
49.32443,4.031841,23.72,-0.45,-1.16,9.28
49.324644,4.031859,23.84,-0.21,-1.02,9.89
49.324644,4.031859,23.84,-0.08,-1.84,8.89
49.324856,4.031889,23.75,1.05,-2.46,9.41
49.324856,4.031889,23.75,-0.3,-0.78,9.13
49.325073,4.031917,24.05,0.55,-1.85,8.99
49.325073,4.031917,24.05,-0.28,-1.92,8.77
49.325292,4.031943,23.83,-0.11,-2.23,8.87
49.325292,4.031943,23.83,-0.76,-2.26,8.89
49.325508,4.031968,23.58,-0.92,-2.51,11.14
49.325508,4.031968,23.58,-1.0,-1.8,12.03
49.325721,4.031995,23.58,0.33,-0.79,7.44
49.325721,4.031995,23.58,-1.28,-2.53,9.02
49.325934,4.032024,23.5,0.48,-1.69,7.99
49.325934,4.032024,23.5,-1.05,-2.48,9.26
49.326147,4.032039,23.48,0.79,-1.4,8.73
49.326147,4.032039,23.48,-0.16,-1.37,10.9
49.32636,4.032057,23.47,-1.48,-1.72,8.24
49.32636,4.032057,23.47,1.06,-1.26,9.23
49.326572,4.032077,23.39,-0.18,-1.85,8.88
49.326572,4.032077,23.39,-0.09,-2.15,9.57
49.326783,4.0321,23.4,0.03,-1.33,8.79
49.326783,4.0321,23.4,0.16,-1.69,7.19
49.326988,4.03212,23.3,-1.41,-1.0,8.78
49.326988,4.03212,23.3,0.92,-1.91,11.32
49.327197,4.032142,23.14,-0.34,-1.42,8.29
49.327197,4.032142,23.14,-0.61,-1.98,9.66
49.327408,4.032166,23.12,-0.87,-2.44,10.91
49.327408,4.032166,23.12,0.09,-1.88,9.5
49.327614,4.032188,23.11,0.11,-1.54,9.38
49.327614,4.032188,23.11,0.5,-1.98,9.56
49.327821,4.03221,23.13,0.03,-2.13,9.8
49.327821,4.03221,23.13,0.17,-2.5,9.72
49.328031,4.03223,23.22,0.51,-1.65,10.32
49.328031,4.03223,23.22,0.32,-1.91,9.79
49.328236,4.032254,23.41,0.91,-2.04,10.46
49.328236,4.032254,23.41,-0.11,-2.41,8.16
49.328446,4.032275,23.52,-0.11,-2.77,8.79
49.328446,4.032275,23.52,1.33,-1.67,10.11
49.328659,4.032297,23.64,0.41,-2.63,8.49
49.328872,4.032319,23.86,0.01,-0.73,8.86
49.328872,4.032319,23.86,-1.49,-1.66,8.32
49.329088,4.032343,24.1,0.7,-2.08,10.76
49.329088,4.032343,24.1,-0.26,-2.13,11.03
49.329305,4.032367,24.29,-0.82,-2.6,9.63
49.329305,4.032367,24.29,1.21,-1.2,11.5
49.329524,4.032395,24.5,0.07,-2.36,10.46
49.329524,4.032395,24.5,0.24,-1.24,8.65
49.329745,4.032419,24.58,-0.83,-2.09,9.44
49.329745,4.032419,24.58,-1.7,-2.61,9.05
49.329967,4.032441,24.74,0.19,-0.8,10.76
49.329967,4.032441,24.74,0.4,-1.5,8.74
49.330187,4.032466,24.73,-0.09,-1.94,8.15
49.330187,4.032466,24.73,-0.33,-3.24,9.75
49.33041,4.032491,24.66,0.59,-1.85,9.84
49.33041,4.032491,24.66,-0.44,-1.18,9.03
49.330632,4.032516,24.52,-0.55,-1.19,11.39
49.330632,4.032516,24.52,-1.05,-0.94,8.05
49.330849,4.032538,24.45,-0.43,-1.1,9.04
49.330849,4.032538,24.45,-0.54,-1.4,10.35
49.331069,4.032565,24.34,-0.16,-2.13,8.67
49.331069,4.032565,24.34,-0.29,-1.88,8.05
49.331288,4.032589,24.14,0.21,-1.91,10.84
49.331288,4.032589,24.14,0.47,-1.71,9.82
49.331501,4.032613,24.07,-0.04,-2.66,10.79
49.331501,4.032613,24.07,-0.5,-1.72,9.08
49.331715,4.032638,23.93,0.24,-1.94,10.71
49.331715,4.032638,23.93,0.23,-1.36,11.32
49.331928,4.032661,23.72,0.04,-2.53,11.67
49.331928,4.032661,23.72,0.16,-2.82,9.21
49.332137,4.032684,23.63,0.07,-1.4,11.03
49.332137,4.032684,23.63,-0.17,-2.03,8.33
49.332348,4.032709,23.58,0.08,-2.58,10.98
49.332348,4.032709,23.58,0.71,-2.77,7.68
49.332558,4.032729,23.49,-0.3,-1.6,8.55
49.332558,4.032729,23.49,0.46,-1.31,10.93
49.332768,4.032751,23.46,-0.08,-1.8,8.07
49.332768,4.032751,23.46,-0.41,-1.38,9.54
49.332979,4.032774,23.46,-0.15,-2.17,8.69
49.332979,4.032774,23.46,-0.5,-1.4,11.28
49.333188,4.0328,23.49,-0.15,-2.18,9.99
49.333188,4.0328,23.49,-0.55,-1.4,9.64
49.333398,4.032823,23.41,0.86,-1.71,12.76
49.333606,4.032845,23.27,-0.96,-0.52,8.69
49.333606,4.032845,23.27,0.85,-2.16,8.46
49.333815,4.032866,23.19,0.46,-1.41,8.42
49.333815,4.032866,23.19,1.17,-1.37,9.25
49.334021,4.032889,23.16,0.25,-1.47,9.96
49.334021,4.032889,23.16,0.45,-2.75,10.66
49.334229,4.032913,23.0,-0.54,-2.07,9.18
49.334229,4.032913,23.0,-0.91,-1.78,9.38
49.334436,4.032938,22.98,0.51,-2.9,7.86
49.334436,4.032938,22.98,0.45,-2.07,8.29
49.334643,4.032963,22.92,1.36,-2.49,8.9
49.334643,4.032963,22.92,0.0,-2.28,9.41
49.334848,4.032983,22.88,-0.17,-2.2,10.08
49.334848,4.032983,22.88,0.39,-0.6,10.25
49.335055,4.033004,22.87,0.35,-1.85,9.42
49.335055,4.033004,22.87,0.62,-1.54,7.5
49.335262,4.033025,22.86,0.54,-1.0,11.84
49.335262,4.033025,22.86,0.35,-1.37,10.82
49.335465,4.033045,22.84,-0.38,-1.87,9.39
49.335465,4.033045,22.84,-0.91,-2.26,10.18
49.33567,4.03307,22.81,1.23,-1.67,8.63
49.33567,4.03307,22.81,1.09,-1.97,8.18
49.335875,4.033095,22.82,0.04,-2.11,9.39
49.335875,4.033095,22.82,-0.88,-3.15,8.38
49.336078,4.033117,22.87,0.18,-2.77,8.31
49.336078,4.033117,22.87,-0.17,-2.16,10.07
49.336278,4.033142,22.88,-0.28,-1.81,7.98
49.336278,4.033142,22.88,-0.53,-1.16,10.79
49.336477,4.033161,23.02,0.59,-1.81,10.78
49.336477,4.033161,23.02,-0.08,-1.78,8.79
49.336684,4.033182,23.1,-0.27,-2.31,9.37
49.336684,4.033182,23.1,-0.6,-2.4,10.91
49.33689,4.033206,23.18,-1.17,-2.7,10.44
49.33689,4.033206,23.18,-0.39,-2.23,7.83
49.337098,4.033232,23.16,-0.87,-2.35,10.04
49.337098,4.033232,23.16,-0.69,-3.31,8.88
49.337308,4.033259,23.16,-1.11,-1.81,10.33
49.337308,4.033259,23.16,-0.65,-1.48,8.42
49.337516,4.03329,23.27,-1.01,-2.29,9.27
49.337725,4.033321,23.29,-0.02,-1.76,10.04
49.337725,4.033321,23.29,0.18,-2.82,9.94
49.337939,4.033357,23.38,-0.07,-2.64,10.57
49.337939,4.033357,23.38,0.0,-2.09,9.53
49.338151,4.03339,23.49,-0.46,-1.51,10.76
49.338151,4.03339,23.49,0.2,-2.59,9.85
49.338361,4.03342,23.42,-0.47,-2.43,9.74
49.338361,4.03342,23.42,-0.91,-2.5,8.66
49.338567,4.03345,23.43,-0.05,-2.64,9.96
49.338567,4.03345,23.43,-0.43,-2.48,9.03
49.338771,4.033487,23.52,0.21,-2.01,8.29
49.338771,4.033487,23.52,1.02,-1.88,10.03
49.338979,4.033523,23.45,0.58,-1.7,10.39
49.338979,4.033523,23.45,0.17,-1.87,9.77
49.339188,4.033555,23.47,0.3,-2.2,10.53
49.339188,4.033555,23.47,0.07,-2.24,8.4
49.339397,4.033583,23.33,0.62,-2.1,8.43
49.339397,4.033583,23.33,-0.11,-1.33,9.19
49.339603,4.033607,23.39,-0.36,-2.91,10.67
49.339603,4.033607,23.39,0.27,-1.57,8.35
49.339811,4.033627,23.37,-0.58,-2.5,10.18
49.339811,4.033627,23.37,0.2,-2.1,8.58
49.340031,4.033646,23.42,0.21,-3.14,8.94
49.340031,4.033646,23.42,-0.53,-1.51,10.51
49.340242,4.033665,23.41,-0.85,-2.03,9.62
49.340242,4.033665,23.41,-0.17,-1.72,9.76
49.340462,4.033692,23.33,-0.72,-0.89,9.96
49.340462,4.033692,23.33,0.76,-2.34,10.36
49.340678,4.033712,23.28,-0.26,-1.58,9.7
49.340678,4.033712,23.28,0.38,-1.63,11.06
49.34089,4.033728,23.23,-0.79,-1.59,7.42
49.34089,4.033728,23.23,-0.74,-2.93,9.49
49.341106,4.033743,23.36,-0.24,-2.35,8.43
49.341106,4.033743,23.36,-0.59,-2.1,10.7
49.341318,4.033767,23.43,-0.42,-1.71,9.15
49.341318,4.033767,23.43,0.49,-2.29,9.95
49.341535,4.033793,23.47,-0.66,-2.66,11.98
49.341535,4.033793,23.47,0.55,-1.65,9.31
49.341751,4.033819,23.55,-0.34,-1.7,8.44
49.341751,4.033819,23.55,0.22,-1.08,9.6
49.341969,4.033835,23.9,-0.72,-0.39,9.18
49.342183,4.03386,23.7,0.52,-2.92,8.06
49.342183,4.03386,23.7,0.22,-0.72,11.08
49.34239,4.033869,23.84,-0.21,-1.68,10.06
49.34239,4.033869,23.84,0.28,0.22,8.63
49.342606,4.033888,23.67,0.07,-0.71,10.56
49.342606,4.033888,23.67,-0.81,-1.07,10.89
49.342819,4.033907,23.8,0.1,-1.74,7.58
49.342819,4.033907,23.8,-0.41,-1.95,8.94
49.343033,4.033926,23.83,-0.3,-1.63,11.78
49.343033,4.033926,23.83,-0.57,-0.97,9.74
49.343247,4.033946,23.85,-0.34,-1.13,10.06
49.343247,4.033946,23.85,-0.17,-2.11,10.27
49.343461,4.03397,23.97,0.32,-1.73,10.13
49.343461,4.03397,23.97,-0.21,-2.27,9.33
49.343676,4.033992,23.99,0.41,-1.22,10.3
49.343676,4.033992,23.99,-0.34,-0.54,10.86
49.343891,4.034012,23.87,0.05,-0.55,10.07
49.343891,4.034012,23.87,0.44,-0.9,9.3
49.344094,4.034017,23.52,-0.71,-0.55,8.57
49.344094,4.034017,23.52,0.42,-1.03,11.9
49.344302,4.034035,23.29,0.06,-0.96,9.75
49.344302,4.034035,23.29,0.07,-1.3,8.93
49.344511,4.034058,22.92,-0.26,-1.3,10.68
49.344511,4.034058,22.92,-0.27,-1.05,9.24
49.344715,4.034083,22.38,-0.01,-1.04,9.67
49.344715,4.034083,22.38,0.1,-1.16,10.52
49.344916,4.034112,22.12,0.11,-1.43,9.66
49.344916,4.034112,22.12,0.06,-1.33,11.32
49.345112,4.034141,21.49,-0.39,-0.93,10.56
49.345112,4.034141,21.49,-0.99,-0.97,9.26
49.345299,4.034169,20.85,0.33,-0.91,9.94
49.345299,4.034169,20.85,0.12,-0.98,9.58
49.345482,4.034194,20.5,0.02,-1.67,10.57
49.345482,4.034194,20.5,0.09,-1.14,8.8
49.345665,4.034217,20.17,-0.23,-1.47,10.34
49.345665,4.034217,20.17,-0.58,-1.43,9.44
49.345844,4.034238,19.83,0.28,-1.54,10.3
49.345844,4.034238,19.83,0.08,-1.54,9.68
49.346017,4.034259,19.48,-0.1,-0.26,8.93
49.346017,4.034259,19.48,-0.15,-0.75,10.24
49.346187,4.034278,18.77,0.08,-1.38,10.66
49.346187,4.034278,18.77,-0.19,-0.76,9.86
49.346351,4.034296,18.19,-0.83,-1.56,9.84
49.346514,4.034317,17.65,0.24,-1.56,11.41
49.346514,4.034317,17.65,-0.36,-0.81,11.13
49.346671,4.034337,16.94,-0.63,-0.75,9.29
49.346671,4.034337,16.94,-0.61,-1.02,10.2
49.346817,4.034352,16.32,-0.15,-0.99,9.36
49.346817,4.034352,16.32,0.19,-0.48,10.28
49.346959,4.034368,15.45,0.08,-0.25,9.66
49.346959,4.034368,15.45,-0.2,-0.14,10.15
49.34709,4.034386,13.99,-0.34,0.16,10.57
49.34709,4.034386,13.99,-1.03,0.69,10.59
49.347206,4.034402,12.34,-0.71,0.36,10.8
49.347206,4.034402,12.34,-1.33,0.66,8.96
49.347305,4.034419,10.12,-1.06,1.39,9.07
49.347305,4.034419,10.12,-1.18,2.82,10.62
49.347386,4.034446,6.72,-0.45,1.97,10.56
49.347386,4.034446,6.72,-0.48,0.91,10.52
49.347425,4.03447,3.3,-0.77,0.3,10.05
49.347425,4.03447,3.3,-0.61,-1.4,10.03
49.347425,4.03447,0.0,-0.42,-2.5,9.68
49.347425,4.03447,0.0,-0.67,-2.94,9.29
49.347459,4.034503,2.84,-0.75,-3.29,9.01
49.347459,4.034503,2.84,-0.31,-3.88,9.61
49.347486,4.034532,4.32,-0.41,-3.73,9.91
49.347486,4.034532,4.32,0.16,-3.3,8.75
49.347524,4.034574,6.22,-0.13,-3.83,9.81
49.347524,4.034574,6.22,1.25,-2.16,8.65
49.347579,4.034628,7.64,2.78,-1.74,10.2
49.347579,4.034628,7.64,2.77,-1.61,11.15
49.347645,4.034678,8.28,2.53,-2.47,8.94
49.347645,4.034678,8.28,2.85,-2.44,10.6
49.347721,4.034698,8.59,3.02,-1.99,8.89
49.347721,4.034698,8.59,2.68,-2.67,10.81
49.347797,4.034687,9.15,0.83,-2.4,8.16
49.347797,4.034687,9.15,-2.81,-1.26,9.5
49.347873,4.034622,9.57,-2.55,-2.69,9.04
49.347873,4.034622,9.57,-3.32,-2.85,9.06
49.347948,4.034548,10.14,-3.17,-2.78,10.33
49.347948,4.034548,10.14,-2.85,-2.74,9.77
49.348037,4.034496,11.0,-2.08,-2.92,9.0
49.348154,4.034497,12.73,-1.67,-3.07,8.61
49.348154,4.034497,12.73,-1.17,-2.72,9.54
49.348274,4.034511,13.45,0.36,-2.52,9.96
49.348274,4.034511,13.45,-0.43,-2.51,8.74
49.348414,4.034538,14.74,-0.45,-2.85,10.41
49.348414,4.034538,14.74,0.01,-1.54,11.46
49.348556,4.034551,15.84,-1.14,-2.59,9.73
49.348556,4.034551,15.84,-0.44,-2.51,10.88
49.348699,4.034567,16.74,-0.11,-1.7,8.94
49.348699,4.034567,16.74,0.57,-1.74,9.54
49.348853,4.034582,17.95,-0.07,-3.06,8.71
49.348853,4.034582,17.95,-0.5,-1.83,7.55
49.349017,4.0346,18.87,0.49,-2.39,8.75
49.349017,4.0346,18.87,-0.27,-1.47,7.96
49.349189,4.03462,19.6,-0.53,-2.2,9.12
49.349189,4.03462,19.6,-0.63,-2.3,9.13
49.349369,4.034642,20.41,-0.37,-0.94,11.48
49.349369,4.034642,20.41,0.05,-3.29,10.39
49.349554,4.034663,21.16,-0.3,-1.85,7.96
49.349554,4.034663,21.16,0.09,-2.36,9.27
49.349746,4.034683,21.96,-0.4,-2.23,9.29
49.349746,4.034683,21.96,0.16,-2.04,10.75
49.349946,4.034705,22.55,-0.6,-1.74,9.6
49.349946,4.034705,22.55,-0.96,-2.02,9.04
49.35015,4.034729,22.91,-0.22,-1.9,7.22
49.35015,4.034729,22.91,0.97,-1.23,10.95
49.350358,4.034754,23.46,-0.17,-2.47,10.11
49.350358,4.034754,23.46,-1.89,-2.36,8.37
49.350571,4.034779,23.73,-0.12,-2.4,10.16
49.350571,4.034779,23.73,-1.53,-2.54,8.51
49.350785,4.034805,24.02,-0.65,-1.79,9.5
49.350785,4.034805,24.02,-0.81,-1.87,9.6
49.351004,4.03483,24.37,-0.01,-1.66,8.48
49.351004,4.03483,24.37,-0.86,-3.55,8.44
49.351227,4.034856,24.67,0.13,-3.11,12.12
49.351227,4.034856,24.67,0.56,-2.5,9.59
49.351453,4.034883,24.77,0.77,-1.25,8.91
49.351453,4.034883,24.77,-0.35,-2.05,10.19
49.351677,4.034909,25.02,-0.02,-2.17,10.81
49.351677,4.034909,25.02,-0.45,-1.33,6.81
49.351902,4.034934,25.14,0.69,-2.13,11.34
49.352127,4.03496,25.13,0.04,-0.63,10.31
49.352127,4.03496,25.13,0.34,-2.0,8.78
49.352353,4.034985,25.14,-1.1,-2.12,9.89
49.352353,4.034985,25.14,-0.45,-1.18,7.35
49.352578,4.03501,25.14,0.11,-1.14,7.29
49.352578,4.03501,25.14,-0.35,-1.19,8.97
49.352801,4.035036,25.14,0.81,-1.1,8.78
49.352801,4.035036,25.14,0.29,-0.18,10.31
49.353019,4.035059,25.14,-0.03,-1.71,8.67
49.353019,4.035059,25.14,0.74,-2.83,10.78
49.353241,4.035081,25.04,0.47,-2.26,10.24
49.353241,4.035081,25.04,-0.13,-1.67,9.47
49.353467,4.035105,25.02,-0.38,-0.31,10.81
49.353467,4.035105,25.02,0.57,-1.77,8.54
49.353695,4.035131,24.96,-1.27,-1.28,9.95
49.353695,4.035131,24.96,-0.68,-2.36,7.16
49.353927,4.035159,24.91,-0.46,-1.28,10.92
49.353927,4.035159,24.91,-1.08,-2.03,11.38
49.354151,4.035184,24.89,-0.22,-0.76,10.01
49.354151,4.035184,24.89,-0.92,-1.38,9.63
49.354369,4.035206,24.9,0.02,-2.04,10.77
49.354369,4.035206,24.9,-0.44,-2.02,11.23
49.354592,4.035232,24.79,-0.79,-1.61,11.13
49.354592,4.035232,24.79,-0.42,-1.77,10.66
49.354818,4.03526,24.72,0.21,-2.73,10.75
49.354818,4.03526,24.72,-0.54,-1.3,9.93
49.355037,4.035283,24.7,-0.88,-1.43,8.5
49.355037,4.035283,24.7,0.04,-0.98,7.88
49.355264,4.035311,24.81,-0.23,-2.33,11.13
49.355264,4.035311,24.81,0.28,-2.16,10.96
49.355487,4.035336,24.94,-0.01,-1.27,8.46
49.355487,4.035336,24.94,0.49,-2.65,12.34
49.355709,4.035358,25.01,-1.79,-1.17,8.96
49.355709,4.035358,25.01,0.46,-1.95,9.54
49.355934,4.035383,25.2,-0.47,-1.59,9.88
49.355934,4.035383,25.2,-1.28,-2.57,8.85
49.356161,4.035409,25.41,0.03,-1.83,9.89
49.356161,4.035409,25.41,-0.72,-0.77,10.46
49.356389,4.035435,25.43,-1.36,-2.4,9.39
49.356615,4.035461,25.51,-0.36,-2.02,9.31
49.356615,4.035461,25.51,-1.03,-2.09,9.8
49.356843,4.035489,25.63,-0.83,-2.32,9.21
49.356843,4.035489,25.63,-0.13,-1.07,10.1
49.357074,4.035516,25.69,-0.13,-1.83,9.27
49.357074,4.035516,25.69,-0.66,-2.43,10.62
49.357307,4.035544,25.68,-0.82,-0.32,9.19
49.357307,4.035544,25.68,-0.23,-1.0,10.09
49.357539,4.035573,25.74,0.68,-1.14,10.21
49.357539,4.035573,25.74,0.63,-1.93,8.68
49.357769,4.035599,25.87,0.65,-1.67,11.09
49.357769,4.035599,25.87,-1.56,-1.49,9.89
49.358003,4.035622,25.84,-1.41,-2.04,8.44
49.358003,4.035622,25.84,-0.13,-1.81,10.29
49.358233,4.035644,25.84,-0.21,-1.99,10.35
49.358233,4.035644,25.84,0.12,-1.66,7.79
49.358465,4.035668,25.82,-0.57,-2.36,9.82
49.358465,4.035668,25.82,-1.68,-2.52,9.34
49.358695,4.035693,25.75,-0.95,-2.26,11.12
49.358695,4.035693,25.75,-0.31,-1.95,8.68
49.358922,4.035716,25.63,-0.19,-2.24,14.49
49.358922,4.035716,25.63,-0.12,-1.38,11.72
49.359151,4.035741,25.48,-0.97,-1.62,9.63
49.359151,4.035741,25.48,-0.78,-2.38,11.93
49.359378,4.035769,25.31,-1.01,-2.5,11.05
49.359378,4.035769,25.31,-0.49,-1.36,9.57
49.359605,4.035796,25.25,0.8,-2.01,10.02
49.359605,4.035796,25.25,-0.14,-1.52,9.46
49.359835,4.035826,25.11,-0.73,-1.81,12.61
49.359835,4.035826,25.11,-0.41,-2.13,10.31
49.360062,4.035855,24.94,0.55,-0.84,6.68
49.360062,4.035855,24.94,-0.45,-1.27,11.38
49.360284,4.035881,24.84,0.83,-1.17,8.21
49.360284,4.035881,24.84,0.11,-1.82,9.21
49.360506,4.035905,24.81,-1.51,-0.97,8.73
49.360506,4.035905,24.81,-1.27,-1.81,8.47
49.360727,4.035928,24.83,0.06,-1.24,9.25
49.360727,4.035928,24.83,-0.39,-2.06,10.55
49.360945,4.03595,24.88,-0.56,-1.08,9.83
49.360945,4.03595,24.88,0.3,-0.85,10.35
49.361163,4.035977,24.83,0.26,-1.28,9.99
49.361384,4.036003,24.85,-0.74,-2.07,9.2
49.361384,4.036003,24.85,-0.62,-1.05,9.87
49.361608,4.036028,24.79,-0.74,-0.61,10.86
49.361608,4.036028,24.79,-0.68,-1.04,7.95
49.36183,4.036056,24.75,1.17,-1.41,9.39
49.36183,4.036056,24.75,0.26,-2.61,11.54
49.362053,4.036082,24.7,-0.32,-0.93,12.31
49.362053,4.036082,24.7,-0.34,-2.0,10.16
49.362275,4.036106,24.71,-0.38,-1.8,9.17
49.362275,4.036106,24.71,-0.66,-1.14,7.69
49.362493,4.036133,24.6,-0.43,-3.28,9.05
49.362493,4.036133,24.6,-1.61,-1.81,9.69
49.362712,4.036158,24.64,-1.03,-1.25,9.89
49.362712,4.036158,24.64,0.21,-0.82,10.48
49.362935,4.036186,24.57,0.13,-0.18,6.89
49.362935,4.036186,24.57,-0.4,-2.26,11.99
49.363155,4.036211,24.54,-0.25,-1.12,9.14
49.363155,4.036211,24.54,0.48,-2.02,9.39
49.363374,4.036242,24.49,0.71,-1.93,11.93
49.363374,4.036242,24.49,-0.04,-2.47,10.18
49.363597,4.036268,24.53,-0.43,-1.5,10.75
49.363597,4.036268,24.53,-0.6,-1.22,10.72
49.363818,4.036293,24.5,-1.12,-1.62,10.95
49.363818,4.036293,24.5,-0.52,-0.46,7.84
49.364038,4.036317,24.48,1.31,-1.71,11.01
49.364038,4.036317,24.48,-0.74,-0.9,8.55
49.364258,4.036341,24.51,-0.45,-1.3,10.97
49.364258,4.036341,24.51,-0.16,-2.26,8.97
49.364478,4.036363,24.5,0.38,-0.57,10.62
49.364478,4.036363,24.5,-1.58,-1.53,8.19
49.364696,4.036382,24.48,-0.26,-1.31,10.28
49.364696,4.036382,24.48,-1.43,-1.4,9.43
49.364912,4.036402,24.43,-0.61,-0.92,9.61
49.364912,4.036402,24.43,-1.1,-1.84,10.27
49.365128,4.036424,24.39,-0.04,-0.86,10.41
49.365128,4.036424,24.39,-0.13,-0.84,10.35
49.365348,4.036449,24.27,-0.32,-1.06,9.34
49.365348,4.036449,24.27,-1.4,-1.27,10.38
49.365566,4.036474,24.27,0.18,-0.42,9.32
49.365785,4.0365,24.34,-0.52,-1.81,8.76
49.365785,4.0365,24.34,0.34,-1.32,9.28
49.366004,4.036526,24.36,0.28,-1.37,10.23
49.366004,4.036526,24.36,-0.45,-1.37,10.63
49.366223,4.03655,24.33,0.26,-1.42,10.13
49.366223,4.03655,24.33,-0.13,-1.64,11.54
49.36644,4.036574,24.34,0.48,-1.78,11.96
49.36644,4.036574,24.34,-0.1,-1.39,11.2
49.366661,4.036602,24.37,1.09,-1.99,10.0
49.366661,4.036602,24.37,-1.16,-1.4,10.54
49.36688,4.036632,24.43,0.27,-1.42,8.64
49.36688,4.036632,24.43,0.02,-1.1,9.64
49.367099,4.036662,24.49,-0.56,-1.55,11.09
49.367099,4.036662,24.49,0.78,-2.08,12.02
49.367317,4.036688,24.36,0.31,-0.85,9.03
49.367317,4.036688,24.36,-0.63,-1.37,11.23
49.367536,4.036712,24.37,1.28,-1.87,9.45
49.367536,4.036712,24.37,-1.1,-1.04,8.28
49.367753,4.036738,24.36,-0.35,-2.16,10.93
49.367753,4.036738,24.36,0.04,-2.25,9.73
49.367972,4.036763,24.34,-0.07,-2.42,9.2
49.367972,4.036763,24.34,0.94,-0.64,9.07
49.36819,4.036791,24.27,-0.35,-1.99,8.26
49.36819,4.036791,24.27,-1.45,-1.1,11.56
49.368408,4.036817,24.18,0.54,-1.61,10.9
49.368408,4.036817,24.18,-0.72,-1.08,8.08
49.368625,4.03684,24.2,-0.41,-2.67,11.33
49.368625,4.03684,24.2,-0.63,-0.57,10.13
49.368842,4.036864,24.05,-0.86,-0.82,7.26
49.368842,4.036864,24.05,-0.63,-1.42,10.19
49.369056,4.036885,23.99,-0.72,-2.09,10.99
49.369056,4.036885,23.99,-0.47,-0.36,6.53
49.369272,4.036912,23.89,0.61,-1.92,10.14
49.369272,4.036912,23.89,0.56,-1.94,9.55
49.369484,4.03694,23.8,-0.03,-0.22,8.5
49.369484,4.03694,23.8,-1.05,-1.37,10.43
49.369696,4.036965,23.79,-0.8,-2.6,12.1
49.369696,4.036965,23.79,-0.86,-2.73,9.69
49.369909,4.036992,23.67,0.32,-1.45,8.9
49.369909,4.036992,23.67,-0.83,-2.12,9.0
49.370121,4.037018,23.54,-0.57,-1.92,8.52
49.370121,4.037018,23.54,-1.1,-1.15,9.66
49.370332,4.037043,23.43,-0.49,-1.67,9.94
49.370542,4.037068,23.43,0.16,-2.18,9.73
49.370542,4.037068,23.43,-0.34,-1.58,7.4
49.37075,4.037091,23.42,0.14,-2.41,8.75
49.37075,4.037091,23.42,-1.18,-2.67,9.09
49.370961,4.037118,23.52,0.02,-2.29,8.09
49.370961,4.037118,23.52,-0.42,-1.18,9.8
49.371174,4.037147,23.6,-0.35,-2.64,8.94
49.371174,4.037147,23.6,1.19,-0.76,9.22
49.371386,4.037169,23.78,-0.16,-2.73,9.73
49.371386,4.037169,23.78,-0.27,-1.92,9.1
49.3716,4.037194,23.86,0.49,-1.76,9.96
49.3716,4.037194,23.86,1.24,-1.45,10.66
49.371815,4.037217,23.97,0.15,-1.76,9.61
49.371815,4.037217,23.97,-0.62,-0.94,8.47
49.372029,4.037243,24.0,0.29,-2.27,11.27
49.372029,4.037243,24.0,0.48,-0.78,10.4
49.372246,4.037265,24.02,-0.06,-0.83,9.56
49.372246,4.037265,24.02,0.13,-1.77,7.03
49.372462,4.037288,23.86,-0.42,-2.6,11.59
49.372462,4.037288,23.86,0.03,-2.14,10.3
49.372671,4.037309,23.72,0.09,-1.69,10.12
49.372671,4.037309,23.72,-1.22,-1.77,9.22
49.372884,4.037335,23.66,-1.28,-1.2,9.16
49.372884,4.037335,23.66,-0.1,-2.2,8.26
49.373096,4.037361,23.61,-1.41,-1.09,9.22
49.373096,4.037361,23.61,-0.8,-1.45,11.19
49.373307,4.037384,23.35,-0.49,-1.92,10.52
49.373307,4.037384,23.35,-0.02,-1.48,10.9
49.373517,4.03741,23.19,-0.48,-1.4,10.31
49.373517,4.03741,23.19,-0.5,-1.41,9.08
49.373727,4.037434,23.02,-0.49,-2.27,9.89
49.373727,4.037434,23.02,-0.4,-2.32,9.32
49.373934,4.037457,22.88,-0.49,-2.19,10.25
49.373934,4.037457,22.88,-0.22,-1.55,8.82
49.374137,4.037477,22.78,-0.26,-1.36,7.24
49.374137,4.037477,22.78,-1.27,-1.24,8.36
49.374339,4.037501,22.64,-0.28,-1.58,7.79
49.374339,4.037501,22.64,-0.23,-2.87,8.29
49.374538,4.037523,22.65,-1.12,-1.39,9.41
49.374538,4.037523,22.65,-0.39,-1.51,9.78
49.37474,4.037543,22.61,0.23,-1.36,9.22
49.374944,4.03756,22.54,0.16,-2.77,8.0
49.374944,4.03756,22.54,0.83,-1.58,10.43
49.375147,4.037568,22.5,-1.02,-2.35,10.08
49.375147,4.037568,22.5,-0.12,-0.86,10.06
49.375342,4.037575,22.56,-0.33,-1.87,9.64
49.375342,4.037575,22.56,-0.46,-1.1,7.33
49.375539,4.037579,22.55,-0.8,-2.36,10.58
49.375539,4.037579,22.55,-0.88,-1.66,8.45
49.37574,4.037584,22.5,-0.56,-0.3,12.11
49.37574,4.037584,22.5,-1.43,-1.03,7.4
49.375941,4.03759,22.4,0.15,-0.49,9.58
49.375941,4.03759,22.4,-0.1,-1.01,8.88
49.376142,4.037601,22.14,-0.77,-1.89,10.19
49.376142,4.037601,22.14,-1.35,-1.36,8.45
49.376341,4.037621,21.78,-0.79,-1.79,9.4
49.376341,4.037621,21.78,-1.08,-2.44,10.44
49.376536,4.037643,21.68,0.51,-0.58,7.06
49.376536,4.037643,21.68,-0.23,-0.54,10.86
49.376725,4.037664,21.13,-0.23,-1.59,9.43
49.376725,4.037664,21.13,-0.3,-1.36,8.11
49.376911,4.037685,20.22,-0.79,-0.92,9.23
49.376911,4.037685,20.22,-1.03,-0.69,7.88
49.377093,4.037708,19.77,-0.98,-0.49,9.12
49.377093,4.037708,19.77,0.54,-1.14,9.46
49.377272,4.037728,19.2,-0.59,-1.18,11.62
49.377272,4.037728,19.2,-0.34,-1.07,9.92
49.377443,4.037746,18.91,-0.73,-0.67,10.29
49.377443,4.037746,18.91,-1.97,-1.81,8.56
49.377611,4.037767,18.54,-0.77,-1.71,10.77
49.377611,4.037767,18.54,-0.83,-1.14,9.31
49.377776,4.037785,18.23,-0.45,-1.51,3.72
49.377776,4.037785,18.23,0.18,-1.67,11.23
49.377941,4.037804,18.23,0.43,-1.01,10.01
49.377941,4.037804,18.23,-0.57,-1.6,9.8
49.378105,4.037824,18.37,-0.36,-0.9,5.36
49.378105,4.037824,18.37,0.27,-1.13,7.95
49.37827,4.037845,18.31,0.02,-2.29,9.66
49.37827,4.037845,18.31,0.02,-1.48,8.23
49.378433,4.037861,18.27,0.73,-0.84,9.35
49.378433,4.037861,18.27,-0.98,-2.25,10.91
49.378596,4.03788,18.27,-0.39,-1.82,10.07
49.378758,4.037898,18.16,-1.0,-1.19,10.27
49.378758,4.037898,18.16,-0.26,-1.18,8.47
49.378922,4.037921,18.11,-0.01,-0.43,8.48
49.378922,4.037921,18.11,-0.01,-0.91,10.57
49.379078,4.03794,17.7,-0.16,-0.35,10.15
49.379078,4.03794,17.7,-0.29,-1.29,9.25
49.379236,4.037964,16.95,-0.38,-1.5,10.35
49.379236,4.037964,16.95,-0.66,-0.7,9.68
49.379386,4.037984,16.2,0.14,-1.36,9.7
49.379386,4.037984,16.2,-1.06,-1.23,9.7
49.379526,4.038002,15.52,-0.4,-0.76,9.26
49.379526,4.038002,15.52,0.61,-0.65,10.39
49.379657,4.038023,14.77,0.39,0.85,10.73
49.379657,4.038023,14.77,0.02,1.51,10.1
49.379774,4.03804,12.3,1.19,1.79,10.41
49.379774,4.03804,12.3,-0.15,-0.87,9.97
49.379877,4.038041,9.77,-0.74,-1.89,10.03
49.379877,4.038041,9.77,-1.02,-2.6,8.41
49.379968,4.038037,9.83,-0.79,-2.15,8.58
49.379968,4.038037,9.83,-0.58,-2.78,9.8
49.380055,4.038039,10.44,-0.64,-2.5,8.57
49.380055,4.038039,10.44,-0.96,-3.64,11.06
49.380147,4.038051,11.49,-0.97,-2.53,8.2
49.380147,4.038051,11.49,0.14,-2.62,7.64
49.380253,4.038064,12.27,0.11,-2.43,6.9
49.380253,4.038064,12.27,-0.51,-2.53,9.38
49.380367,4.038081,13.21,0.11,-2.49,10.11
49.380367,4.038081,13.21,-0.74,-0.95,10.1
49.380491,4.038096,13.75,0.57,-1.95,9.08
49.380491,4.038096,13.75,-0.19,-2.12,13.31
49.380616,4.038115,14.26,0.53,-2.33,10.45
49.380616,4.038115,14.26,0.86,-2.4,10.68
49.380748,4.038133,14.68,-0.24,-1.49,8.7
49.380748,4.038133,14.68,-0.08,-2.18,8.97
49.380884,4.038149,14.91,-0.06,-1.28,8.27
49.380884,4.038149,14.91,-0.59,-2.33,9.81
49.381023,4.038165,15.16,0.07,-2.86,8.16
49.381023,4.038165,15.16,-0.39,-2.07,10.95
49.381165,4.038181,15.2,0.05,-1.18,9.49
49.381165,4.038181,15.2,-0.23,-2.23,10.59
49.381302,4.038194,15.18,0.18,-1.86,10.16
49.381302,4.038194,15.18,-1.02,-1.11,9.02
49.381436,4.03821,15.06,-1.66,-2.22,9.42
49.381565,4.038223,15.03,0.87,-0.94,8.06
49.381565,4.038223,15.03,0.19,-0.66,9.44
49.381699,4.038234,15.0,0.6,-0.86,9.87
49.381699,4.038234,15.0,-0.61,-0.9,7.45
49.381833,4.038244,14.85,-1.43,-0.51,13.54
49.381833,4.038244,14.85,-2.25,-3.03,6.44
49.381961,4.038255,15.15,0.02,0.44,6.75
49.381961,4.038255,15.15,-0.6,-1.86,8.99
49.382099,4.038278,15.28,0.25,-1.69,10.71
49.382099,4.038278,15.28,0.3,-1.3,11.04
49.382239,4.038302,15.17,0.31,-3.23,8.43
49.382239,4.038302,15.17,0.19,-1.84,9.01
49.382379,4.038321,15.28,0.7,-1.39,10.57
49.382379,4.038321,15.28,-0.09,-2.18,9.04
49.382516,4.038338,15.26,0.05,-1.62,11.25
49.382516,4.038338,15.26,0.08,-1.81,9.71
49.382657,4.038359,15.14,-0.38,-1.84,9.67
49.382657,4.038359,15.14,0.93,-1.62,9.63
49.382795,4.038379,15.0,1.04,-0.97,7.73
49.382795,4.038379,15.0,0.19,-1.03,4.97
49.382932,4.038397,14.71,-0.38,-0.72,8.86
49.382932,4.038397,14.71,0.76,-0.85,10.5
49.383063,4.03841,14.26,-0.32,0.4,8.97
49.383063,4.03841,14.26,-0.18,-0.51,9.91
49.383183,4.038422,12.71,-1.3,-0.37,9.81
49.383183,4.038422,12.71,0.62,-0.85,10.83
49.383287,4.038431,11.35,1.57,-1.88,6.79
49.383287,4.038431,11.35,0.53,-2.05,9.48
49.383383,4.038443,10.52,-0.15,-2.38,11.09
49.383383,4.038443,10.52,-0.07,-1.73,7.96
49.383478,4.038453,10.52,-0.12,-2.38,9.16
49.383478,4.038453,10.52,0.83,-3.16,10.41
49.383573,4.038467,10.74,-1.36,-1.8,7.61
49.383573,4.038467,10.74,-0.23,-1.43,9.83
49.383667,4.038476,11.01,-0.92,-2.47,10.85
49.383667,4.038476,11.01,-0.49,-1.99,9.67
49.383763,4.038488,11.31,0.18,-1.82,9.4
49.383763,4.038488,11.31,-0.28,-3.04,9.38
49.383866,4.038501,11.81,-0.97,-2.56,9.3
49.383866,4.038501,11.81,-0.39,-2.02,9.35
49.383974,4.038511,12.95,0.2,-3.43,10.92
49.384091,4.038522,13.51,0.42,-2.46,11.04
49.384091,4.038522,13.51,0.56,-2.12,10.96
49.384213,4.038534,14.16,-0.35,-4.63,12.78
49.384213,4.038534,14.16,-0.34,-3.59,10.16
49.384345,4.038555,14.6,-0.32,-1.3,7.73
49.384345,4.038555,14.6,-0.08,-1.9,6.37
49.384474,4.038554,15.0,-1.06,-1.39,10.31
49.384474,4.038554,15.0,-0.41,-2.35,9.83
49.384603,4.03856,15.37,-0.37,-1.67,8.31
49.384603,4.03856,15.37,-1.25,-2.22,8.55
49.384738,4.038572,15.64,-0.36,-1.72,5.94
49.384738,4.038572,15.64,0.53,-1.57,7.99
49.384875,4.038582,15.87,-1.51,-2.49,11.06
49.384875,4.038582,15.87,0.61,-3.5,9.9
49.385027,4.038614,16.49,-1.48,-3.84,5.47
49.385027,4.038614,16.49,-0.91,-2.49,5.76
49.385183,4.038642,16.86,-0.31,-2.3,9.11
49.385183,4.038642,16.86,0.23,-1.75,10.88
49.385334,4.038657,17.13,-0.09,-1.35,8.64
49.385334,4.038657,17.13,0.43,-0.28,11.17
49.385494,4.038674,17.56,-0.72,-0.3,11.51
49.385494,4.038674,17.56,-0.11,-1.81,8.99
49.38565,4.038693,17.57,-0.28,-2.25,8.95
49.38565,4.038693,17.57,0.82,-1.69,10.89
49.385812,4.038718,17.43,0.55,-1.88,9.48
49.385812,4.038718,17.43,0.74,-1.26,11.32
49.385973,4.038746,16.83,0.08,-2.99,11.8
49.385973,4.038746,16.83,-0.01,-2.99,11.07
49.386121,4.038765,16.33,-3.05,-1.96,7.47
49.386121,4.038765,16.33,-0.23,-2.24,10.5
49.386272,4.038782,16.24,0.03,-3.27,9.01
49.386272,4.038782,16.24,-0.22,-2.83,8.77
49.386422,4.038801,16.51,-0.5,-2.07,8.41
49.386422,4.038801,16.51,-1.02,-1.56,11.59
49.386575,4.038819,16.9,-0.65,-2.93,9.85
49.386575,4.038819,16.9,-0.14,-2.68,10.5
49.386731,4.038837,17.49,-0.04,-2.78,10.8
49.386731,4.038837,17.49,-0.53,-1.29,6.96
49.386892,4.038858,18.01,0.1,-1.85,7.43
49.387059,4.038879,18.51,0.86,-1.7,8.79
49.387059,4.038879,18.51,0.94,-2.24,10.13
49.387229,4.038899,18.98,-0.08,-2.9,10.14
49.387229,4.038899,18.98,-0.26,-2.54,9.26
49.387405,4.038919,19.4,-0.23,-2.09,9.55
49.387405,4.038919,19.4,0.91,-2.68,8.58
49.387581,4.03894,19.84,-0.95,-1.27,8.93
49.387581,4.03894,19.84,0.96,-1.26,8.27
49.387762,4.038961,20.38,-0.2,-1.6,12.14
49.387762,4.038961,20.38,0.07,-2.33,11.19
49.387946,4.038982,20.59,0.34,-1.99,9.92
49.387946,4.038982,20.59,-0.33,-2.23,10.82
49.388128,4.039003,20.85,0.0,-1.83,8.71
49.388128,4.039003,20.85,0.15,-1.98,11.4
49.388316,4.039023,21.15,0.47,-1.73,8.83
49.388316,4.039023,21.15,0.23,-1.54,9.3
49.388505,4.039044,21.33,0.6,-2.02,11.47
49.388505,4.039044,21.33,0.45,-3.02,9.6
49.388701,4.039065,21.54,-0.02,-2.32,8.26
49.388701,4.039065,21.54,-0.82,-2.75,8.71
49.388898,4.039087,21.67,-0.2,-2.4,12.2
49.388898,4.039087,21.67,-1.47,-3.25,7.3
49.389089,4.039107,21.79,-0.59,-1.79,11.08
49.389089,4.039107,21.79,0.29,-1.82,11.43
49.389287,4.03913,21.91,-0.58,-2.14,6.83
49.389287,4.03913,21.91,0.35,-1.57,9.07
49.389484,4.039153,22.14,-0.34,-2.02,11.17
49.389484,4.039153,22.14,-0.17,-1.94,9.23
49.389682,4.039177,22.24,-0.33,-1.66,11.57
49.389682,4.039177,22.24,0.69,-1.98,11.4
49.389884,4.039203,22.44,0.2,-1.71,10.63
49.389884,4.039203,22.44,0.11,-3.21,10.19
49.390086,4.039227,22.45,1.32,-1.12,12.35
49.390086,4.039227,22.45,-0.42,-1.68,9.53
49.390291,4.03925,22.7,-0.24,-2.49,10.33
49.390291,4.03925,22.7,0.29,-2.72,8.36
49.390498,4.039275,22.88,-0.44,-1.84,10.32
49.390498,4.039275,22.88,-1.04,-1.47,7.71
49.390702,4.0393,22.97,-0.16,-3.52,9.74
49.390702,4.0393,22.97,0.43,-1.79,10.8
49.390909,4.039325,23.05,-0.09,-1.24,10.4
49.391117,4.03935,23.12,0.88,-1.1,8.86
49.391117,4.03935,23.12,-1.08,-1.76,11.35
49.391323,4.039372,23.18,-0.52,-1.91,8.92
49.391323,4.039372,23.18,-0.52,-0.96,8.5
49.391532,4.039399,23.34,-0.73,-2.26,10.8
49.391532,4.039399,23.34,-0.01,-2.26,10.5
49.391742,4.039427,23.32,-0.81,-2.44,10.74
49.391742,4.039427,23.32,-1.25,-2.01,9.9
49.391954,4.039453,23.36,0.16,-1.62,9.3
49.391954,4.039453,23.36,0.24,-2.25,11.08
49.392162,4.039475,23.34,0.59,-1.36,7.97
49.392162,4.039475,23.34,-1.01,-1.7,9.61
49.392372,4.039497,23.65,-1.33,-1.76,6.56
49.392372,4.039497,23.65,1.24,-2.5,8.25
49.392583,4.039519,23.61,1.22,-2.36,10.29
49.392583,4.039519,23.61,0.63,-1.43,10.41
49.392799,4.039542,23.83,-0.58,-1.69,7.24
49.392799,4.039542,23.83,0.18,-2.28,9.39
49.39301,4.039564,24.14,-1.58,-1.66,10.73
49.39301,4.039564,24.14,-0.56,-2.2,7.26
49.393225,4.03959,24.39,0.1,-1.28,9.19
49.393225,4.03959,24.39,-0.81,-1.73,9.32
49.393441,4.039619,24.45,-0.16,-4.12,11.34
49.393441,4.039619,24.45,-0.48,-2.05,10.74
49.393662,4.039648,24.57,-0.88,-1.8,7.75
49.393662,4.039648,24.57,-0.82,-0.78,10.34
49.393885,4.039676,24.81,-0.33,-2.57,8.02
49.393885,4.039676,24.81,0.13,-1.07,7.25
49.394106,4.039706,24.78,-0.85,-1.63,11.99
49.394106,4.039706,24.78,-1.17,-2.61,7.58
49.394329,4.039735,24.82,0.09,-3.31,9.19
49.394329,4.039735,24.82,0.46,-2.6,11.84
49.394554,4.039762,24.89,-0.11,-1.28,10.37
49.394554,4.039762,24.89,0.42,-1.38,9.82
49.394779,4.039789,24.93,0.39,-1.13,12.51
49.394779,4.039789,24.93,-0.35,-0.79,9.48
49.395002,4.039812,24.98,0.54,-2.35,12.41
49.395002,4.039812,24.98,-0.72,-1.69,7.53
49.395224,4.039833,25.01,-1.07,-2.73,9.57
49.395224,4.039833,25.01,0.05,-1.42,6.89
49.395449,4.039861,25.1,-0.2,-1.75,8.97
49.395675,4.039888,25.1,-0.17,-1.18,10.35
49.395675,4.039888,25.1,0.22,-2.05,9.42
49.395902,4.039917,25.13,-0.61,-1.63,7.24
49.395902,4.039917,25.13,-0.66,-1.61,9.0
49.396128,4.039947,25.13,-0.73,-2.43,10.39
49.396128,4.039947,25.13,0.75,-2.46,11.4
49.396354,4.039975,25.14,-0.46,-2.44,10.41
49.396354,4.039975,25.14,-0.45,-1.46,10.7
49.396578,4.040002,25.2,-1.11,-2.39,7.37
49.396578,4.040002,25.2,0.49,-1.02,9.47
49.396803,4.040028,25.15,-0.22,-2.18,9.53
49.396803,4.040028,25.15,-0.53,-1.63,9.27
49.397029,4.040052,25.07,-1.14,-2.98,9.88
49.397029,4.040052,25.07,-0.95,-1.16,8.73
49.397255,4.040083,25.01,0.74,-2.05,9.52
49.397255,4.040083,25.01,-0.35,-1.92,12.48
49.397477,4.04011,25.07,-0.07,-2.15,10.45
49.397477,4.04011,25.07,0.39,-1.44,8.96
49.397701,4.040141,25.03,-0.68,-2.37,9.87
49.397701,4.040141,25.03,0.02,-3.14,11.16
49.397929,4.04017,25.14,0.67,-1.77,7.37
49.397929,4.04017,25.14,-0.83,-1.75,9.29
49.398157,4.040199,25.28,-1.36,-1.17,11.09
49.398157,4.040199,25.28,-0.02,-2.12,8.19
49.398384,4.040227,25.41,0.85,-0.98,7.8
49.398384,4.040227,25.41,-1.1,-2.28,9.68
49.39861,4.040256,25.55,0.84,-2.15,11.01
49.39861,4.040256,25.55,0.74,-1.93,11.16
49.398838,4.040285,25.73,-1.47,-2.04,10.55
49.398838,4.040285,25.73,0.97,-2.2,9.92
49.399069,4.040309,25.88,-0.61,-2.44,9.34
49.399069,4.040309,25.88,-0.34,-1.91,9.29
49.399301,4.040334,25.98,-0.72,-1.79,8.4
49.399301,4.040334,25.98,-0.1,-1.71,7.96
49.399534,4.040361,25.98,-0.73,-2.36,9.05
49.399534,4.040361,25.98,0.4,-0.9,8.46
49.39977,4.040388,26.04,-0.06,-0.82,8.43
49.39977,4.040388,26.04,-1.19,-2.04,7.87
49.400005,4.04042,26.05,0.1,-1.12,9.64
49.400005,4.04042,26.05,0.0,-3.22,10.02
49.40024,4.040452,26.07,-1.18,-2.2,8.96
49.400477,4.040479,26.1,-0.02,-2.98,10.82
49.400477,4.040479,26.1,-0.68,-1.22,7.47
49.400709,4.040504,26.2,-0.68,-2.72,10.33
49.400709,4.040504,26.2,0.13,-2.07,8.29
49.400943,4.04053,26.3,-1.79,-1.46,7.96
49.400943,4.04053,26.3,0.24,-1.51,7.43
49.401181,4.040562,26.39,-0.76,-1.67,10.43
49.401181,4.040562,26.39,-0.19,-3.7,10.95
49.401417,4.04059,26.6,-0.44,-1.91,7.19
49.401417,4.04059,26.6,1.02,-2.37,11.8
49.401657,4.040623,26.62,1.83,-1.07,9.76
49.401657,4.040623,26.62,-0.23,-1.37,7.77
49.401894,4.040652,26.59,-1.47,-2.06,8.27
49.401894,4.040652,26.59,-0.46,-1.51,9.85
49.40213,4.040674,26.52,-0.58,-0.52,6.81
49.40213,4.040674,26.52,-0.52,-0.75,7.23
49.402366,4.0407,26.45,-0.94,-1.49,7.77
49.402366,4.0407,26.45,-0.79,-2.01,11.1
49.402603,4.040727,26.33,0.0,-1.99,10.08
49.402603,4.040727,26.33,-0.14,-1.14,8.46
49.402836,4.040751,26.04,0.38,-1.56,9.1
49.402836,4.040751,26.04,-0.81,-0.22,7.63
49.40307,4.04078,25.82,-2.06,-1.81,9.71
49.40307,4.04078,25.82,0.45,-0.92,12.14
49.403301,4.040807,25.57,0.14,-1.38,9.32
49.403301,4.040807,25.57,-0.28,-1.37,9.45
49.403529,4.040834,25.53,0.76,-0.99,9.5
49.403529,4.040834,25.53,-0.67,-2.32,10.17
49.403758,4.040861,25.47,-0.4,-0.45,11.69
49.403758,4.040861,25.47,0.17,-0.37,9.73
49.403986,4.040884,25.4,-0.7,-1.06,7.04
49.403986,4.040884,25.4,-0.05,-1.82,10.17
49.404211,4.040908,25.17,-0.6,-2.38,8.1
49.404211,4.040908,25.17,-1.84,-1.58,7.67
49.404439,4.040935,25.15,0.14,-1.15,9.32
49.404439,4.040935,25.15,0.56,-1.56,9.62
49.404666,4.040963,24.94,-1.45,-1.05,10.04
49.404666,4.040963,24.94,0.34,-0.8,12.59
49.40489,4.040992,24.91,-0.03,-1.85,9.92
49.40489,4.040992,24.91,0.66,-3.08,9.93
49.405112,4.041017,24.81,-0.66,-1.64,8.91
49.405335,4.041044,24.78,0.09,-0.73,8.58
49.405335,4.041044,24.78,-0.3,-2.14,9.28
49.405556,4.04107,24.7,-0.3,-2.03,11.03
49.405556,4.04107,24.7,-0.97,-2.7,8.55
49.405776,4.041095,24.7,-0.24,-1.63,10.45
49.405776,4.041095,24.7,-0.59,-1.45,11.73
49.406002,4.04112,24.66,0.45,-1.85,8.4
49.406002,4.04112,24.66,0.23,-3.25,10.71
49.406223,4.041144,24.66,-0.38,-1.49,9.63
49.406223,4.041144,24.66,-0.36,-2.23,11.62
49.406446,4.041168,24.63,-0.02,-2.59,9.28
49.406446,4.041168,24.63,0.65,-1.81,12.14
49.406666,4.041195,24.55,0.36,-2.3,11.15
49.406666,4.041195,24.55,-0.45,-2.71,8.06
49.406887,4.041219,24.42,-0.88,-2.6,8.79
49.406887,4.041219,24.42,-0.68,-1.67,8.23
49.407106,4.041248,24.33,-0.27,-2.01,9.91
49.407106,4.041248,24.33,0.11,-3.07,8.61
49.407325,4.041276,24.18,0.1,-1.56,8.08
49.407325,4.041276,24.18,-1.15,-2.19,7.71
49.407543,4.041305,24.16,0.61,-1.92,7.6
49.407543,4.041305,24.16,-0.46,-1.0,8.77
49.40776,4.041331,24.06,-0.4,-1.97,13.58
49.40776,4.041331,24.06,-0.26,-2.57,8.58
49.407975,4.041353,24.01,0.46,-1.63,8.2
49.407975,4.041353,24.01,-0.81,-1.71,8.41
49.408189,4.041376,23.95,-0.05,-0.8,7.01
49.408189,4.041376,23.95,0.18,-1.32,9.7
49.408402,4.0414,23.91,-0.17,-1.75,8.57
49.408402,4.0414,23.91,-0.44,-1.8,10.41
49.408615,4.041428,23.85,0.45,-2.54,11.64
49.408615,4.041428,23.85,-0.91,-2.08,8.64
49.408831,4.041451,23.83,-0.87,-1.05,9.16
49.408831,4.041451,23.83,-0.27,-1.58,7.11
49.409043,4.041475,23.82,0.15,-2.37,9.46
49.409043,4.041475,23.82,0.11,-1.21,10.75
49.409254,4.041499,23.86,-0.53,-0.98,9.48
49.409254,4.041499,23.86,-1.4,-2.45,10.24
49.409466,4.041524,23.85,-0.02,-0.61,7.95
49.409466,4.041524,23.85,-0.84,-2.01,9.95
49.409678,4.041548,23.87,0.42,-0.65,10.47
49.40989,4.041571,23.92,-0.35,-1.39,9.38
49.40989,4.041571,23.92,0.14,-1.31,8.92
49.410103,4.041597,24.01,-0.72,-1.49,9.8
49.410103,4.041597,24.01,-0.36,-2.51,11.76
49.410318,4.04162,24.27,1.63,-1.29,10.61
49.410318,4.04162,24.27,0.67,-1.47,11.04
49.410539,4.04165,24.55,-0.24,-2.52,8.68
49.410539,4.04165,24.55,0.24,-1.43,10.18
49.410761,4.041681,24.85,-0.12,-1.65,8.59
49.410761,4.041681,24.85,-0.07,-1.11,11.22
49.410986,4.04171,25.06,0.34,-0.49,12.08
49.410986,4.04171,25.06,-0.09,-0.41,10.04
49.411211,4.041734,25.23,0.12,-1.87,11.64
49.411211,4.041734,25.23,-0.2,-0.25,7.56
49.411439,4.041762,25.26,-0.1,-2.12,9.85
49.411439,4.041762,25.26,-0.41,-0.74,8.91
49.411666,4.041793,25.2,-0.22,0.01,8.95
49.411666,4.041793,25.2,-1.13,-0.84,9.93
49.411895,4.041821,25.23,0.14,-1.67,11.18
49.411895,4.041821,25.23,-0.76,-2.39,7.68
49.412123,4.041845,25.17,-1.39,-1.39,9.41
49.412123,4.041845,25.17,-0.71,-2.01,9.34
49.412347,4.041869,25.13,-0.05,-1.24,9.98
49.412347,4.041869,25.13,-0.5,-0.73,8.18
49.412574,4.041893,25.13,0.01,-1.49,10.86
49.412574,4.041893,25.13,0.06,-2.17,7.06
49.412792,4.041913,25.14,0.0,-1.03,8.76
49.412792,4.041913,25.14,-0.73,-2.0,10.16
49.413018,4.041939,25.08,-0.25,-1.29,9.27
49.413018,4.041939,25.08,0.03,-1.03,10.58
49.413245,4.041966,25.0,0.08,-0.45,9.08
49.413245,4.041966,25.0,-1.34,-0.17,9.21
49.413468,4.041993,24.82,-0.28,-0.27,10.52
49.413468,4.041993,24.82,-1.46,-1.35,9.66
49.413688,4.042019,24.45,-0.27,-2.57,10.29
49.413688,4.042019,24.45,-0.95,-0.94,10.19
49.4139,4.042044,24.05,-0.79,-1.85,8.53
49.4139,4.042044,24.05,-0.05,-0.25,11.27
49.414112,4.042071,23.91,0.17,-1.4,8.53
49.414112,4.042071,23.91,0.75,-1.24,9.26
49.414324,4.042098,23.51,0.75,-1.49,10.82
49.414528,4.042114,23.14,-0.59,-1.06,9.19
49.414528,4.042114,23.14,-0.7,-0.87,9.03
49.414741,4.042134,22.81,-0.24,-0.65,8.2
49.414741,4.042134,22.81,0.89,-0.93,11.55
49.414943,4.042158,22.61,-1.13,-1.35,12.14
49.414943,4.042158,22.61,-0.42,-1.39,9.28
49.415143,4.042183,22.34,0.57,-1.7,12.28
49.415143,4.042183,22.34,0.32,-1.39,10.1
49.415344,4.042211,22.14,0.59,-0.2,11.08
49.415344,4.042211,22.14,-0.99,-1.56,8.94
49.415543,4.042238,21.96,-0.58,-0.83,8.53
49.415543,4.042238,21.96,-1.11,-1.31,8.14
49.415743,4.042263,21.69,-0.29,-0.92,11.76
49.415743,4.042263,21.69,0.92,-1.61,8.09
49.415937,4.042289,21.45,-0.59,-1.69,10.58
49.415937,4.042289,21.45,-1.8,-1.0,7.38
49.416129,4.042312,21.2,-0.58,-0.94,10.21
49.416129,4.042312,21.2,0.34,-1.88,13.76
49.416315,4.042333,21.0,-0.09,-1.17,9.88
49.416315,4.042333,21.0,0.54,-1.3,10.09
49.416501,4.042355,20.84,-1.18,-2.04,10.9
49.416501,4.042355,20.84,1.05,-1.52,11.84
49.416687,4.042377,20.8,0.05,-1.24,10.74
49.416687,4.042377,20.8,0.44,-1.7,9.12
49.416871,4.042398,20.76,-1.5,-0.99,7.8
49.416871,4.042398,20.76,-0.19,-1.96,10.69
49.417056,4.042417,20.73,-0.42,-2.02,9.72
49.417056,4.042417,20.73,-0.13,-1.17,6.92
49.417242,4.042438,20.74,0.21,-0.79,12.23
49.417242,4.042438,20.74,-0.69,-2.08,7.15
49.417429,4.042459,20.74,-0.25,-1.74,10.88
49.417429,4.042459,20.74,-0.04,-1.46,11.16
49.417616,4.042479,20.75,0.25,-2.42,8.08
49.417616,4.042479,20.75,-0.5,-1.76,10.36
49.417802,4.042498,20.76,-0.18,-0.9,8.85
49.417802,4.042498,20.76,0.17,-1.38,9.84
49.417987,4.042518,20.88,-0.42,-1.7,9.21
49.417987,4.042518,20.88,0.47,-2.37,12.03
49.418167,4.042538,20.86,-0.4,-1.84,9.28
49.418167,4.042538,20.86,-0.91,-1.58,9.85
49.418352,4.042559,21.06,0.5,-1.73,9.6
49.418352,4.042559,21.06,0.39,-2.07,8.4
49.418543,4.042582,21.1,-1.6,-2.16,10.08
49.418736,4.042604,21.27,-0.33,-1.9,8.79
49.418736,4.042604,21.27,-0.56,-2.02,9.87
49.418929,4.042625,21.43,-0.58,-2.43,12.35
49.418929,4.042625,21.43,-0.93,-2.04,9.53
49.419121,4.042648,21.49,-0.63,-2.05,11.04
49.419121,4.042648,21.49,-0.09,-1.25,11.26
49.419313,4.042669,21.57,-0.35,-0.77,11.56
49.419313,4.042669,21.57,1.41,-1.24,11.25
49.419507,4.042699,21.54,-0.05,-1.84,8.62
49.419507,4.042699,21.54,-0.63,-2.41,12.73
49.419701,4.042721,21.47,-0.44,-1.08,10.07
49.419701,4.042721,21.47,-0.52,-1.24,10.65
49.419895,4.042744,21.19,-1.21,-1.36,11.61
49.419895,4.042744,21.19,-0.71,-0.47,10.73
49.420084,4.042765,20.79,-0.12,-0.53,11.53
49.420084,4.042765,20.79,-0.94,-1.42,11.16
49.42027,4.042787,20.25,-1.13,-2.29,8.4
49.42027,4.042787,20.25,0.72,-1.9,11.68
49.420449,4.042813,19.82,-0.98,-2.09,10.71
49.420449,4.042813,19.82,-2.44,-2.03,8.35
49.420624,4.042838,19.61,-0.77,-2.21,8.28
49.420624,4.042838,19.61,-0.61,-2.41,9.39
49.420795,4.042868,19.31,0.17,-1.33,8.65
49.420795,4.042868,19.31,0.67,-1.45,9.94
49.420965,4.042899,19.09,0.55,-1.48,9.67
49.420965,4.042899,19.09,-0.12,-0.97,9.6
49.421137,4.042928,18.93,-0.21,-2.02,10.41
49.421137,4.042928,18.93,0.53,-1.84,9.69
49.421307,4.042953,18.61,-0.06,-1.3,9.68
49.421307,4.042953,18.61,-0.31,-1.27,10.82
49.421474,4.042981,18.24,-0.11,-1.36,10.18
49.421474,4.042981,18.24,0.06,-1.69,10.03
49.421635,4.043006,18.11,0.14,-0.98,8.93
49.421635,4.043006,18.11,-0.61,-1.88,9.73
49.421792,4.043038,17.86,-0.6,-1.81,10.06
49.421792,4.043038,17.86,0.06,-2.13,7.29
49.421948,4.04306,17.92,0.06,-2.14,10.63
49.421948,4.04306,17.92,-0.34,-1.67,10.28
49.422108,4.043089,17.94,0.27,-1.59,8.85
49.422108,4.043089,17.94,0.71,-1.94,9.97
49.422272,4.043115,18.21,0.18,-2.11,9.17
49.422436,4.043138,18.41,0.03,-2.22,9.4
49.422436,4.043138,18.41,-0.67,-1.97,8.56
49.422606,4.043152,18.57,-0.25,-1.75,9.94
49.422606,4.043152,18.57,0.4,-1.43,8.74
49.422782,4.04317,18.86,0.09,-1.24,8.21
49.422782,4.04317,18.86,-0.41,-1.94,9.29
49.422956,4.043199,18.93,-0.1,-2.03,9.45
49.422956,4.043199,18.93,1.04,-1.87,10.0
49.423137,4.043246,19.13,-0.05,-1.31,8.67
49.423137,4.043246,19.13,0.26,-1.98,9.89
49.423308,4.043249,19.35,0.96,-1.28,9.76
49.423308,4.043249,19.35,-0.33,-1.73,9.79
49.423483,4.043253,19.41,-0.26,-1.77,11.32
49.423483,4.043253,19.41,-0.49,-2.09,9.92
49.423661,4.043254,19.45,-0.39,-0.5,7.04
49.423661,4.043254,19.45,0.27,-1.3,10.58
49.423834,4.043262,19.35,-0.54,-1.17,10.44
49.423834,4.043262,19.35,0.07,-1.7,11.1
49.424007,4.043272,19.15,-0.24,-1.78,9.69
49.424007,4.043272,19.15,-0.35,-2.7,9.9
49.424177,4.043281,19.06,-0.79,-2.13,9.96
49.424177,4.043281,19.06,-0.83,-1.84,9.44
49.424345,4.043291,18.99,-0.87,-1.91,12.58
49.424345,4.043291,18.99,-0.4,-2.7,10.53
49.424514,4.043304,18.89,-0.23,-2.08,9.68
49.424514,4.043304,18.89,-0.76,-1.08,9.12
49.424681,4.043316,18.76,-0.37,-1.43,10.77
49.424681,4.043316,18.76,-0.46,-1.57,10.02
49.424847,4.04333,18.62,-1.35,-2.11,9.05
49.424847,4.04333,18.62,-1.59,-1.24,10.3
49.425011,4.043347,18.57,-0.63,-1.47,9.86
49.425011,4.043347,18.57,-0.62,-1.7,9.56
49.425175,4.043372,18.56,0.28,-1.44,9.13
49.425175,4.043372,18.56,1.02,-1.16,11.09
49.425339,4.043394,18.59,-0.48,-1.31,10.67
49.425339,4.043394,18.59,-0.41,-1.89,10.13
49.425506,4.043418,18.69,-0.15,-1.9,10.08
49.425506,4.043418,18.69,-0.94,-1.67,10.18
49.425675,4.043432,18.78,-1.02,-1.29,9.39
49.425675,4.043432,18.78,-0.45,-1.31,8.78
49.425845,4.043447,18.86,-0.02,-1.82,11.6
49.426013,4.043467,18.73,-0.81,-2.05,10.71
49.426013,4.043467,18.73,-0.57,-0.73,8.82
49.42618,4.043487,18.63,-0.54,-0.8,11.43
49.42618,4.043487,18.63,-0.49,-1.08,9.49
49.426345,4.043505,18.3,-0.68,-1.06,9.58
49.426345,4.043505,18.3,0.01,-1.69,9.91
49.426505,4.043525,17.98,-0.4,-0.64,8.62
49.426505,4.043525,17.98,-0.64,-1.7,9.99
49.426667,4.043543,17.75,-1.43,-1.75,10.02
49.426667,4.043543,17.75,-0.14,-0.98,10.81
49.426824,4.043563,17.4,-0.31,-0.92,9.57
49.426824,4.043563,17.4,0.02,-1.19,9.71
49.426979,4.043581,17.02,-0.5,-1.21,9.75
49.426979,4.043581,17.02,-0.45,-1.67,10.68
49.427132,4.043597,16.64,0.18,-1.1,10.18
49.427132,4.043597,16.64,-1.29,-1.55,9.96
49.42728,4.043612,16.39,0.13,-1.51,11.0
49.42728,4.043612,16.39,-0.18,-0.97,9.79
49.427423,4.043628,16.01,0.25,-0.73,9.89
49.427423,4.043628,16.01,-0.51,-0.73,10.45
49.427564,4.043645,15.8,-0.81,-1.22,7.73
49.427564,4.043645,15.8,-0.11,-0.78,9.65
49.4277,4.043664,14.99,-0.81,-1.03,10.92
49.4277,4.043664,14.99,-0.6,-1.01,9.16
49.427831,4.043677,14.31,-0.68,-0.57,9.93
49.427831,4.043677,14.31,-0.71,-0.42,8.98
49.427954,4.043689,13.06,-0.12,-1.14,10.37
49.427954,4.043689,13.06,-0.43,-0.51,7.43
49.428064,4.0437,11.85,-0.83,0.27,10.59
49.428064,4.0437,11.85,-0.64,-0.34,9.81
49.428162,4.043709,10.3,0.15,-0.39,8.71
49.428162,4.043709,10.3,0.36,0.0,10.74
49.428247,4.04372,9.31,-1.25,-0.55,9.02
49.428247,4.04372,9.31,-0.62,-0.45,9.47
49.428322,4.043731,8.13,-1.65,-0.6,10.74
49.428322,4.043731,8.13,-2.06,-0.33,10.24
49.428392,4.043749,7.02,-2.03,-0.55,8.72
49.428392,4.043749,7.02,-1.9,-1.47,9.46
49.428445,4.043781,6.22,-2.07,-1.43,10.02
49.428445,4.043781,6.22,-2.54,-2.63,9.98
49.428491,4.043832,6.27,-2.86,-2.01,9.74
49.428527,4.043903,6.61,-1.74,-2.6,11.2
49.428527,4.043903,6.61,-2.4,-2.22,9.18
49.428542,4.044004,7.48,-1.57,-2.68,10.85
49.428542,4.044004,7.48,-1.06,-2.39,9.17
49.428531,4.044116,8.54,-1.3,-2.24,10.26
49.428531,4.044116,8.54,0.6,-2.78,10.46
49.428518,4.044247,9.36,0.72,-2.14,11.11
49.428518,4.044247,9.36,-0.08,-3.4,8.72
49.428503,4.044387,10.57,0.56,-2.5,9.28
49.428503,4.044387,10.57,0.54,-1.84,8.05
49.42849,4.044536,11.2,0.52,-4.09,8.16
49.42849,4.044536,11.2,0.77,-2.4,9.38
49.428478,4.044688,11.98,-0.03,-2.33,9.15
49.428478,4.044688,11.98,0.02,-1.82,8.48
49.428473,4.044859,12.63,0.85,-2.34,10.66
49.428473,4.044859,12.63,1.69,-2.31,8.99
49.428484,4.045044,13.42,1.23,-1.03,11.9
49.428484,4.045044,13.42,2.51,-0.98,8.71
49.428506,4.045221,13.79,1.32,-2.0,10.98
49.428506,4.045221,13.79,1.01,-2.17,9.73
49.428547,4.045402,13.99,1.15,-3.51,9.84
49.428547,4.045402,13.99,1.13,-1.44,9.94
49.428608,4.045576,14.67,1.11,-2.38,10.24
49.428608,4.045576,14.67,2.12,-1.55,8.97
49.428689,4.045744,14.92,2.01,-1.36,9.18
49.428689,4.045744,14.92,1.74,-3.03,11.24
49.428788,4.045895,15.22,3.19,-2.03,11.15
49.428788,4.045895,15.22,2.91,-2.91,11.72
49.428911,4.046012,15.61,1.92,-2.07,7.99
49.428911,4.046012,15.61,0.73,-2.45,9.43
49.429049,4.046093,16.08,0.48,-2.4,11.09
49.429049,4.046093,16.08,-0.45,-1.82,8.03
49.429196,4.046152,16.48,-0.42,-1.74,10.2
49.429196,4.046152,16.48,0.21,-2.53,10.67
49.429347,4.046202,16.75,-0.34,-2.56,7.6
49.429347,4.046202,16.75,0.79,-0.63,12.75
49.429499,4.046245,17.24,1.18,-1.72,10.57
49.429499,4.046245,17.24,0.53,-1.68,8.64
49.429656,4.04629,17.68,0.05,-1.79,10.64
49.429656,4.04629,17.68,1.07,-2.1,11.12
49.429817,4.046326,18.34,-1.15,-2.37,10.9
49.429986,4.046363,18.96,-0.02,-2.13,10.82
49.429986,4.046363,18.96,-0.06,-1.79,7.92
49.430158,4.046407,19.42,-0.27,-2.8,7.92
49.430158,4.046407,19.42,-1.28,-1.85,11.2
49.430333,4.046458,19.65,-0.39,-2.43,10.58
49.430333,4.046458,19.65,0.24,-1.18,9.36
49.43051,4.046512,19.97,0.62,-1.86,9.39
49.43051,4.046512,19.97,0.9,-1.89,8.86
49.430687,4.046565,20.22,0.16,-1.77,11.54
49.430687,4.046565,20.22,0.93,-2.54,10.23
49.430867,4.046619,20.44,-0.09,-1.92,8.47
49.430867,4.046619,20.44,0.5,-1.39,8.47
49.431049,4.046674,20.62,-0.5,-2.27,9.05
49.431049,4.046674,20.62,-0.21,-2.06,10.04
49.431233,4.046731,20.91,-0.05,-2.55,8.92
49.431233,4.046731,20.91,-0.33,-1.06,10.5
49.431421,4.046785,20.93,-0.7,-2.06,10.87
49.431421,4.046785,20.93,0.42,-1.98,8.62
49.431607,4.046842,20.94,-1.27,-3.06,10.71
49.431607,4.046842,20.94,0.08,-1.88,9.44
49.431797,4.046902,20.94,0.57,-2.07,10.46
49.431797,4.046902,20.94,-0.36,-2.93,14.63
49.431985,4.046955,20.87,-0.23,-3.42,10.04
49.431985,4.046955,20.87,-0.41,-2.57,8.97
49.432171,4.047012,20.81,0.59,-1.74,10.55
49.432171,4.047012,20.81,-1.09,-1.57,10.45
49.432355,4.047065,20.69,-0.6,-1.27,10.5
49.432355,4.047065,20.69,-0.53,-0.03,9.46
49.432537,4.047109,20.22,-0.53,0.75,8.11
49.432537,4.047109,20.22,-1.13,0.73,11.42
49.432712,4.047156,18.81,-2.14,-1.2,10.7
49.432712,4.047156,18.81,-3.29,-0.46,11.35
49.432867,4.0472,17.57,-2.84,-0.53,11.6
49.432867,4.0472,17.57,-3.37,-1.56,9.17
49.433011,4.047258,15.82,-3.73,-1.7,9.0
49.433011,4.047258,15.82,-3.51,-2.03,10.42
49.433132,4.04735,15.66,-0.7,-2.23,7.47
49.433132,4.04735,15.66,-0.95,-1.14,5.22
49.43324,4.047481,15.76,-1.16,-1.5,8.03
49.43324,4.047481,15.76,-1.3,-1.55,8.26
49.433335,4.047648,15.93,0.53,-1.0,9.79
49.433335,4.047648,15.93,-0.14,-1.45,9.8
49.433428,4.047824,15.92,-0.47,-0.43,9.22
49.433518,4.047995,14.86,-0.5,-1.28,11.31
49.433518,4.047995,14.86,-0.31,-0.63,9.08
49.4336,4.048146,14.0,-2.08,-1.25,9.73
49.4336,4.048146,14.0,-2.25,-0.81,10.5
49.433669,4.048297,13.41,-2.63,-0.91,8.64
49.433669,4.048297,13.41,-2.09,-1.31,10.31
49.433721,4.048463,12.94,-1.47,-2.16,11.54
49.433721,4.048463,12.94,-3.25,-2.01,8.27
49.43375,4.048636,13.17,-3.62,-2.05,10.23
49.43375,4.048636,13.17,-2.63,-1.93,9.71
49.433758,4.04882,13.18,-2.24,-1.56,9.53
49.433758,4.04882,13.18,-1.66,-3.31,11.33
49.433751,4.049006,13.46,-2.05,-2.65,8.83
49.433751,4.049006,13.46,-0.91,-2.3,10.14
49.433724,4.049193,13.78,-1.04,-2.16,10.15
49.433724,4.049193,13.78,0.0,-3.17,9.77
49.43368,4.049373,14.29,0.82,-2.37,9.64
49.43368,4.049373,14.29,0.52,-2.93,10.21
49.433631,4.049558,14.44,0.26,-1.47,9.68
49.433631,4.049558,14.44,-0.23,-1.24,8.77
49.433589,4.049752,14.53,-0.96,-0.9,9.41
49.433589,4.049752,14.53,-0.42,-1.08,10.28
49.433555,4.049944,14.35,0.0,-1.5,10.12
49.433555,4.049944,14.35,-0.63,-1.85,9.51
49.433515,4.050131,13.85,-0.28,-0.07,9.35
49.433515,4.050131,13.85,-0.35,-0.79,9.25
49.433477,4.050304,13.33,0.28,-1.39,10.03
49.433477,4.050304,13.33,-0.1,-1.83,10.17
49.433435,4.05047,13.02,-0.09,-1.57,9.09
49.433435,4.05047,13.02,0.44,-2.15,10.25
49.433393,4.05064,12.89,-0.17,-1.7,10.43
49.433393,4.05064,12.89,0.05,-3.1,9.09
49.433347,4.050809,13.08,0.4,-2.06,7.62
49.433347,4.050809,13.08,-0.54,-1.71,8.67
49.433306,4.05098,13.36,0.73,-1.49,8.96
49.433306,4.05098,13.36,0.71,-1.4,10.07
49.433268,4.051162,13.39,0.64,-0.4,10.18
49.433268,4.051162,13.39,-0.16,-2.05,10.39
49.433223,4.051335,13.42,0.37,-1.85,10.5
49.433183,4.051511,13.34,-0.16,-1.3,9.43
49.433183,4.051511,13.34,0.54,-1.35,9.14
49.433149,4.051682,13.37,1.65,-2.05,11.8
49.433149,4.051682,13.37,0.54,-1.35,9.18
49.433127,4.051858,13.25,-0.09,-0.65,9.37
49.433127,4.051858,13.25,-0.35,-1.7,9.42
49.433106,4.05203,13.24,-0.77,-1.64,11.18
49.433106,4.05203,13.24,-1.89,-2.15,11.18
49.433088,4.052212,13.25,-0.26,-2.52,11.17
49.433088,4.052212,13.25,-0.63,-1.56,7.48
49.433055,4.052384,13.31,-0.4,-2.04,10.54
49.433055,4.052384,13.31,-0.56,-1.7,10.02
49.433011,4.052557,13.37,-0.19,-1.71,9.93
49.433011,4.052557,13.37,-0.09,-1.78,9.71
49.432965,4.052732,13.42,0.14,-1.63,9.76
49.432965,4.052732,13.42,-0.29,-1.89,9.18
49.432919,4.052906,13.48,0.75,-1.66,8.54
49.432919,4.052906,13.48,0.03,-1.83,10.92
49.432877,4.053081,13.51,-0.34,-0.93,9.45
49.432877,4.053081,13.51,-0.16,-2.17,8.23
49.432833,4.053256,13.5,0.3,-2.14,9.15
49.432833,4.053256,13.5,-0.62,-1.61,11.19
49.432784,4.053429,13.55,0.03,-0.99,10.39
49.432784,4.053429,13.55,-0.38,-1.0,10.09
49.432729,4.053598,13.29,0.48,-1.11,10.1
49.432729,4.053598,13.29,-0.07,-1.63,9.06
49.432687,4.053768,13.28,-0.26,-2.72,7.06
49.432687,4.053768,13.28,-0.08,-1.94,9.64
49.43264,4.053937,13.28,-0.39,-1.42,8.38
49.43264,4.053937,13.28,-0.61,-1.48,8.18
49.43259,4.054106,13.12,0.2,-2.0,9.28
49.43259,4.054106,13.12,0.56,-0.09,9.16
49.432547,4.054278,12.97,-0.34,-0.67,9.8
49.432547,4.054278,12.97,0.59,-1.21,10.42
49.432504,4.05444,12.25,0.31,-1.27,9.69
49.432504,4.05444,12.25,0.66,-0.76,9.62
49.432464,4.05459,11.43,0.11,-1.13,9.42
49.432464,4.05459,11.43,-0.11,-2.11,10.3
49.432427,4.054729,10.72,0.32,-1.65,9.73
49.432427,4.054729,10.72,1.36,-1.31,8.58
49.432389,4.054859,10.15,2.03,-1.06,9.91
49.432389,4.054859,10.15,2.51,-1.13,9.58
49.43236,4.054989,9.49,2.55,-1.08,9.53
49.43236,4.054989,9.49,3.08,-1.4,10.01
49.432344,4.055109,8.67,1.96,-2.46,9.52
49.432357,4.055224,8.55,2.08,-2.38,9.14
49.432357,4.055224,8.55,2.21,-2.51,9.9
49.432394,4.055334,8.69,1.25,-2.47,10.69
49.432394,4.055334,8.69,1.28,-2.49,9.67
49.43245,4.055428,9.16,1.19,-2.55,9.47
49.43245,4.055428,9.16,1.52,-2.35,8.8
49.432526,4.0555,9.51,1.16,-2.43,10.13
49.432526,4.0555,9.51,0.63,-2.12,9.73
49.432616,4.055557,10.36,0.07,-2.68,8.98
49.432616,4.055557,10.36,0.13,-3.26,11.04
49.432715,4.055596,11.09,-0.1,-2.8,9.31
49.432715,4.055596,11.09,-0.22,-1.94,9.27
49.432817,4.055625,11.78,-0.95,-3.29,10.15
49.432817,4.055625,11.78,-0.65,-2.72,10.15
49.43293,4.055658,12.78,-1.02,-1.73,10.19
49.43293,4.055658,12.78,-0.75,-2.5,10.39
49.43305,4.055698,13.19,-1.03,-1.85,9.02
49.43305,4.055698,13.19,-0.91,-2.23,10.1
49.43317,4.055754,13.49,-1.88,-1.68,10.15
49.43317,4.055754,13.49,-1.94,-1.04,11.12
49.433282,4.055832,13.29,-1.72,-1.22,10.55
49.433282,4.055832,13.29,-1.61,-1.52,10.46
49.433381,4.055934,12.87,-2.29,-1.69,9.22
49.433381,4.055934,12.87,-2.28,-2.54,11.09
49.433466,4.056057,12.27,-2.12,-2.59,10.55
49.433466,4.056057,12.27,-1.39,-1.77,9.28
49.433531,4.056205,12.22,-2.35,-3.03,10.76
49.433531,4.056205,12.22,-1.25,-3.18,9.43
49.433577,4.056365,12.45,-1.42,-1.68,8.73
49.433577,4.056365,12.45,-1.23,-3.49,10.86
49.433607,4.056525,12.73,-1.82,-2.85,9.32
49.433607,4.056525,12.73,-1.59,-2.05,8.93
49.433621,4.056705,13.29,-0.41,-1.74,8.96
49.433621,4.056705,13.29,-1.13,-3.02,10.08
49.433624,4.056893,13.73,-0.63,-3.61,10.07
49.433624,4.056893,13.73,-0.21,-2.71,10.0
49.433612,4.057083,14.13,-0.44,-2.13,8.8
49.433612,4.057083,14.13,0.26,-1.92,9.28
49.433594,4.057282,14.78,-1.34,-1.99,9.86
49.433594,4.057282,14.78,0.06,-2.04,9.61
49.433579,4.057496,15.27,0.14,-2.83,9.19
49.433579,4.057496,15.27,-0.22,-1.87,9.13
49.433566,4.057709,15.76,-0.28,-2.57,11.18
49.433554,4.057934,16.17,0.41,-1.67,8.79
49.433554,4.057934,16.17,-0.76,-1.82,10.17
49.433543,4.058165,16.69,-0.05,-3.12,10.02
49.433543,4.058165,16.69,0.32,-2.44,10.12
49.433534,4.058404,16.99,-0.43,-1.92,9.13
49.433534,4.058404,16.99,0.45,-3.18,11.34
49.433523,4.058643,17.33,0.45,-2.2,9.51
49.433523,4.058643,17.33,0.33,-2.29,10.1
49.433511,4.058883,17.65,0.78,-2.05,9.66
49.433511,4.058883,17.65,-0.73,-2.14,8.6
49.4335,4.059127,17.93,-0.74,-1.2,11.55
49.4335,4.059127,17.93,-0.23,-2.43,9.3
49.433489,4.059379,18.17,-0.27,-2.46,10.72
49.433489,4.059379,18.17,-0.79,-2.93,6.77
49.433478,4.059637,18.56,-0.35,-1.64,10.09
49.433478,4.059637,18.56,-0.18,-1.4,8.75
49.433466,4.059896,18.93,0.79,-2.73,13.51
49.433466,4.059896,18.93,-0.92,-1.46,9.48
49.433454,4.060151,19.07,-0.8,-1.5,9.15
49.433454,4.060151,19.07,0.26,-1.54,8.81
49.433445,4.060428,19.21,0.2,-2.36,10.0
49.433445,4.060428,19.21,0.16,-1.79,9.95
49.433436,4.060698,19.43,-0.39,-2.04,8.19
49.433436,4.060698,19.43,-0.01,-2.15,9.58
49.433436,4.060974,19.51,-0.78,-2.87,9.55
49.433436,4.060974,19.51,-0.35,-1.99,9.99
49.433439,4.061251,19.76,-0.17,-3.19,9.95
49.433439,4.061251,19.76,-0.04,-2.86,10.37
49.433446,4.061524,19.87,-0.85,-2.23,10.3
49.433446,4.061524,19.87,-1.66,-1.35,8.55
49.433459,4.061798,20.03,-1.19,-1.71,8.36
49.433459,4.061798,20.03,-0.41,-1.03,9.05
49.433474,4.062078,20.15,-0.98,-1.58,10.48
49.433474,4.062078,20.15,-0.18,-2.13,9.17
49.43349,4.062361,20.27,-0.5,-3.04,7.92
49.43349,4.062361,20.27,-0.18,-2.57,10.98
49.433503,4.062642,20.39,0.2,-2.63,12.58
49.433503,4.062642,20.39,0.16,-1.67,8.56
49.433516,4.06292,20.41,0.01,-1.58,9.56
49.433516,4.06292,20.41,0.82,-2.38,8.07
49.433529,4.0632,20.45,-0.63,-2.8,10.24
49.433546,4.063483,20.53,0.43,-1.84,9.73
49.433546,4.063483,20.53,-1.26,-2.17,9.94
49.433562,4.063761,20.59,-0.98,-2.57,8.7
49.433562,4.063761,20.59,-1.0,-1.77,8.48
49.433577,4.064048,20.59,-0.24,-1.4,8.36
49.433577,4.064048,20.59,-0.51,-2.58,8.4
49.43359,4.064332,20.55,-0.54,-2.73,9.22
49.43359,4.064332,20.55,-0.68,-2.18,8.97
49.433601,4.064619,20.54,-1.14,-3.18,9.49
49.433601,4.064619,20.54,-1.37,-2.77,8.8
49.433602,4.064898,20.55,-1.18,-1.94,8.82
49.433602,4.064898,20.55,-0.52,-2.14,10.76
49.433599,4.065178,20.53,0.05,-1.32,8.55
49.433599,4.065178,20.53,-1.1,-1.27,10.49
49.433586,4.065456,20.64,-0.77,-0.96,8.17
49.433586,4.065456,20.64,-0.78,-1.75,9.48
49.433571,4.065737,20.54,-0.91,-3.13,11.34
49.433571,4.065737,20.54,-1.53,-2.19,10.16
49.43355,4.066024,20.6,0.82,-1.39,12.5
49.43355,4.066024,20.6,-0.72,-1.76,11.92
49.433525,4.066305,20.72,-0.41,-3.02,9.99
49.433525,4.066305,20.72,-0.52,-2.6,8.91
49.433494,4.066586,20.77,-0.49,-2.84,11.61
49.433494,4.066586,20.77,-0.44,-2.07,8.95
49.433456,4.066855,20.85,-0.08,-1.67,9.26
49.433456,4.066855,20.85,-0.19,-1.87,10.94
49.433418,4.067143,20.85,-0.34,-2.69,9.08
49.433418,4.067143,20.85,0.66,-2.41,7.91
49.433394,4.067436,20.94,0.18,-1.27,8.46
49.433394,4.067436,20.94,-0.42,-1.56,8.71
49.433389,4.067738,21.1,0.35,-2.37,11.51
49.433389,4.067738,21.1,0.52,-2.16,9.46
49.433392,4.068043,21.25,-0.39,-2.51,9.85
49.433392,4.068043,21.25,-0.32,-1.06,9.41
49.433404,4.06834,21.37,0.34,-1.91,11.41
49.433404,4.06834,21.37,0.26,-1.95,10.55
49.433422,4.06863,21.49,-0.07,-1.51,8.53
49.433422,4.06863,21.49,-1.21,-2.08,11.96
49.433447,4.068912,21.69,0.04,-2.83,12.61
49.433447,4.068912,21.69,0.31,-0.87,9.02
49.433478,4.069194,21.94,-0.66,-2.47,10.33
49.433478,4.069194,21.94,-0.45,-1.09,9.89
49.433512,4.069484,22.04,-0.88,-2.04,8.73
49.433549,4.069783,22.31,-1.71,-2.11,7.52
49.433549,4.069783,22.31,0.07,-2.74,11.41
49.433588,4.070084,22.52,0.62,-1.8,10.15
49.433588,4.070084,22.52,0.49,-1.82,10.59
49.433641,4.070399,22.55,-0.32,-1.46,10.38
49.433641,4.070399,22.55,-0.43,-2.4,8.36
49.433688,4.070712,22.51,0.25,-2.41,12.88
49.433688,4.070712,22.51,0.54,-1.41,12.96
49.433724,4.071012,22.39,0.14,-2.41,11.18
49.433724,4.071012,22.39,0.64,-1.42,10.34
49.433771,4.071318,22.32,0.28,-1.64,9.77
49.433771,4.071318,22.32,0.14,-2.57,8.7
49.433811,4.071626,22.25,-0.13,-1.84,10.89
49.433811,4.071626,22.25,0.51,-2.02,11.55
49.433847,4.071926,22.23,0.89,-1.58,9.41
49.433847,4.071926,22.23,0.14,-1.21,8.44
49.433883,4.072224,22.23,0.1,-1.82,10.35
49.433883,4.072224,22.23,1.36,-1.74,9.31
49.433922,4.072521,22.36,-0.12,-2.92,10.15
49.433922,4.072521,22.36,0.65,-1.3,9.37
49.43396,4.072821,22.36,-1.48,-1.9,11.2
49.43396,4.072821,22.36,-0.06,-2.45,10.99
49.434001,4.073124,22.45,-0.2,-2.48,9.53
49.434001,4.073124,22.45,-1.26,-1.74,10.41
49.434046,4.073433,22.56,-1.8,-2.02,7.61
49.434046,4.073433,22.56,-0.59,-2.07,9.21
49.434091,4.073748,22.63,-0.56,-2.61,8.8
49.434091,4.073748,22.63,-0.58,-0.98,8.19
49.434137,4.074059,22.59,-0.83,-1.78,10.4
49.434137,4.074059,22.59,-1.43,-2.25,9.04
49.434186,4.074369,22.69,-0.79,-1.7,7.9
49.434186,4.074369,22.69,-0.56,-2.6,11.62
49.434222,4.074657,22.81,-0.74,-1.02,10.08
49.434222,4.074657,22.81,-1.36,-1.92,6.76
49.434271,4.074952,22.91,-0.89,-1.59,9.45
49.434271,4.074952,22.91,0.44,-2.44,11.02
49.43433,4.075254,23.08,-0.27,-1.44,10.02
49.43433,4.075254,23.08,0.14,-1.39,8.12
49.434395,4.07554,23.18,0.56,-2.06,9.04
49.434467,4.075835,23.42,0.43,-1.31,9.08
49.434467,4.075835,23.42,1.39,-1.47,10.96
49.43455,4.076128,23.41,-0.19,-0.92,8.93
49.43455,4.076128,23.41,0.06,-1.38,12.65
49.434642,4.076422,23.53,-1.19,-3.26,8.95
49.434642,4.076422,23.53,0.68,-2.27,8.2
49.434726,4.076729,23.52,-1.42,-2.33,9.45
49.434726,4.076729,23.52,-0.34,-1.56,8.79
49.434805,4.077035,23.61,-0.13,-1.89,9.78
49.434805,4.077035,23.61,0.06,-2.4,8.0
49.434885,4.077341,23.69,-1.06,-1.9,8.69
49.434885,4.077341,23.69,0.23,-1.81,9.61
49.434967,4.077651,23.78,-0.26,-2.41,10.62
49.434967,4.077651,23.78,-0.6,-1.85,7.65
49.435049,4.077958,23.8,-0.05,-1.92,10.64
49.435049,4.077958,23.8,0.77,-2.49,10.0
49.435127,4.078262,23.83,-0.58,-2.13,6.95
49.435127,4.078262,23.83,-0.03,-3.53,7.71
49.435205,4.07856,23.78,0.84,-3.17,8.69
49.435205,4.07856,23.78,-0.63,-3.4,10.86
49.435285,4.078868,23.71,0.79,-1.83,7.68
49.435285,4.078868,23.71,1.7,-1.54,11.06
49.435364,4.079172,23.5,-0.1,-0.68,10.11
49.435364,4.079172,23.5,-1.07,-1.04,10.92
49.435445,4.07947,23.28,0.64,-1.13,11.14
49.435445,4.07947,23.28,-0.91,-2.83,12.1
49.435526,4.07976,23.16,0.11,-1.44,10.77
49.435526,4.07976,23.16,0.04,-1.73,10.32
49.435604,4.080059,22.96,-0.3,-1.88,9.99
49.435604,4.080059,22.96,-0.04,-2.16,8.75
49.435682,4.080356,22.88,-0.02,-1.41,8.88
49.435682,4.080356,22.88,0.26,-1.44,8.65
49.43576,4.080652,22.74,-0.99,-1.77,8.72
49.43576,4.080652,22.74,0.28,-1.84,11.85
49.435836,4.080949,22.68,0.36,-1.4,9.32
49.435836,4.080949,22.68,-0.47,-1.59,10.97
49.435913,4.081243,22.57,0.63,-2.72,9.14
49.435913,4.081243,22.57,0.51,-1.89,10.46
49.435986,4.081531,22.51,-0.24,-1.16,8.28
49.435986,4.081531,22.51,-1.63,-1.52,10.34
49.436059,4.081817,22.49,0.62,-1.89,11.57
49.436136,4.082105,22.52,-1.31,-2.39,8.99
49.436136,4.082105,22.52,-0.17,-2.06,8.67
49.436212,4.08239,22.53,-0.69,-1.64,9.48
49.436212,4.08239,22.53,0.88,-2.0,9.28
49.43629,4.082676,22.51,-0.49,-1.99,9.82
49.43629,4.082676,22.51,-0.53,-1.47,8.79
49.436369,4.082968,22.5,0.74,-1.49,9.65
49.436369,4.082968,22.5,-0.27,-1.04,7.98
49.436445,4.083255,22.54,0.26,-1.56,8.85
49.436445,4.083255,22.54,0.63,-1.73,10.8
49.436518,4.083542,22.61,-0.38,-1.85,9.51
49.436518,4.083542,22.61,-0.02,-1.38,9.58
49.436593,4.08383,22.67,1.01,-0.85,9.99
49.436593,4.08383,22.67,-0.69,-1.48,11.09
49.436668,4.08412,22.77,0.62,-2.1,8.58
49.436668,4.08412,22.77,-0.31,-1.66,7.26
49.436746,4.084412,22.84,0.27,-3.22,10.2
49.436746,4.084412,22.84,-0.4,-2.26,7.1
49.436818,4.084705,22.93,-0.58,-1.86,9.84
49.436818,4.084705,22.93,-0.52,-1.66,9.97
49.436889,4.085004,23.04,0.71,-1.5,9.58
49.436889,4.085004,23.04,-0.8,-2.09,10.04
49.436953,4.085305,23.08,-1.43,-2.49,9.53
49.436953,4.085305,23.08,-0.45,-1.97,9.52
49.437008,4.085615,23.17,-0.22,-1.62,11.45
49.437008,4.085615,23.17,-1.38,-1.37,10.11
49.437057,4.085923,23.24,1.17,-1.91,10.73
49.437057,4.085923,23.24,-0.58,-2.14,11.24
49.437103,4.086239,23.27,-0.78,-2.0,9.51
49.437103,4.086239,23.27,-0.64,-0.58,9.08
49.437145,4.086556,23.24,-0.95,-2.4,9.38
49.437145,4.086556,23.24,-0.79,-1.35,9.61
49.437186,4.086879,23.25,0.42,-2.03,9.73
49.437186,4.086879,23.25,0.1,-2.07,9.82
49.437224,4.087188,23.33,-0.19,-2.22,8.26
49.437224,4.087188,23.33,-0.54,-0.72,8.83
49.437258,4.087496,23.37,0.55,-0.49,8.18
49.437258,4.087496,23.37,-0.54,-1.69,6.34
49.437293,4.087806,23.38,0.95,-1.41,9.79
49.437293,4.087806,23.38,2.08,-1.67,10.33
49.437333,4.088127,23.42,-0.29,-2.16,10.02
49.437333,4.088127,23.42,-1.5,-1.79,11.21
49.437375,4.088446,23.43,-1.25,-2.33,8.18
49.437413,4.088761,23.47,-0.01,-0.94,10.13
49.437413,4.088761,23.47,-0.9,-1.02,9.51
49.437448,4.089073,23.49,-0.25,-1.96,10.59
49.437448,4.089073,23.49,-0.3,-1.13,9.26
49.437484,4.08939,23.5,-0.99,-1.37,8.12
49.437484,4.08939,23.5,0.51,-0.71,10.15
49.437524,4.089706,23.47,-1.05,-1.9,9.33
49.437524,4.089706,23.47,0.87,-1.88,9.65
49.437566,4.090024,23.46,-0.38,-2.6,6.75
49.437566,4.090024,23.46,-0.35,-2.46,10.21
49.437604,4.090342,23.29,-0.8,-2.52,8.45
49.437604,4.090342,23.29,-0.19,-1.33,9.45
49.437643,4.090659,23.18,-1.11,-2.37,11.09
49.437643,4.090659,23.18,-0.13,-1.89,9.28
49.437682,4.090965,23.04,0.08,-1.61,11.17
49.437682,4.090965,23.04,-0.11,-2.03,11.94
49.437722,4.091272,22.83,-0.42,-2.58,10.54
49.437722,4.091272,22.83,0.07,-1.68,7.26
49.43776,4.09158,22.72,-0.25,-0.93,9.67
49.43776,4.09158,22.72,0.51,-1.88,9.67
49.437794,4.091887,22.59,-0.55,-2.12,7.63
49.437794,4.091887,22.59,-0.5,-1.63,8.73
49.437832,4.092195,22.45,-0.44,-1.87,9.86
49.437832,4.092195,22.45,-0.12,-1.44,7.58
49.43787,4.0925,22.34,-0.48,-1.25,9.9
49.43787,4.0925,22.34,-0.31,-0.99,12.0
49.437907,4.092799,22.24,0.68,-1.42,9.32
49.437907,4.092799,22.24,-0.11,-2.18,9.31
49.437943,4.093099,22.24,-0.73,-1.32,8.76
49.437943,4.093099,22.24,0.23,-1.77,9.62
49.437978,4.093401,22.24,-0.08,-2.55,11.29
49.437978,4.093401,22.24,0.12,-1.02,9.48
49.438009,4.0937,22.26,-0.01,-1.55,8.35
49.438009,4.0937,22.26,-0.06,-1.58,10.66
49.438045,4.094003,22.27,0.06,-2.38,10.01
49.438045,4.094003,22.27,-1.32,-1.91,7.78
49.438085,4.094305,22.3,0.18,-1.78,10.53
49.438085,4.094305,22.3,-0.67,-2.07,10.04
49.438123,4.09461,22.28,0.12,-2.16,8.38
49.438123,4.09461,22.28,0.11,-2.31,8.88
49.438158,4.094912,22.35,-0.27,-1.6,9.42
49.438195,4.095213,22.34,-0.93,-1.37,9.59
49.438195,4.095213,22.34,-0.03,-1.57,9.82
49.438231,4.095521,22.32,-0.62,-1.67,11.95
49.438231,4.095521,22.32,-0.38,-1.49,10.19
49.438266,4.095833,22.29,-0.11,-1.19,7.65
49.438266,4.095833,22.29,0.3,-1.52,11.0
49.438303,4.096131,22.35,0.15,-1.8,9.28
49.438303,4.096131,22.35,0.25,-0.93,9.81
49.438346,4.096431,22.36,-0.92,-2.18,8.74
49.438346,4.096431,22.36,-0.27,-1.69,9.33
49.438384,4.096731,22.33,-0.33,-1.66,11.09
49.438384,4.096731,22.33,-1.22,-3.12,8.97
49.438417,4.097037,22.35,0.45,-2.06,10.49
49.438417,4.097037,22.35,-0.25,-2.84,8.83
49.438462,4.097344,22.35,-1.18,-1.79,9.07
49.438462,4.097344,22.35,-0.23,-2.43,9.04
49.4385,4.097649,22.26,0.13,-1.87,11.21
49.4385,4.097649,22.26,-0.17,-1.85,10.13
49.438535,4.09795,22.22,0.25,-1.41,9.01
49.438535,4.09795,22.22,0.55,-1.47,10.67
49.438573,4.098247,22.19,-0.63,-2.28,9.92
49.438573,4.098247,22.19,-0.16,-1.78,8.75
49.43861,4.098547,22.15,0.47,-1.91,11.42
49.43861,4.098547,22.15,-0.19,-2.35,8.74
49.438648,4.098851,22.14,0.0,-1.36,11.4
49.438648,4.098851,22.14,-0.09,-1.31,11.25
49.438684,4.099145,22.13,-0.8,-1.14,7.47
49.438684,4.099145,22.13,-0.26,-2.16,8.24
49.438723,4.099431,22.08,0.1,-2.22,11.96
49.438723,4.099431,22.08,-0.89,-1.47,10.9
49.438761,4.099722,21.62,0.47,-1.47,10.94
49.438761,4.099722,21.62,-1.66,-2.37,8.6
49.438795,4.100012,21.14,0.79,-2.29,9.53
49.438795,4.100012,21.14,-0.59,-0.27,10.9
49.438835,4.100292,20.63,1.41,-0.26,9.17
49.438835,4.100292,20.63,1.58,-1.26,9.48
49.43888,4.100573,20.08,1.73,-1.24,11.88
49.43888,4.100573,20.08,1.31,-1.43,8.89
49.438944,4.100832,19.5,0.23,-1.18,9.42
49.438944,4.100832,19.5,0.75,-2.11,9.61
49.439033,4.101062,19.19,0.84,-1.78,10.63
49.439145,4.101269,19.25,0.84,-1.76,8.32
49.439145,4.101269,19.25,1.34,-1.6,9.12
49.439277,4.101453,19.36,2.17,-2.43,11.32
49.439277,4.101453,19.36,1.73,-2.51,9.91
49.439426,4.101611,19.51,2.42,-1.14,10.05
49.439426,4.101611,19.51,2.23,-1.92,11.03
49.439587,4.10174,19.56,1.55,-1.1,9.27
49.439587,4.10174,19.56,1.39,-2.28,10.89
49.439752,4.101845,19.69,-0.13,-2.15,8.47
49.439752,4.101845,19.69,1.22,-0.93,9.81
49.439923,4.101926,20.06,-0.56,-2.22,9.39
49.439923,4.101926,20.06,0.21,-1.24,9.79
49.440101,4.101996,20.62,-0.85,-2.92,9.93
49.440101,4.101996,20.62,-0.15,-1.13,9.34
49.440284,4.102061,20.99,-0.53,-1.91,7.38
49.440284,4.102061,20.99,0.44,-1.18,10.25
49.440469,4.102124,21.32,-0.88,-1.85,10.51
49.440469,4.102124,21.32,0.51,-2.01,8.57
49.440659,4.102194,21.88,-0.88,-1.26,10.74
49.440659,4.102194,21.88,-0.74,-0.34,10.29
49.440855,4.102265,22.16,-0.38,-1.65,9.62
49.440855,4.102265,22.16,0.1,-1.88,9.31
49.441051,4.10234,22.51,-0.11,-1.63,10.18
49.441051,4.10234,22.51,1.05,-0.91,8.15
49.441249,4.102419,22.83,1.08,-2.31,10.63
49.441249,4.102419,22.83,0.61,-0.82,10.92
49.441448,4.1025,23.03,0.33,-1.58,10.7
49.441448,4.1025,23.03,0.17,-2.28,10.07
49.441644,4.10258,23.08,0.61,-0.28,8.99
49.441644,4.10258,23.08,0.22,-2.54,9.45
49.441844,4.102659,23.26,-0.14,-1.21,9.24
49.441844,4.102659,23.26,0.25,-1.9,8.29
49.442047,4.102737,23.34,-0.2,-1.95,9.75
49.442047,4.102737,23.34,0.07,-1.66,9.32
49.442252,4.102819,23.39,0.33,-0.91,10.45
49.442252,4.102819,23.39,1.23,-1.14,12.72
49.442457,4.102903,23.37,-0.44,-1.95,7.09
49.442457,4.102903,23.37,-0.02,-1.08,10.14
49.442659,4.102981,23.26,-0.11,-1.89,11.17
49.442659,4.102981,23.26,0.17,-1.36,9.5
49.442862,4.103059,23.21,0.8,-2.52,12.34
49.443066,4.103137,22.98,0.38,-1.16,8.42
49.443066,4.103137,22.98,0.48,-2.18,9.63
49.443272,4.103217,22.8,1.44,-2.26,11.38
49.443272,4.103217,22.8,0.12,-0.96,12.13
49.443468,4.103293,22.6,-0.68,-1.92,9.47
49.443468,4.103293,22.6,-1.26,-1.25,9.79
49.443661,4.103373,22.43,-0.12,-2.15,12.76
49.443661,4.103373,22.43,-0.07,-2.28,11.82
49.443854,4.103455,22.28,-0.4,-2.88,11.41
49.443854,4.103455,22.28,-1.0,-0.88,7.86
49.444046,4.103525,22.1,-1.16,-1.9,9.99
49.444046,4.103525,22.1,-0.36,-1.37,9.62
49.444236,4.103605,22.02,-0.01,-1.13,9.23
49.444236,4.103605,22.02,-0.04,-2.78,9.73
49.444431,4.103678,21.89,-0.16,-2.04,8.8
49.444431,4.103678,21.89,-0.03,-0.51,10.81
49.444625,4.103755,21.66,-1.38,-1.47,8.07
49.444625,4.103755,21.66,0.25,-2.4,11.02
49.444814,4.103831,21.48,-0.23,-1.54,8.74
49.444814,4.103831,21.48,0.09,-1.58,10.67
49.445001,4.103908,21.37,0.61,-1.96,12.22
49.445001,4.103908,21.37,0.5,-0.83,10.64
49.445189,4.103977,21.08,0.93,-1.22,8.26
49.445189,4.103977,21.08,0.59,-0.16,10.42
49.445371,4.104034,20.54,1.21,-0.23,10.84
49.445371,4.104034,20.54,1.65,-0.44,11.0
49.445547,4.104074,19.81,1.31,-0.3,9.24
49.445547,4.104074,19.81,1.72,1.2,8.27
49.445719,4.104098,19.14,0.9,-1.43,10.45
49.445719,4.104098,19.14,1.79,-1.57,10.47
49.445889,4.104092,18.56,2.28,-1.29,10.75
49.445889,4.104092,18.56,1.09,-0.08,9.14
49.446054,4.104053,18.11,1.18,-0.62,10.45
49.446054,4.104053,18.11,0.55,-1.55,9.6
49.446216,4.103992,18.12,0.24,-0.88,8.6
49.446216,4.103992,18.12,1.01,-1.39,11.27
49.446373,4.103922,18.14,0.59,-1.29,10.07
49.446373,4.103922,18.14,0.27,-0.86,11.03
49.446525,4.103841,18.14,-0.89,-1.62,8.85
49.446525,4.103841,18.14,0.06,-1.52,10.36
49.446676,4.10375,18.15,0.19,-1.8,10.35
49.446827,4.103655,18.38,-0.04,-1.21,11.22
49.446827,4.103655,18.38,0.72,-2.14,8.94
49.44698,4.103543,18.59,0.2,-1.57,8.57
49.44698,4.103543,18.59,-0.41,-0.45,10.19
49.447134,4.103435,18.68,-1.14,-1.58,9.65
49.447134,4.103435,18.68,-0.55,-1.02,8.55
49.447288,4.103317,18.87,0.49,-1.58,9.06
49.447288,4.103317,18.87,-0.67,-1.35,8.49
49.447446,4.103214,19.11,0.1,-0.81,9.56
49.447446,4.103214,19.11,0.38,-1.47,11.08
49.447604,4.103103,19.41,-0.67,-1.64,10.06
49.447604,4.103103,19.41,0.41,-1.79,10.69
49.447762,4.102992,19.71,0.07,-1.21,10.56
49.447762,4.102992,19.71,-1.2,-1.99,9.75
49.447926,4.102882,19.9,-0.32,-1.32,9.74
49.447926,4.102882,19.9,-0.7,-2.08,8.4
49.448089,4.102767,20.12,0.1,-1.01,9.04
49.448089,4.102767,20.12,-0.3,-1.21,8.83
49.448254,4.10265,20.19,-0.16,-0.68,11.02
49.448254,4.10265,20.19,-0.61,-1.27,7.45
49.448419,4.102539,20.26,0.11,-1.49,10.58
49.448419,4.102539,20.26,0.88,-2.02,8.59
49.448585,4.102422,20.28,0.69,-0.97,9.75
49.448585,4.102422,20.28,-0.07,-0.79,8.09
49.44875,4.102321,20.23,-0.66,-0.57,6.76
49.44875,4.102321,20.23,-1.87,-1.15,7.21
49.448915,4.102225,20.11,-2.26,-0.81,10.59
49.448915,4.102225,20.11,-2.69,-1.44,8.33
49.449088,4.102134,20.19,-2.36,-0.56,9.39
49.449088,4.102134,20.19,-1.74,-0.9,8.21
49.449265,4.102089,20.06,-0.91,-1.34,9.3
49.449265,4.102089,20.06,-0.95,-1.44,10.43
49.449448,4.102084,19.96,0.43,-1.7,8.97
49.449448,4.102084,19.96,-0.98,-1.08,7.94
49.449616,4.102093,19.78,-0.03,-1.98,11.08
49.449616,4.102093,19.78,-0.39,-2.15,8.63
49.449791,4.102109,19.56,-0.79,-0.87,10.03
49.449791,4.102109,19.56,0.46,-2.87,9.3
49.449969,4.102148,19.95,0.82,-1.68,11.85
49.449969,4.102148,19.95,-0.42,-2.47,7.29
49.450148,4.102191,19.99,-0.28,-3.13,12.28
49.450148,4.102191,19.99,0.17,-1.86,9.73
49.45033,4.102233,20.12,0.39,-1.85,10.79
49.450521,4.102286,20.18,-1.03,-2.09,8.23
49.450521,4.102286,20.18,0.01,-1.53,11.55
49.450707,4.102339,20.24,-0.4,-2.11,6.98
49.450707,4.102339,20.24,-0.1,-0.57,9.39
49.45089,4.102388,20.3,-0.88,-1.99,10.32
49.45089,4.102388,20.3,0.31,-0.79,8.99
49.451073,4.102438,20.35,-1.17,-2.37,9.87
49.451073,4.102438,20.35,-0.86,-2.4,11.19
49.451257,4.102482,20.37,0.3,-1.58,10.86
49.451257,4.102482,20.37,0.78,-1.86,9.74
49.451437,4.102527,20.36,-0.04,-1.5,9.26
49.451437,4.102527,20.36,0.12,-1.68,9.56
49.451621,4.102571,20.36,0.1,-1.26,9.27
49.451621,4.102571,20.36,0.56,-1.99,8.17
49.451803,4.10261,20.37,-0.4,-1.54,8.87
49.451803,4.10261,20.37,3.71,-1.54,13.32
49.451987,4.102646,20.29,0.37,-2.17,6.13
49.451987,4.102646,20.29,0.7,-2.07,8.84
49.45217,4.102675,20.28,0.91,-1.37,9.05
49.45217,4.102675,20.28,-0.67,-1.31,9.44
49.452354,4.102701,20.35,0.84,-2.19,10.66
49.452354,4.102701,20.35,-1.17,-0.78,10.26
49.452538,4.102721,20.33,-0.63,-2.02,9.66
49.452538,4.102721,20.33,0.56,-2.94,9.14
49.452719,4.102742,20.53,-0.41,-1.46,11.01
49.452719,4.102742,20.53,-0.03,-2.29,10.44
49.452903,4.102763,20.53,-0.74,-3.02,11.05
49.452903,4.102763,20.53,-0.04,-1.88,9.63
49.453087,4.102781,20.56,0.72,-2.14,10.34
49.453087,4.102781,20.56,0.27,-2.33,10.52
49.45327,4.102801,20.51,-0.17,-1.78,6.99
49.45327,4.102801,20.51,-0.3,-2.09,8.48
49.453455,4.102821,20.36,0.32,-1.18,8.87
49.453455,4.102821,20.36,-0.55,-1.05,11.34
49.453637,4.102842,20.27,-0.25,-2.07,8.94
49.453637,4.102842,20.27,0.4,-1.6,10.16
49.453818,4.102861,19.86,0.71,-2.2,10.12
49.453818,4.102861,19.86,-0.11,-0.95,9.85
49.453993,4.102881,19.67,0.15,-2.35,9.79
49.453993,4.102881,19.67,-0.49,-1.65,7.97
49.454168,4.102902,19.42,-0.26,-0.61,5.65
49.454341,4.102926,19.28,0.08,-2.71,11.37
49.454341,4.102926,19.28,0.0,-1.28,11.16
49.454513,4.102949,19.09,-1.6,-1.93,8.57
49.454513,4.102949,19.09,-0.94,-1.55,10.58
49.45468,4.102972,18.81,-0.91,-2.17,10.0
49.45468,4.102972,18.81,-0.91,-0.87,9.93
49.454843,4.103007,18.65,-0.96,-2.55,10.73
49.454843,4.103007,18.65,-1.34,-1.37,10.66
49.455001,4.10305,18.29,-0.66,-1.49,9.2
49.455001,4.10305,18.29,-1.08,-0.77,11.35
49.455148,4.103099,17.9,0.09,-0.86,10.28
49.455148,4.103099,17.9,-0.3,-1.47,10.61
49.4553,4.103161,17.56,-0.54,-1.58,10.33
49.4553,4.103161,17.56,-1.44,-1.09,9.77
49.455455,4.103225,17.19,-0.46,-1.14,9.32
49.455455,4.103225,17.19,-0.91,-1.63,10.19
49.45561,4.103301,16.86,0.05,-1.62,10.41
49.45561,4.103301,16.86,-0.3,-1.15,10.29
49.455752,4.103373,15.94,-0.78,-1.26,10.97
49.455752,4.103373,15.94,-0.08,-0.57,8.88
49.455896,4.103456,15.82,-0.81,-1.36,9.48
49.455896,4.103456,15.82,0.55,-1.16,9.96
49.456028,4.103528,15.4,-0.45,-1.99,8.8
49.456028,4.103528,15.4,0.06,-0.83,8.62
49.456155,4.103598,15.17,-0.38,-1.32,9.65
49.456155,4.103598,15.17,-0.07,-1.53,9.98
49.456274,4.103662,15.03,0.12,-0.93,9.74
49.456274,4.103662,15.03,-0.13,-1.27,10.26
49.456398,4.103733,15.07,-0.22,-1.3,10.31
49.456398,4.103733,15.07,1.0,-1.42,11.52
49.45652,4.103811,14.75,-0.05,-1.54,9.65
49.45652,4.103811,14.75,0.59,-2.2,10.25
49.456639,4.103879,14.41,-0.95,-1.67,9.42
49.456639,4.103879,14.41,-0.01,-1.49,10.9
49.456759,4.103962,14.4,-0.19,-1.73,10.56
49.456759,4.103962,14.4,-0.92,-2.38,9.48
49.456879,4.104042,14.51,0.06,-1.51,9.42
49.456879,4.104042,14.51,0.45,-2.28,10.54
49.457,4.104118,14.32,0.09,-0.14,9.73
49.457123,4.104196,13.84,-0.03,-2.62,9.26
49.457123,4.104196,13.84,0.38,-1.86,9.81
49.457238,4.104265,13.57,-0.92,-1.87,10.2
49.457238,4.104265,13.57,0.55,-1.49,9.83
49.457351,4.10433,13.13,-0.19,-1.03,9.95
49.457351,4.10433,13.13,-0.58,-1.46,9.41
49.457456,4.10439,12.76,-0.05,-1.53,10.25
49.457456,4.10439,12.76,-0.2,-2.08,9.33
49.457561,4.104455,12.7,-0.15,-1.52,11.18
49.457561,4.104455,12.7,0.36,-0.93,9.35
49.457663,4.104513,12.12,0.06,-0.92,10.13
49.457663,4.104513,12.12,1.19,-0.68,10.8
49.457766,4.104581,12.1,-0.68,-2.22,10.85
49.457766,4.104581,12.1,-0.98,-1.75,7.39
49.457865,4.104644,12.01,-0.17,-1.71,10.64
49.457865,4.104644,12.01,-0.31,-1.04,9.05
49.457958,4.104704,11.74,-0.12,-1.78,10.58
49.457958,4.104704,11.74,-0.11,-1.19,10.46
49.458059,4.104767,11.78,0.5,-1.09,9.44
49.458059,4.104767,11.78,-0.15,-1.83,9.77
49.458162,4.104828,11.61,-0.48,-1.5,10.65
49.458162,4.104828,11.61,-0.42,-0.67,11.21
49.458261,4.104892,11.58,-0.91,-1.36,10.73
49.458261,4.104892,11.58,-0.38,-1.74,9.91
49.458359,4.104961,11.68,1.14,-2.5,7.92
49.458359,4.104961,11.68,-1.73,-2.24,9.4
49.458463,4.105044,11.85,-0.47,-3.26,9.56
49.458463,4.105044,11.85,0.15,-1.24,10.58
49.458557,4.105123,11.75,-0.57,-2.44,9.7
49.458557,4.105123,11.75,0.26,-1.74,9.58
49.458649,4.105207,11.8,0.33,-0.99,10.33
49.458649,4.105207,11.8,1.65,-0.87,8.7
49.458741,4.105294,11.86,0.42,-1.62,8.93
49.458741,4.105294,11.86,-0.4,-1.41,9.91
49.458831,4.105376,11.91,-0.31,-1.74,9.17
49.458831,4.105376,11.91,-0.65,-2.27,9.81
49.458919,4.105461,12.0,-0.27,-1.85,9.25
49.458919,4.105461,12.0,-0.73,-1.8,9.33
49.45901,4.105549,12.1,-0.49,-1.71,9.94
49.45901,4.105549,12.1,-0.13,-0.92,6.35
49.459101,4.105638,12.18,-0.14,-2.76,9.95
49.459101,4.105638,12.18,-0.52,-2.14,9.14
49.459194,4.105711,12.29,0.0,-2.09,9.47
49.459291,4.105797,12.36,-0.56,-1.6,10.31
49.459291,4.105797,12.36,-0.37,-1.61,10.21
49.459389,4.105883,12.4,-0.21,-1.37,8.88
49.459389,4.105883,12.4,0.12,-1.34,8.93
49.459487,4.105969,12.47,-0.28,-1.89,8.76
49.459487,4.105969,12.47,-0.01,-1.35,9.21
49.459585,4.106058,12.68,-0.09,-1.5,9.46
49.459585,4.106058,12.68,-0.56,-1.67,9.84
49.459678,4.106144,12.76,0.56,-1.8,10.37
49.459678,4.106144,12.76,-0.22,-2.04,9.8
49.459776,4.106233,12.88,-0.74,-1.64,10.04
49.459776,4.106233,12.88,-0.57,-1.74,9.52
49.459875,4.106322,13.21,0.23,-1.29,9.61
49.459875,4.106322,13.21,-0.41,-3.44,13.41
49.459977,4.106418,13.62,0.22,-0.73,9.34
49.459977,4.106418,13.62,0.14,-1.09,9.68
49.460083,4.106514,13.86,-0.63,-1.58,9.91
49.460083,4.106514,13.86,-0.16,-1.07,9.97
49.460192,4.106612,13.91,0.23,-1.47,11.34
49.460192,4.106612,13.91,-0.04,-1.81,10.51
49.460303,4.106711,14.02,-0.4,-2.26,9.05
49.460303,4.106711,14.02,-0.42,-1.9,9.78
49.460416,4.106809,14.12,-0.38,-1.39,9.49
49.460416,4.106809,14.12,0.06,-1.65,9.5
49.460528,4.106908,14.21,0.49,-1.98,10.12
49.460528,4.106908,14.21,-0.29,-2.18,8.77
49.460637,4.107007,14.22,0.52,-2.05,9.36
49.460637,4.107007,14.22,0.17,-2.88,11.0
49.460752,4.107103,14.34,0.79,-0.98,9.24
49.460752,4.107103,14.34,0.22,-0.76,9.78
49.460866,4.107203,14.35,0.14,-1.99,8.64
49.460866,4.107203,14.35,-0.12,-1.7,10.71
49.46098,4.107305,14.45,0.03,-1.76,8.75
49.46098,4.107305,14.45,1.18,-3.45,10.25
49.46109,4.107401,14.45,-0.23,-2.45,9.87
49.46109,4.107401,14.45,-0.6,-1.44,9.48
49.461201,4.107501,14.33,-0.31,-0.07,7.21
49.461201,4.107501,14.33,0.3,-1.93,9.35
49.461312,4.107601,14.27,-0.03,-2.46,9.71
49.461312,4.107601,14.27,-0.18,-1.64,10.47
49.461422,4.107699,14.22,0.54,-2.14,11.38
49.461536,4.107798,14.19,-0.13,-1.67,8.23
49.461536,4.107798,14.19,-0.57,-1.03,10.18
49.461646,4.107894,14.06,0.97,-2.15,12.52
49.461646,4.107894,14.06,-0.32,-2.45,9.81
49.461755,4.107991,14.1,0.0,-2.11,10.18
49.461755,4.107991,14.1,-0.39,-1.79,9.99
49.461864,4.108088,14.15,0.26,-1.92,10.18
49.461864,4.108088,14.15,0.13,-2.31,10.87
49.461975,4.108189,14.12,-0.35,-1.69,9.43
49.461975,4.108189,14.12,-0.07,-1.8,9.95
49.462084,4.10829,13.96,-0.64,-2.08,10.31
49.462084,4.10829,13.96,0.06,-1.12,8.56
49.462192,4.108393,13.82,-0.72,-1.92,9.84
49.462192,4.108393,13.82,-1.46,-1.61,9.91
49.462298,4.108499,13.54,-1.09,-1.88,9.32
49.462298,4.108499,13.54,-0.82,-1.05,10.59
49.462397,4.108616,13.46,0.09,-2.0,9.66
49.462397,4.108616,13.46,-1.65,-2.21,9.02
49.462489,4.108737,13.42,-0.12,-1.08,10.11
49.462489,4.108737,13.42,-0.16,-1.35,9.09
49.462578,4.108867,13.27,0.23,-1.63,10.25
49.462578,4.108867,13.27,0.34,-2.31,9.75
49.462663,4.109001,13.22,-0.58,-1.49,11.24
49.462663,4.109001,13.22,-0.54,-1.94,10.92
49.462744,4.109125,12.95,-1.35,-1.86,9.66
49.462744,4.109125,12.95,-0.28,-1.6,10.86
49.462821,4.109246,12.73,-0.67,-1.73,10.84
49.462821,4.109246,12.73,0.87,0.58,11.06
49.462897,4.109379,12.69,0.16,-0.61,10.49
49.462897,4.109379,12.69,0.6,-1.36,7.97
49.462969,4.109517,12.6,0.52,-2.39,10.14
49.462969,4.109517,12.6,0.23,-1.63,7.66
49.463043,4.109651,12.46,0.38,-0.62,9.07
49.463043,4.109651,12.46,0.25,-2.64,9.38
49.463121,4.109777,12.55,0.33,-2.05,10.54
49.463121,4.109777,12.55,1.11,-2.18,10.03
49.463198,4.1099,12.76,0.38,-0.37,8.59
49.463198,4.1099,12.76,-1.96,-2.93,7.82
49.46328,4.110023,12.94,-1.96,-2.11,9.66
49.46328,4.110023,12.94,-0.98,-1.1,9.84
49.463362,4.110138,13.01,-1.26,-2.06,8.99
49.463362,4.110138,13.01,0.3,-2.41,9.61
49.463448,4.110256,13.21,-0.27,-1.94,10.36
49.463532,4.110382,13.56,-0.65,-2.1,10.56
49.463532,4.110382,13.56,0.04,-1.41,10.25
49.463619,4.11052,13.88,-0.29,-2.84,9.76
49.463619,4.11052,13.88,-0.12,-2.12,9.3
49.463705,4.110665,14.35,-0.24,-2.66,10.08
49.463705,4.110665,14.35,-0.72,-2.51,9.98
49.463792,4.110809,14.45,0.66,-1.93,9.5
49.463792,4.110809,14.45,0.2,-1.39,10.41
49.463882,4.110958,14.54,0.23,-1.57,9.26
49.463882,4.110958,14.54,-1.02,-1.49,10.17
49.463973,4.111108,14.53,-0.25,-2.12,9.56
49.463973,4.111108,14.53,-0.8,-1.36,9.82
49.464063,4.111255,14.36,0.41,-1.13,9.83
49.464063,4.111255,14.36,-0.02,-1.4,9.99
49.464151,4.111399,14.28,0.26,-0.91,9.82
49.464151,4.111399,14.28,-0.49,-1.71,9.83
49.464236,4.111539,14.11,-1.25,-2.84,8.92
49.464236,4.111539,14.11,0.07,-1.36,8.84
49.46432,4.111675,13.99,0.46,-3.34,11.72
49.46432,4.111675,13.99,-0.23,-1.69,10.08
49.464408,4.111814,13.93,0.32,-1.0,9.9
49.464408,4.111814,13.93,0.05,-1.4,10.12
49.464493,4.111953,13.86,-0.24,-2.19,10.69
49.464493,4.111953,13.86,0.78,-1.92,9.73
49.464579,4.112092,13.75,0.2,-1.9,10.64
49.464579,4.112092,13.75,-0.57,-1.51,9.83
49.464667,4.112231,13.69,-0.21,-1.78,8.83
49.464667,4.112231,13.69,-0.6,-1.57,9.29
49.464749,4.112361,13.64,-0.38,-1.94,11.54
49.464749,4.112361,13.64,-0.54,-2.05,9.66
49.464832,4.112493,13.62,-0.49,-3.0,9.95
49.464832,4.112493,13.62,-0.47,-2.14,9.25
49.464919,4.112632,13.55,0.66,-2.0,10.37
49.464919,4.112632,13.55,0.12,-2.23,8.91
49.465001,4.112764,13.44,0.56,-2.16,10.74
49.465001,4.112764,13.44,0.49,-0.11,8.39
49.465087,4.1129,13.4,-0.13,-1.5,9.3
49.465087,4.1129,13.4,-0.38,-1.88,8.85
49.465168,4.113028,13.3,0.19,-2.72,8.08
49.465254,4.113164,13.23,-1.11,-2.61,10.78
49.465254,4.113164,13.23,-0.19,-1.26,9.05
49.465337,4.113296,13.21,0.53,-1.62,11.69
49.465337,4.113296,13.21,0.6,-1.69,10.51
49.465419,4.113427,13.16,0.4,-1.22,8.49
49.465419,4.113427,13.16,-0.81,-1.95,7.07
49.465498,4.113554,13.22,0.21,-1.1,10.78
49.465498,4.113554,13.22,-0.1,-1.84,10.23
49.465584,4.11369,13.24,0.13,-1.03,12.2
49.465584,4.11369,13.24,-0.04,-2.28,10.13
49.465665,4.113819,13.35,-0.25,-1.48,9.99
49.465665,4.113819,13.35,-0.56,-1.77,10.96
49.465749,4.11395,13.4,0.35,-1.62,8.89
49.465749,4.11395,13.4,-0.47,-1.25,8.99
49.465837,4.114088,13.56,-0.19,-1.65,9.88
49.465837,4.114088,13.56,-1.21,-2.21,8.1
49.465923,4.114225,13.61,-0.18,-2.43,9.49
49.465923,4.114225,13.61,-0.19,-1.8,9.23
49.466011,4.114365,13.57,-0.24,-1.76,9.28
49.466011,4.114365,13.57,0.1,-1.3,9.2
49.466096,4.114499,13.51,-0.28,-1.87,10.81
49.466096,4.114499,13.51,-1.27,-0.76,10.62
49.466181,4.114631,13.17,-0.42,-2.08,10.19
49.466181,4.114631,13.17,0.04,-1.46,10.67
49.466264,4.11476,13.0,-0.75,-1.58,11.43
49.466264,4.11476,13.0,-0.51,-1.75,10.08
49.466344,4.114886,12.91,-0.45,-1.26,9.25
49.466344,4.114886,12.91,0.34,-1.54,10.19
49.466423,4.115014,12.73,-1.41,-0.3,12.01
49.466423,4.115014,12.73,-0.27,-2.73,12.72
49.4665,4.115145,12.56,-1.47,-1.65,10.26
49.4665,4.115145,12.56,-0.43,-1.18,9.76
49.466564,4.115274,12.42,-1.44,-2.55,11.72
49.466564,4.115274,12.42,-0.45,-1.58,11.02
49.466624,4.115411,12.34,-0.66,-2.1,9.4
49.466624,4.115411,12.34,-1.74,-2.15,10.48
49.466682,4.115557,12.2,-0.07,-1.15,10.73
49.466682,4.115557,12.2,-0.08,-1.7,10.28
49.466737,4.115704,12.23,0.28,-1.63,10.26
49.466737,4.115704,12.23,0.43,-1.38,9.45
49.466796,4.115849,11.84,-0.06,-1.48,9.48
49.466853,4.115995,11.83,0.26,-1.01,10.37
49.466853,4.115995,11.83,0.47,-2.56,9.84
49.466909,4.116133,11.84,0.01,-1.74,9.1
49.466909,4.116133,11.84,-1.14,-2.43,10.31
49.466964,4.116271,11.81,-0.13,-1.1,9.47
49.466964,4.116271,11.81,-0.17,-1.42,8.65
49.467018,4.116407,11.84,1.01,-2.49,10.18
49.467018,4.116407,11.84,-0.93,-1.75,9.23
49.467076,4.116547,11.91,0.64,-1.93,11.33
49.467076,4.116547,11.91,-0.45,-1.21,8.7
49.467132,4.116684,11.86,0.59,-1.34,10.52
49.467132,4.116684,11.86,-0.22,-1.54,9.41
49.467191,4.116822,11.91,0.03,-1.48,9.55
49.467191,4.116822,11.91,-0.12,-2.38,10.05
49.467249,4.116957,11.82,0.11,-1.79,8.72
49.467249,4.116957,11.82,-0.51,-1.84,9.84
49.467308,4.117092,11.62,-0.31,-1.54,9.19
49.467308,4.117092,11.62,0.11,-1.3,10.43
49.467364,4.117224,11.36,-1.02,0.11,9.35
49.467364,4.117224,11.36,-0.43,-0.02,9.4
49.46742,4.117353,10.94,-0.01,-0.69,9.41
49.46742,4.117353,10.94,-0.87,-0.35,9.99
49.467472,4.117473,9.9,-0.12,-0.22,10.62
49.467472,4.117473,9.9,-0.09,-0.25,9.48
49.467516,4.117577,8.7,0.54,-0.28,10.59
49.467516,4.117577,8.7,1.02,-0.33,10.06
49.467554,4.117664,7.59,1.83,0.34,10.21
49.467554,4.117664,7.59,2.15,-0.61,9.41
49.467586,4.117723,5.47,1.92,-1.06,9.97
49.467586,4.117723,5.47,1.56,-1.08,9.5
49.467617,4.117756,4.23,2.06,-1.44,9.87
49.467617,4.117756,4.23,2.81,-1.77,10.58
49.467657,4.117757,4.49,1.82,-1.08,9.55
49.467657,4.117757,4.49,0.57,-1.54,9.95
49.467699,4.117728,4.58,1.26,-1.52,9.89
49.467699,4.117728,4.58,0.05,-0.96,9.57
49.467738,4.117687,4.83,-0.43,-1.3,9.71
49.467738,4.117687,4.83,-0.52,-1.81,9.41
49.46776,4.117645,3.16,-0.16,-1.29,9.47
49.467776,4.117608,3.53,-0.44,-1.54,10.23
49.467776,4.117608,3.53,-0.36,-1.81,9.86
49.467795,4.117572,3.38,-0.78,-1.87,9.87
49.467795,4.117572,3.38,-0.01,-1.48,9.07
49.467812,4.11754,3.06,-0.59,-1.81,8.94
49.467812,4.11754,3.06,-0.53,-1.57,10.15
49.467827,4.117509,2.9,-0.23,-1.56,9.94
49.467827,4.117509,2.9,-1.02,-1.81,9.73
49.467844,4.117472,2.76,-0.44,-2.04,9.62
49.467844,4.117472,2.76,-0.66,-1.66,9.78
49.467858,4.11744,2.46,-1.0,-2.1,8.99
49.467858,4.11744,2.46,-0.1,-2.04,8.69
49.467873,4.117412,2.59,-1.36,-3.16,9.03
49.467873,4.117412,2.59,-1.29,-2.43,8.48
49.467894,4.117376,3.7,-0.46,-2.94,10.45
49.467894,4.117376,3.7,-0.48,-2.66,9.5
49.467921,4.117334,4.23,-0.55,-1.16,9.36
49.467921,4.117334,4.23,-1.02,-1.06,10.19
49.467948,4.11729,4.5,-1.02,-1.34,9.81
49.467948,4.11729,4.5,0.34,-1.49,10.57
49.467975,4.117246,4.48,-0.21,-1.61,9.13
49.467975,4.117246,4.48,0.54,-0.62,10.04
49.468,4.117205,3.55,0.44,-0.96,8.73
49.468,4.117205,3.55,1.02,-1.05,9.89
49.468017,4.117169,2.46,0.0,-0.6,10.26
49.468017,4.117169,2.46,-0.51,-0.2,9.84
49.468023,4.11714,1.38,0.09,-0.24,9.76
49.468023,4.11714,1.38,-0.79,-0.33,10.05
49.468023,4.11714,0.0,-0.79,-0.09,9.91
49.468023,4.11714,0.0,-0.46,-1.69,9.78
49.468023,4.11714,0.0,-0.53,-1.67,9.84
49.468023,4.11714,0.0,-0.6,-1.2,10.11
49.468023,4.11714,0.0,-0.36,-0.6,9.62
49.468023,4.11714,0.0,-0.38,-0.86,9.76
49.468023,4.11714,0.0,-0.89,-0.28,10.24
49.468023,4.11714,0.0,-1.24,-0.49,9.04
49.468023,4.11714,0.0,-0.95,-1.9,10.31
49.468023,4.11714,0.0,-1.48,-1.25,9.28
49.468023,4.11714,0.0,-0.43,-2.31,9.54
49.468023,4.11714,0.0,-0.69,-2.3,9.65
49.468023,4.11714,0.0,-0.36,-1.43,9.61
49.468023,4.11714,0.0,-0.31,-1.31,9.84
49.468023,4.11714,0.0,-0.23,-2.3,9.64
49.468023,4.11714,0.0,-0.07,-2.34,9.4
49.468023,4.11714,0.0,0.43,-2.97,9.82
49.468023,4.11714,0.0,0.33,-2.42,9.03
49.468023,4.11714,0.0,1.53,-2.41,9.18
49.468023,4.11714,0.0,1.01,-2.92,9.05
49.468023,4.11714,0.0,0.43,-2.87,9.34
49.468016,4.117129,1.61,0.51,-2.54,10.08
49.468016,4.117129,1.61,1.0,-2.14,9.37
49.467989,4.117156,4.26,-0.44,-2.96,10.87
49.467989,4.117156,4.26,-0.11,-2.52,9.58
49.467963,4.117225,5.56,-0.35,-2.31,9.57
49.467963,4.117225,5.56,-0.94,-2.1,10.17
49.467931,4.117307,6.61,-1.01,-2.78,9.41
49.467931,4.117307,6.61,-0.17,-1.92,9.35
49.46789,4.117392,6.79,0.09,-1.04,9.31
49.46789,4.117392,6.79,-0.64,-1.39,9.09
49.467854,4.11747,6.51,-0.64,-0.88,10.24
49.467854,4.11747,6.51,-0.83,-1.13,10.89
49.46782,4.117543,6.01,-0.8,-1.26,9.66
49.46782,4.117543,6.01,-0.24,-0.49,10.2
49.467788,4.117607,4.9,0.17,-0.45,10.11
49.467788,4.117607,4.9,-0.45,-0.19,10.23
49.467756,4.117653,3.37,-0.01,-0.09,9.97
49.467756,4.117653,3.37,-0.11,-0.6,10.04
49.467734,4.117681,1.81,-0.29,-1.04,9.55
49.467734,4.117681,1.81,0.1,-2.27,9.05
49.467725,4.117697,1.41,0.3,-3.85,9.47
49.467725,4.117697,1.41,-0.23,-3.08,9.96
49.467714,4.117722,2.44,1.02,-3.67,11.58
49.467714,4.117722,2.44,1.21,-2.36,8.84
49.467706,4.117763,3.79,1.63,-2.82,9.95
49.467706,4.117763,3.79,2.06,-2.76,9.13
49.467697,4.117823,4.96,1.69,-3.33,8.59
49.467697,4.117823,4.96,1.32,-3.42,11.64
49.467704,4.117904,6.19,0.36,-2.67,8.76
49.467704,4.117904,6.19,0.59,-2.72,10.02
49.467732,4.117991,7.08,0.33,-2.61,10.04
49.467732,4.117991,7.08,-0.19,-1.39,9.4
49.46777,4.118088,7.9,0.03,-1.94,9.9
49.46777,4.118088,7.9,0.41,-2.14,10.52
49.467814,4.118188,8.1,0.34,-1.11,10.03
49.467858,4.118291,8.47,-0.67,-1.9,12.15
49.467858,4.118291,8.47,-0.17,-2.9,10.21
49.467904,4.118387,8.7,-0.02,-3.19,9.81
49.467904,4.118387,8.7,0.15,-1.2,9.39
49.467948,4.118491,8.83,1.05,-1.18,10.65
49.467948,4.118491,8.83,0.23,-1.46,10.02
49.467991,4.118592,8.99,-0.75,-1.82,9.95
49.467991,4.118592,8.99,-0.43,-1.75,8.54
49.468039,4.118695,8.83,0.03,-1.79,9.86
49.468039,4.118695,8.83,-0.8,-1.88,10.03
49.468084,4.118795,8.84,0.2,-1.56,10.02
49.468084,4.118795,8.84,-0.13,-1.61,10.16
49.468126,4.118891,8.41,-0.61,-1.71,10.16
49.468126,4.118891,8.41,-0.35,-1.18,9.86
49.468167,4.118982,8.37,0.31,-1.74,10.27
49.468167,4.118982,8.37,0.19,-1.13,9.72
49.468206,4.119064,7.89,-0.33,-0.78,10.08
49.468206,4.119064,7.89,0.46,-1.69,10.6
49.468248,4.119144,7.54,-0.11,-0.28,9.95
49.468248,4.119144,7.54,-0.53,-0.47,8.93
49.468288,4.119217,6.81,0.35,-0.88,10.22
49.468288,4.119217,6.81,0.29,0.21,9.34
49.468324,4.119278,5.62,0.36,0.1,10.38
49.468324,4.119278,5.62,-0.27,0.09,9.83
49.468355,4.119326,4.61,-0.01,0.35,9.72
49.468355,4.119326,4.61,-0.32,0.09,9.88
49.468374,4.119359,2.73,-0.29,-0.35,9.83
49.468374,4.119359,2.73,-0.05,-1.16,9.93
49.468388,4.119374,1.15,-0.11,-1.58,9.79
49.468388,4.119374,1.15,-0.09,-1.49,9.69
49.468388,4.119374,0.0,-0.21,-1.67,9.23
49.468388,4.119374,0.0,-0.36,-2.3,9.57
49.468388,4.119374,0.0,-0.05,-2.14,9.94
49.468388,4.119374,0.0,0.4,-2.21,9.84
49.468398,4.119398,1.63,0.42,-2.57,9.49
49.468398,4.119398,1.63,0.41,-2.49,9.64
49.468403,4.119419,2.36,0.57,-2.8,9.42
49.468403,4.119419,2.36,0.05,-2.11,9.96
49.468415,4.11945,3.36,-0.11,-1.67,9.91
49.468415,4.11945,3.36,-0.46,-1.43,9.5
49.468434,4.119486,3.71,-0.21,-1.36,9.51
49.468452,4.119521,3.16,-0.09,-0.75,10.3
49.468452,4.119521,3.16,-0.52,0.11,9.8
49.468466,4.119549,2.3,-0.29,0.58,10.21
49.468466,4.119549,2.3,-0.15,0.11,10.13
49.468466,4.119549,0.0,-0.26,-1.62,9.56
49.468466,4.119549,0.0,-0.17,-1.84,9.81
49.468466,4.119549,0.0,0.01,-1.81,10.2
49.468466,4.119549,0.0,-0.11,-0.79,10.03
49.468466,4.119549,0.0,-0.08,-0.65,9.95
49.468466,4.119549,0.0,-0.51,-0.67,9.59
49.468466,4.119549,0.0,-0.32,-1.49,9.65
49.468466,4.119549,0.0,0.43,-1.58,9.93
49.468466,4.119549,0.0,0.12,-1.91,9.88
49.468466,4.119549,0.0,-0.34,-1.26,9.67
49.468466,4.119549,0.0,-0.07,-1.42,9.8
49.468466,4.119549,0.0,0.0,-1.81,9.66
49.468437,4.119513,1.16,-0.24,-1.51,9.77
49.468437,4.119513,1.16,-0.1,-2.51,9.78
49.468439,4.119505,1.21,-0.12,-2.29,9.49
49.468439,4.119505,1.21,-0.14,-1.64,9.65
49.468439,4.119505,0.0,0.02,-1.96,9.6
49.468439,4.119505,0.0,-0.14,-2.19,9.61
49.468439,4.119505,0.0,-0.1,-2.26,9.63
49.468439,4.119505,0.0,-0.05,-2.5,9.84
49.468439,4.119505,0.0,-0.02,-1.91,9.92
49.468439,4.119505,0.0,0.07,-1.64,10.53
49.468439,4.119505,0.0,0.02,-1.67,9.66
49.468439,4.119505,0.0,-0.11,-2.58,9.77
49.468439,4.119505,0.0,-0.21,-2.0,9.42
49.468439,4.119505,0.0,0.07,-2.51,9.64
49.468439,4.119505,0.0,-0.16,-3.1,9.45
49.468439,4.119505,0.0,-0.12,-3.25,9.43
49.468441,4.119473,1.2,-0.38,-2.64,9.44
49.468441,4.119473,1.2,-0.31,-1.94,9.67
49.468443,4.119486,2.16,-0.03,-1.3,9.68
49.468443,4.119486,2.16,-0.45,-1.48,9.28
49.468448,4.119511,2.35,-0.89,-1.19,9.66
49.468448,4.119511,2.35,-0.64,-1.76,10.35
49.468457,4.119541,2.12,-1.2,-2.21,10.63
49.468457,4.119541,2.12,-0.32,-1.5,9.68
49.468463,4.119569,1.99,-1.28,-2.22,10.41
49.468468,4.119594,1.72,-1.45,-1.92,9.0
