Location-lat,Location-long,Speed,Accelerometer-X,Accelerometer-Y,Accelerometer-Z
49.262001, 4.022934, 0.00, -0.58, 2.08, 9.61
49.262001, 4.022934, 0.00, -0.59, 2.11, 9.51
49.244779, 4.063300, 0.28, -0.51, 2.11, 9.67
49.244779, 4.063300, 0.28, -0.55, 1.94, 9.89
49.244779, 4.063341, 0.05, -0.58, 2.05, 9.38
49.244779, 4.063341, 0.05, -0.59, 2.01, 9.59
49.244782, 4.063343, 0.03, -0.57, 2.02, 9.59
49.244782, 4.063343, 0.03, -0.73, 2.14, 9.56
49.244784, 4.063341, 0.04, -0.90, 1.99, 9.58
49.244784, 4.063341, 0.04, -0.69, 1.97, 9.67
49.244787, 4.063325, 0.00, -0.53, 2.21, 9.69
49.244787, 4.063325, 0.00, -0.39, 2.20, 9.73
49.244781, 4.063309, 0.00, -0.68, 2.08, 9.75
49.244781, 4.063309, 0.00, -0.68, 2.03, 9.50
49.244781, 4.063309, 0.00, -0.70, 2.01, 9.55
49.244782, 4.063300, 0.00, -0.37, 2.26, 9.64
49.244782, 4.063300, 0.00, -0.81, 1.98, 9.50
49.244782, 4.063303, 0.00, -0.85, 2.02, 9.62
49.244782, 4.063303, 0.00, -0.57, 2.03, 9.65
49.244782, 4.063304, 0.00, -0.49, 2.03, 9.56
49.244782, 4.063304, 0.00, -0.42, 2.07, 9.50
49.244782, 4.063303, 0.00, -0.49, 2.04, 9.52
49.244782, 4.063303, 0.00, -0.51, 2.11, 9.58
49.244783, 4.063300, 0.00, -0.67, 1.99, 9.31
49.244784, 4.063297, 0.00, -0.74, 2.05, 9.53
49.244784, 4.063297, 0.00, -0.77, 2.07, 9.49
49.244784, 4.063295, 0.00, -0.45, 2.21, 9.78
49.244784, 4.063295, 0.00, -0.29, 2.18, 9.58
49.244785, 4.063294, 0.00, -0.11, 2.08, 9.62
49.244785, 4.063294, 0.00, -0.74, 2.13, 9.61
49.244785, 4.063290, 0.00, -0.63, 2.52, 9.51
49.244785, 4.063290, 0.00, -0.60, 2.66, 9.43
49.244786, 4.063284, 0.00, -0.47, 2.81, 9.51
49.244786, 4.063284, 0.00, -0.59, 2.94, 9.42
49.244792, 4.063283, 0.00, -0.74, 2.98, 9.31
49.244792, 4.063283, 0.00, -1.22, 2.84, 9.65
49.244804, 4.063272, 0.00, -0.36, 2.72, 9.35
49.244804, 4.063272, 0.00, 0.22, 2.62, 9.04
49.244829, 4.063253, 0.00, 0.67, 2.19, 9.73
49.244829, 4.063253, 0.00, 0.66, 2.12, 9.29
49.244863, 4.063236, 0.00, 0.33, 1.75, 9.33
49.244863, 4.063236, 0.00, 0.45, 1.62, 10.95
49.244902, 4.063226, 0.00, -0.12, 1.90, 10.72
49.244902, 4.063226, 0.00, -0.79, 1.50, 9.85
49.244943, 4.063225, 0.00, -0.54, 1.27, 11.04
49.244943, 4.063225, 0.00, 0.48, 1.59, 9.20
49.244986, 4.063224, 0.00, 1.02, 0.87, 9.70
49.244986, 4.063224, 0.00, -0.02, 1.09, 8.08
49.245028, 4.063224, 4.52, 0.44, 1.37, 10.53
49.245028, 4.063224, 4.52, 0.19, 0.79, 9.72
49.245069, 4.063222, 4.59, -0.78, 0.95, 9.76
49.245069, 4.063222, 4.59, -0.41, 0.77, 10.16
49.245112, 4.063224, 4.44, -0.29, 0.81, 10.02
49.245112, 4.063224, 4.44, -0.92, 1.82, 9.35
49.245144, 4.063221, 3.28, -2.27, 1.71, 10.30
49.245144, 4.063221, 3.28, -1.54, 2.60, 8.60
49.245171, 4.063212, 3.66, -1.05, 2.78, 9.84
49.245171, 4.063212, 3.66, -0.65, 3.01, 9.74
49.245209, 4.063199, 4.36, -1.02, 2.03, 10.31
49.245209, 4.063199, 4.36, -0.58, 2.03, 10.36
49.245252, 4.063175, 5.20, -0.15, 2.09, 9.89
49.245252, 4.063175, 5.20, -0.10, 1.79, 10.21
49.245304, 4.063148, 5.99, 0.53, 1.88, 9.71
49.245304, 4.063148, 5.99, 0.53, 1.87, 9.87
49.245359, 4.063126, 6.23, 0.37, 1.84, 9.52
49.245414, 4.063113, 6.37, -0.59, 1.70, 9.54
49.245414, 4.063113, 6.37, -0.42, 2.06, 10.64
49.245469, 4.063104, 6.42, -0.58, 1.64, 10.62
49.245469, 4.063104, 6.42, 0.06, 1.58, 10.40
49.245524, 4.063098, 6.39, -0.31, 1.82, 8.90
49.245524, 4.063098, 6.39, 0.84, 2.49, 10.83
49.245577, 4.063097, 6.32, 0.06, 1.38, 9.39
49.245577, 4.063097, 6.32, 0.11, 1.14, 9.82
49.245628, 4.063099, 5.66, -0.14, 1.18, 9.04
49.245628, 4.063099, 5.66, 0.03, -0.08, 9.60
49.245676, 4.063105, 5.16, -0.45, 0.44, 9.38
49.245676, 4.063105, 5.16, 0.16, 0.53, 10.20
49.245723, 4.063112, 4.24, -0.30, 0.75, 9.88
49.245723, 4.063112, 4.24, -0.56, 0.71, 9.85
49.245758, 4.063119, 3.27, -0.97, 0.88, 9.85
49.245758, 4.063119, 3.27, -1.00, 0.90, 9.68
49.245785, 4.063122, 1.76, -0.92, 1.14, 10.11
49.245785, 4.063122, 1.76, -0.55, 1.93, 9.92
49.245801, 4.063118, 1.67, -0.57, 2.42, 9.73
49.245801, 4.063118, 1.67, -1.40, 2.68, 9.06
49.245820, 4.063112, 2.28, -1.53, 2.30, 9.44
49.245820, 4.063112, 2.28, -1.25, 2.20, 9.46
49.245845, 4.063099, 3.17, -0.44, 2.89, 8.88
49.245845, 4.063099, 3.17, -0.27, 2.50, 8.58
49.245877, 4.063080, 3.89, -0.51, 2.83, 8.91
49.245877, 4.063080, 3.89, -1.22, 2.48, 9.38
49.245916, 4.063049, 4.90, -1.02, 2.44, 9.31
49.245916, 4.063049, 4.90, -1.58, 2.50, 9.12
49.245963, 4.063008, 6.17, -1.50, 2.34, 9.07
49.245963, 4.063008, 6.17, -0.95, 2.43, 9.85
49.246012, 4.062947, 6.73, -0.44, 1.15, 9.52
49.246012, 4.062947, 6.73, -0.02, 1.30, 10.35
49.246056, 4.062873, 6.68, -0.65, 1.02, 10.04
49.246056, 4.062873, 6.68, -0.43, 0.53, 9.64
49.246100, 4.062800, 6.62, -0.45, 0.05, 9.55
49.246100, 4.062800, 6.62, -0.96, 0.16, 10.17
49.246140, 4.062734, 5.66, -1.01, 0.25, 10.14
49.246140, 4.062734, 5.66, -0.41, 0.45, 9.49
49.246174, 4.062680, 4.45, -0.87, 1.69, 9.70
49.246174, 4.062680, 4.45, -1.24, 1.83, 8.95
49.246201, 4.062637, 3.82, -1.03, 0.17, 11.32
49.246201, 4.062637, 3.82, -0.37, 2.07, 10.10
49.246222, 4.062596, 3.65, -0.47, 2.17, 11.04
49.246244, 4.062556, 3.85, 0.96, 2.35, 9.35
49.246244, 4.062556, 3.85, -1.25, 1.92, 9.36
49.246270, 4.062515, 4.23, -0.85, 2.44, 10.66
49.246270, 4.062515, 4.23, 0.04, 2.05, 9.94
49.246299, 4.062468, 4.89, 0.15, 2.50, 8.64
49.246299, 4.062468, 4.89, -0.79, 2.19, 9.42
49.246332, 4.062413, 5.70, -0.73, 1.66, 9.47
49.246332, 4.062413, 5.70, -0.93, 2.51, 11.30
49.246368, 4.062352, 5.87, -0.15, 1.47, 10.23
49.246368, 4.062352, 5.87, 0.36, 1.66, 11.19
49.246404, 4.062293, 5.80, 0.95, 1.58, 10.34
49.246404, 4.062293, 5.80, 0.35, 2.10, 9.38
49.246440, 4.062244, 5.49, 0.05, 2.58, 10.80
49.246440, 4.062244, 5.49, -1.20, 1.87, 9.02
49.246483, 4.062201, 5.64, -1.17, 1.13, 9.88
49.246483, 4.062201, 5.64, -1.71, 1.16, 9.94
49.246532, 4.062175, 5.66, -1.09, 1.25, 9.60
49.246532, 4.062175, 5.66, -1.58, 1.10, 10.12
49.246578, 4.062148, 5.25, -2.19, 1.19, 9.95
49.246578, 4.062148, 5.25, -2.73, 1.02, 9.08
49.246616, 4.062112, 4.73, -3.18, 1.27, 9.37
49.246616, 4.062112, 4.73, -2.64, 1.57, 9.03
49.246639, 4.062056, 4.82, -3.37, 1.43, 9.47
49.246639, 4.062056, 4.82, -3.57, 2.44, 9.03
49.246642, 4.061989, 5.00, -2.79, 1.63, 8.46
49.246642, 4.061989, 5.00, -2.82, 2.00, 10.60
49.246618, 4.061924, 5.48, -2.91, 2.41, 9.98
49.246618, 4.061924, 5.48, -1.51, 2.37, 8.65
49.246573, 4.061871, 5.97, -0.45, 1.65, 8.81
49.246573, 4.061871, 5.97, 0.29, 3.14, 10.07
49.246520, 4.061827, 6.59, 0.55, 1.81, 7.75
49.246520, 4.061827, 6.59, 0.58, 3.12, 10.51
49.246472, 4.061765, 7.18, 0.22, 2.80, 9.14
49.246472, 4.061765, 7.18, -0.56, 2.89, 9.11
49.246431, 4.061678, 8.06, 0.93, 2.11, 9.47
49.246431, 4.061678, 8.06, -1.26, 1.57, 10.02
49.246396, 4.061567, 9.23, -1.33, 2.34, 9.54
49.246396, 4.061567, 9.23, -1.43, 1.92, 8.57
49.246355, 4.061443, 10.00, -0.53, 2.70, 9.38
49.246355, 4.061443, 10.00, -0.63, 2.75, 10.48
49.246313, 4.061315, 10.83, -1.40, 1.67, 8.00
49.246268, 4.061177, 11.37, -0.92, 2.15, 9.09
49.246268, 4.061177, 11.37, 0.28, 1.92, 10.34
49.246221, 4.061028, 12.19, -0.72, 1.69, 9.28
49.246221, 4.061028, 12.19, 0.17, 2.27, 10.44
49.246174, 4.060875, 12.67, -0.93, 1.77, 9.46
49.246174, 4.060875, 12.67, 0.87, 1.13, 7.86
49.246133, 4.060716, 12.33, -0.10, 1.03, 10.08
49.246133, 4.060716, 12.33, -0.53, 1.31, 8.96
49.246092, 4.060552, 12.31, -0.93, 1.66, 9.86
49.246092, 4.060552, 12.31, -0.16, 1.35, 9.80
49.246060, 4.060391, 12.11, 0.47, 1.72, 10.00
49.246060, 4.060391, 12.11, 0.21, 1.33, 9.76
49.246034, 4.060226, 11.95, 0.29, 1.80, 11.13
49.246034, 4.060226, 11.95, 0.14, 1.48, 8.83
49.246011, 4.060060, 11.86, -0.01, 1.32, 9.42
49.246011, 4.060060, 11.86, 0.86, 1.42, 9.63
49.245991, 4.059893, 11.77, -0.70, 1.70, 8.11
49.245991, 4.059893, 11.77, -0.20, 2.09, 9.03
49.245973, 4.059724, 11.91, -0.44, 0.89, 8.93
49.245973, 4.059724, 11.91, -0.74, 1.23, 9.40
49.245962, 4.059559, 12.09, -1.43, 1.87, 8.85
49.245962, 4.059559, 12.09, -1.16, 1.32, 9.84
49.245955, 4.059390, 12.13, -1.03, 1.55, 11.38
49.245955, 4.059390, 12.13, -0.98, 1.00, 9.95
49.245949, 4.059225, 12.03, -1.12, 0.75, 11.79
49.245949, 4.059225, 12.03, -1.21, 0.95, 9.71
49.245943, 4.059063, 11.61, -1.46, 1.14, 10.41
49.245943, 4.059063, 11.61, -1.03, 1.80, 10.71
49.245937, 4.058907, 11.33, -2.21, 0.61, 9.06
49.245937, 4.058907, 11.33, -1.60, 0.58, 9.12
49.245930, 4.058753, 11.22, -2.20, 2.04, 10.53
49.245930, 4.058753, 11.22, -2.37, 1.01, 8.97
49.245913, 4.058599, 11.33, -1.62, 1.60, 8.62
49.245913, 4.058599, 11.33, -1.53, 1.96, 9.84
49.245884, 4.058451, 11.22, -1.85, 1.71, 10.09
49.245884, 4.058451, 11.22, -1.36, 1.70, 10.55
49.245847, 4.058308, 11.29, -1.15, 1.52, 10.65
49.245847, 4.058308, 11.29, -1.70, 1.92, 9.27
49.245803, 4.058171, 11.39, -1.97, 1.56, 10.99
49.245803, 4.058171, 11.39, -1.06, 1.65, 9.98
49.245758, 4.058032, 11.52, -0.35, 1.84, 8.98
49.245715, 4.057888, 11.67, -0.77, 1.41, 9.12
49.245715, 4.057888, 11.67, -0.89, 1.66, 9.19
49.245671, 4.057743, 11.69, -0.34, 1.46, 10.32
49.245671, 4.057743, 11.69, -0.14, 0.96, 9.99
49.245628, 4.057596, 11.65, -0.81, 1.49, 8.67
49.245628, 4.057596, 11.65, -0.54, 1.71, 7.98
49.245586, 4.057447, 11.55, -0.36, 0.78, 9.95
49.245586, 4.057447, 11.55, -0.47, 1.86, 9.64
49.245543, 4.057299, 11.41, -1.56, 1.11, 9.36
49.245543, 4.057299, 11.41, -1.84, 1.51, 11.40
49.245503, 4.057159, 11.06, -0.32, 1.28, 9.99
49.245503, 4.057159, 11.06, -0.57, 0.72, 9.69
49.245463, 4.057023, 10.69, -1.15, 1.14, 9.88
49.245463, 4.057023, 10.69, -0.35, 1.02, 9.08
49.245426, 4.056892, 10.14, -0.98, 0.59, 10.29
49.245426, 4.056892, 10.14, -0.53, 0.85, 9.38
49.245391, 4.056770, 9.53, -1.29, 0.92, 9.37
49.245391, 4.056770, 9.53, -1.68, 0.34, 8.73
49.245359, 4.056654, 9.06, -0.91, 1.21, 10.60
49.245359, 4.056654, 9.06, -0.81, 1.12, 10.31
49.245330, 4.056540, 8.55, -0.95, -0.11, 12.51
49.245330, 4.056540, 8.55, -0.69, 0.57, 9.39
49.245300, 4.056446, 7.93, -0.79, 0.45, 8.58
49.245300, 4.056446, 7.93, -0.90, 0.41, 8.95
49.245271, 4.056358, 7.34, -0.60, 0.47, 9.62
49.245271, 4.056358, 7.34, -0.79, 0.51, 9.75
49.245241, 4.056276, 6.67, -0.58, 0.67, 9.64
49.245241, 4.056276, 6.67, -0.68, 0.69, 9.35
49.245222, 4.056199, 5.66, -0.89, 0.21, 9.72
49.245222, 4.056199, 5.66, -0.77, 1.06, 9.78
49.245202, 4.056128, 4.93, -0.14, 1.43, 10.24
49.245202, 4.056128, 4.93, -0.86, -0.41, 9.81
49.245183, 4.056068, 4.30, -0.47, 0.07, 9.86
49.245183, 4.056068, 4.30, -0.85, 0.05, 9.82
49.245169, 4.056023, 3.34, -0.74, 0.26, 10.23
49.245169, 4.056023, 3.34, -0.84, 0.14, 9.97
49.245162, 4.055991, 1.92, -0.75, 0.35, 9.66
49.245162, 4.055991, 1.92, -0.59, 0.70, 9.69
49.245159, 4.055974, 0.85, -0.69, 1.29, 9.19
49.245159, 4.055974, 0.85, -0.75, 1.25, 10.54
49.245159, 4.055974, 0.00, -0.68, 1.36, 9.84
49.245159, 4.055974, 0.00, -0.59, 1.25, 9.74
49.245159, 4.055974, 0.00, -0.95, 1.72, 9.96
49.245159, 4.055974, 0.00, -0.68, 2.79, 9.35
49.245159, 4.055974, 0.00, -0.61, 3.02, 9.92
49.245159, 4.055974, 0.00, -0.57, 2.86, 9.48
49.245159, 4.055974, 0.00, -0.70, 1.97, 9.27
49.245149, 4.055923, 2.42, -0.60, 1.95, 9.96
49.245149, 4.055923, 2.42, -0.74, 2.04, 9.59
49.245138, 4.055882, 3.13, -0.82, 2.24, 10.13
49.245138, 4.055882, 3.13, -0.77, 2.24, 8.98
49.245127, 4.055831, 3.73, -1.22, 1.75, 9.96
49.245127, 4.055831, 3.73, -0.97, 2.06, 9.49
49.245113, 4.055780, 4.14, -0.43, 1.68, 9.05
49.245113, 4.055780, 4.14, -1.06, 1.77, 9.73
49.245097, 4.055719, 4.83, -0.76, 2.20, 8.65
49.245097, 4.055719, 4.83, -1.01, 1.82, 10.03
49.245081, 4.055650, 5.22, -0.31, 1.61, 10.53
49.245081, 4.055650, 5.22, -0.16, 1.79, 10.32
49.245062, 4.055570, 5.56, -0.60, 1.81, 9.93
49.245062, 4.055570, 5.56, -0.39, 1.62, 9.33
49.245042, 4.055489, 5.94, -0.49, 1.48, 9.80
49.245042, 4.055489, 5.94, -0.47, 1.81, 10.18
49.245021, 4.055411, 6.15, -0.06, 1.20, 11.56
49.245021, 4.055411, 6.15, 0.20, 0.89, 10.40
49.245000, 4.055336, 5.97, 0.41, 0.89, 8.99
49.245000, 4.055336, 5.97, 0.71, 0.78, 9.55
49.244982, 4.055261, 5.36, 0.47, 0.78, 11.63
49.244982, 4.055261, 5.36, 0.82, 0.38, 10.51
49.244978, 4.055172, 4.95, 1.24, 1.59, 10.43
49.244978, 4.055172, 4.95, 1.72, 1.34, 8.89
49.244993, 4.055095, 5.67, 0.21, 2.34, 9.41
49.244993, 4.055095, 5.67, -0.95, 1.79, 9.16
49.245023, 4.055035, 6.48, -0.31, 1.81, 14.67
49.245023, 4.055035, 6.48, -0.60, 1.61, 10.30
49.245066, 4.054966, 7.43, -0.56, 1.12, 10.09
49.245066, 4.054966, 7.43, -1.79, 1.85, 10.41
49.245115, 4.054885, 8.43, -1.56, 1.92, 9.77
49.245115, 4.054885, 8.43, -0.91, 1.66, 10.50
49.245168, 4.054794, 9.31, -1.64, 1.80, 10.95
49.245168, 4.054794, 9.31, -0.28, 2.02, 9.84
49.245227, 4.054691, 10.16, 0.54, 1.51, 8.57
49.245284, 4.054583, 10.77, -1.40, 0.76, 7.41
49.245284, 4.054583, 10.77, 0.21, 0.83, 10.52
49.245344, 4.054462, 11.20, -0.50, 1.35, 5.24
49.245344, 4.054462, 11.20, -0.06, 1.31, 12.19
49.245403, 4.054336, 11.34, 1.02, 1.20, 12.27
49.245403, 4.054336, 11.34, -0.20, 0.44, 11.04
49.245464, 4.054206, 11.76, 0.44, -1.00, 6.13
49.245464, 4.054206, 11.76, -0.45, 0.33, 8.12
49.245529, 4.054077, 11.81, -1.16, -0.68, 6.68
49.245529, 4.054077, 11.81, 0.24, 0.74, 9.63
49.245593, 4.053947, 11.86, -0.03, 1.67, 10.82
49.245593, 4.053947, 11.86, 0.08, 1.12, 11.67
49.245657, 4.053819, 12.05, -0.31, 3.23, 11.54
49.245657, 4.053819, 12.05, 1.23, 2.05, 9.34
49.245724, 4.053689, 12.04, 0.66, 0.54, 10.51
49.245724, 4.053689, 12.04, 0.30, 1.50, 9.54
49.245791, 4.053556, 12.15, -0.73, 1.07, 9.87
49.245791, 4.053556, 12.15, -0.43, 1.17, 9.15
49.245860, 4.053423, 12.11, -1.18, 0.90, 11.03
49.245860, 4.053423, 12.11, 0.72, 0.17, 11.68
49.245931, 4.053290, 12.01, -0.87, 0.83, 10.24
49.245931, 4.053290, 12.01, 0.09, 2.16, 13.69
49.246004, 4.053154, 12.15, -0.76, -0.62, 6.79
49.246004, 4.053154, 12.15, -1.23, 0.74, 9.37
49.246076, 4.053021, 12.23, -1.14, 0.72, 10.41
49.246076, 4.053021, 12.23, -0.33, 0.65, 10.99
49.246147, 4.052888, 12.26, -2.11, -0.74, 7.64
49.246147, 4.052888, 12.26, 0.56, -0.10, 10.59
49.246214, 4.052759, 11.78, -1.44, 0.46, 11.99
49.246214, 4.052759, 11.78, 0.34, 1.20, 10.22
49.246281, 4.052638, 11.40, 0.13, -0.13, 9.58
49.246281, 4.052638, 11.40, -0.50, 0.18, 9.92
49.246346, 4.052520, 10.89, -1.03, 0.01, 11.38
49.246346, 4.052520, 10.89, 1.25, 1.39, 9.88
49.246408, 4.052409, 10.30, -0.25, 0.24, 9.89
49.246408, 4.052409, 10.30, -0.81, -0.34, 9.81
49.246469, 4.052300, 9.80, 0.30, 0.90, 11.25
49.246469, 4.052300, 9.80, -2.10, -0.39, 8.40
49.246525, 4.052194, 9.30, 0.06, 1.15, 10.50
49.246576, 4.052096, 8.69, -0.95, 0.11, 9.92
49.246576, 4.052096, 8.69, -0.34, 0.06, 10.08
49.246623, 4.052002, 8.24, -0.17, 1.21, 9.36
49.246623, 4.052002, 8.24, 0.12, 0.38, 10.24
49.246666, 4.051915, 7.74, 0.12, 0.40, 9.88
49.246666, 4.051915, 7.74, -0.22, 0.74, 9.72
49.246709, 4.051832, 7.35, -0.77, 0.51, 8.62
49.246709, 4.051832, 7.35, -0.87, 0.00, 9.15
49.246749, 4.051751, 7.04, -0.94, -0.41, 8.62
49.246749, 4.051751, 7.04, -1.65, 0.65, 8.78
49.246787, 4.051674, 6.73, -0.85, 0.02, 8.88
49.246787, 4.051674, 6.73, -0.68, 0.48, 7.91
49.246822, 4.051602, 6.13, 0.21, -0.31, 8.55
49.246822, 4.051602, 6.13, -0.81, 0.23, 11.74
49.246849, 4.051536, 5.40, -0.57, -0.81, 11.19
49.246849, 4.051536, 5.40, 0.20, -0.71, 10.93
49.246871, 4.051476, 4.54, 0.18, -0.75, 10.21
49.246871, 4.051476, 4.54, -0.72, 0.57, 8.43
49.246888, 4.051429, 3.53, -0.60, -0.05, 8.88
49.246888, 4.051429, 3.53, 0.13, -0.07, 9.41
49.246901, 4.051394, 2.70, -0.43, -0.20, 10.34
49.246901, 4.051394, 2.70, 0.54, -0.03, 10.29
49.246909, 4.051373, 1.61, 0.64, -0.46, 11.00
49.246909, 4.051373, 1.61, -0.46, 0.80, 10.15
49.246913, 4.051358, 1.01, -0.51, 0.07, 10.10
49.246913, 4.051358, 1.01, -0.02, 0.23, 9.93
49.246913, 4.051358, 0.00, -0.09, 0.13, 9.91
49.246913, 4.051358, 0.00, -0.09, 0.66, 9.93
49.246913, 4.051358, 0.00, -0.08, 0.65, 9.80
49.246913, 4.051358, 0.00, 0.03, 0.64, 9.86
49.246913, 4.051358, 0.00, -0.07, 0.67, 9.86
49.246913, 4.051358, 0.00, -0.05, 0.70, 9.85
49.246913, 4.051358, 0.00, -0.08, 0.72, 9.84
49.246913, 4.051358, 0.00, -0.11, 0.73, 9.79
49.246913, 4.051358, 0.00, -0.00, 0.68, 9.82
49.246913, 4.051358, 0.00, -0.05, 0.68, 9.78
49.246913, 4.051358, 0.00, -0.02, 0.67, 9.81
49.246913, 4.051358, 0.00, -0.01, 0.71, 9.85
49.246913, 4.051358, 0.00, -0.02, 0.68, 9.83
49.246913, 4.051358, 0.00, -0.01, 0.73, 9.81
49.246913, 4.051358, 0.00, -0.02, 0.73, 9.88
49.246913, 4.051358, 0.00, -0.04, 0.69, 9.82
49.246913, 4.051358, 0.00, -0.04, 0.75, 9.87
49.246913, 4.051358, 0.00, -0.05, 0.65, 9.80
49.246913, 4.051358, 0.00, -0.05, 0.59, 9.75
49.246913, 4.051358, 0.00, 0.00, 0.71, 9.84
49.246913, 4.051358, 0.00, -0.01, 0.71, 9.84
49.246913, 4.051358, 0.00, -0.02, 0.69, 9.90
49.246913, 4.051358, 0.00, -0.04, 0.69, 9.82
49.246913, 4.051358, 0.00, -0.01, 0.68, 9.83
49.246913, 4.051358, 0.00, -0.02, 0.72, 9.87
49.246913, 4.051358, 0.00, -0.04, 0.76, 9.84
49.246913, 4.051358, 0.00, -0.05, 0.68, 9.80
49.246913, 4.051358, 0.00, -0.01, 0.69, 9.74
49.246913, 4.051358, 0.00, -0.02, 0.69, 9.84
49.246913, 4.051358, 0.00, -0.02, 0.73, 9.94
49.246913, 4.051358, 0.00, -0.02, 0.68, 9.82
49.246913, 4.051358, 0.00, -0.02, 0.72, 9.86
49.246913, 4.051358, 0.00, 0.01, 0.82, 9.90
49.246913, 4.051358, 0.00, -0.05, 0.67, 9.79
49.246913, 4.051358, 0.00, -0.03, 0.70, 9.79
49.246913, 4.051358, 0.00, -0.03, 0.72, 9.82
49.246913, 4.051358, 0.00, 0.00, 0.70, 9.80
49.246913, 4.051358, 0.00, -0.05, 0.66, 9.84
49.246913, 4.051358, 0.00, -0.02, 0.66, 9.88
49.246913, 4.051358, 0.00, -0.05, 0.75, 9.86
49.246913, 4.051358, 0.00, -0.04, 0.72, 9.88
49.246913, 4.051358, 0.00, -0.02, 0.69, 9.86
49.246913, 4.051358, 0.00, -0.00, 0.70, 9.86
49.246913, 4.051358, 0.00, 0.00, 0.72, 9.87
49.246913, 4.051358, 0.00, -0.00, 0.72, 9.84
49.246913, 4.051358, 0.00, -0.01, 0.75, 9.84
49.246913, 4.051358, 0.00, -0.05, 0.73, 9.82
49.246913, 4.051358, 0.00, -0.05, 0.68, 9.84
49.246913, 4.051358, 0.00, -0.03, 0.75, 9.86
49.246913, 4.051358, 0.00, -0.01, 0.67, 9.77
49.246913, 4.051358, 0.00, -0.07, 0.69, 9.79
49.246919, 4.051350, 0.00, -0.06, 0.71, 9.81
49.246919, 4.051350, 0.00, -0.03, 0.73, 9.88
49.246919, 4.051350, 0.00, 0.02, 0.76, 9.89
49.246919, 4.051350, 0.00, 0.03, 0.76, 9.93
49.246919, 4.051350, 0.00, -0.08, 0.72, 9.83
49.246919, 4.051350, 0.00, -0.04, 0.68, 9.80
49.246919, 4.051350, 0.00, -0.05, 0.71, 9.85
49.246919, 4.051351, 0.00, -0.03, 0.69, 9.84
49.246919, 4.051351, 0.00, -0.02, 0.71, 9.82
49.246919, 4.051351, 0.01, -0.05, 0.73, 9.85
49.246919, 4.051351, 0.01, -0.03, 0.66, 9.85
49.246920, 4.051351, 0.00, 0.07, 0.75, 10.00
49.246920, 4.051351, 0.00, 0.02, 0.67, 9.87
49.246920, 4.051351, 0.00, -0.00, 0.72, 9.93
49.246920, 4.051351, 0.00, -0.04, 0.65, 9.80
49.246920, 4.051351, 0.01, -0.06, 0.72, 9.77
49.246920, 4.051351, 0.01, -0.00, 0.69, 9.82
49.246920, 4.051351, 0.01, -0.02, 0.68, 9.88
49.246920, 4.051351, 0.01, -0.03, 0.64, 9.76
49.246921, 4.051351, 0.01, -0.07, 0.71, 9.82
49.246921, 4.051351, 0.01, -0.05, 0.69, 9.84
49.246921, 4.051352, 0.00, -0.08, 0.71, 9.88
49.246921, 4.051352, 0.00, -0.04, 0.72, 9.82
49.246921, 4.051352, 0.00, -0.08, 0.76, 9.80
49.246921, 4.051352, 0.00, -0.02, 0.65, 9.81
49.246921, 4.051353, 0.03, -0.02, 0.67, 9.83
49.246921, 4.051353, 0.03, -0.04, 0.73, 9.80
49.246921, 4.051353, 0.02, -0.02, 0.68, 9.88
49.246921, 4.051353, 0.02, -0.11, 0.66, 9.80
49.246920, 4.051354, 0.01, 0.06, 0.68, 9.91
49.246920, 4.051354, 0.01, -0.08, 0.73, 9.86
49.246920, 4.051355, 0.01, -0.11, 0.69, 9.73
49.246920, 4.051355, 0.01, -0.01, 0.74, 9.81
49.246920, 4.051355, 0.01, -0.06, 0.71, 9.80
49.246920, 4.051355, 0.01, -0.00, 0.68, 9.96
49.246920, 4.051355, 0.01, -0.09, 0.66, 9.77
49.246920, 4.051355, 0.01, -0.00, 0.67, 9.81
49.246919, 4.051356, 0.02, 0.02, 0.69, 9.86
49.246919, 4.051356, 0.02, -0.01, 0.68, 9.83
49.246919, 4.051356, 0.01, -0.09, 0.72, 9.81
49.246919, 4.051356, 0.01, -0.03, 0.76, 9.88
49.246919, 4.051357, 0.02, -0.02, 0.69, 9.83
49.246919, 4.051357, 0.02, -0.02, 0.65, 9.81
49.246919, 4.051357, 0.02, -0.08, 0.72, 9.91
49.246919, 4.051357, 0.02, -0.07, 0.65, 9.84
49.246919, 4.051357, 0.02, -0.02, 0.70, 9.92
49.246919, 4.051356, 0.01, -0.15, 0.51, 9.84
49.246919, 4.051356, 0.01, -0.46, 1.70, 10.35
49.246919, 4.051356, 0.01, 0.14, 1.43, 9.73
49.246919, 4.051356, 0.01, 0.12, 1.42, 9.73
49.246919, 4.051355, 0.01, 0.22, 1.42, 9.75
49.246919, 4.051355, 0.01, 0.13, 1.39, 9.73
49.246919, 4.051354, 0.01, 0.09, 1.38, 9.74
49.246919, 4.051354, 0.01, 0.14, 1.41, 9.80
49.246919, 4.051353, 0.03, 0.10, 1.62, 9.69
49.246919, 4.051353, 0.03, 0.30, 2.41, 9.37
49.246919, 4.051352, 0.03, 0.05, 2.89, 9.58
49.246919, 4.051352, 0.03, -0.03, 2.78, 9.32
49.246920, 4.051351, 0.09, 0.43, 2.61, 10.73
49.246920, 4.051351, 0.09, 0.04, 2.37, 9.44
49.246923, 4.051347, 0.22, 0.51, 2.16, 9.22
49.246923, 4.051347, 0.22, 0.01, 2.43, 10.55
49.246929, 4.051335, 1.03, -0.17, 1.92, 10.08
49.246929, 4.051335, 1.03, -0.99, 2.32, 10.39
49.246945, 4.051301, 2.05, -1.55, 1.49, 9.92
49.246945, 4.051301, 2.05, -2.08, 1.87, 9.73
49.246964, 4.051249, 3.14, -2.93, 1.30, 9.96
49.246964, 4.051249, 3.14, -3.27, 1.40, 9.01
49.246967, 4.051176, 4.05, -2.45, 2.02, 9.11
49.246967, 4.051176, 4.05, -2.61, 1.73, 9.11
49.246953, 4.051091, 4.68, -2.50, 2.23, 9.58
49.246953, 4.051091, 4.68, -2.70, 2.21, 9.47
49.246915, 4.051025, 5.07, -1.94, 2.62, 9.81
49.246915, 4.051025, 5.07, -1.40, 2.69, 9.51
49.246861, 4.050977, 6.44, -1.40, 2.58, 9.24
49.246861, 4.050977, 6.44, -0.69, 2.55, 9.23
49.246795, 4.050940, 7.15, -0.74, 2.75, 10.11
49.246795, 4.050940, 7.15, -0.97, 2.28, 9.79
49.246726, 4.050903, 8.21, -0.06, 2.62, 11.16
49.246726, 4.050903, 8.21, -0.62, 2.38, 9.98
49.246645, 4.050863, 9.36, -0.26, 2.41, 9.41
49.246645, 4.050863, 9.36, -1.12, 1.92, 10.11
49.246559, 4.050823, 10.06, -0.61, 2.43, 9.93
49.246559, 4.050823, 10.06, -0.54, 2.47, 9.81
49.246467, 4.050778, 10.96, -0.11, 2.27, 10.21
49.246467, 4.050778, 10.96, -1.09, 2.26, 8.75
49.246368, 4.050732, 11.65, -0.60, 1.97, 9.30
49.246266, 4.050684, 12.09, -0.40, 1.92, 10.92
49.246266, 4.050684, 12.09, -0.76, 2.10, 9.28
49.246158, 4.050634, 12.63, -0.82, 2.11, 9.49
49.246158, 4.050634, 12.63, -0.76, 0.69, 9.76
49.246050, 4.050584, 12.47, -0.32, 1.34, 10.32
49.246050, 4.050584, 12.47, -0.43, 1.41, 9.59
49.245943, 4.050534, 12.20, 0.02, 0.45, 8.11
49.245943, 4.050534, 12.20, -0.67, 0.93, 11.69
49.245841, 4.050484, 11.65, 0.53, 1.18, 9.25
49.245841, 4.050484, 11.65, -0.97, 0.66, 10.08
49.245743, 4.050436, 11.13, -1.06, 1.04, 8.73
49.245743, 4.050436, 11.13, -1.13, 1.12, 10.07
49.245649, 4.050390, 10.62, -1.46, 0.79, 10.32
49.245649, 4.050390, 10.62, -1.45, 0.79, 9.17
49.245560, 4.050347, 10.22, -0.77, 1.15, 9.71
49.245560, 4.050347, 10.22, 0.07, 1.28, 9.38
49.245475, 4.050305, 9.64, -0.88, 0.74, 11.03
49.245475, 4.050305, 9.64, -0.92, 1.32, 9.64
49.245395, 4.050265, 9.11, -0.93, 1.12, 8.39
49.245395, 4.050265, 9.11, -1.58, 0.65, 9.89
49.245317, 4.050228, 8.75, -1.02, 0.86, 10.04
49.245317, 4.050228, 8.75, -0.87, 1.29, 9.77
49.245244, 4.050194, 8.09, -0.82, 1.64, 10.40
49.245244, 4.050194, 8.09, -0.34, 0.22, 9.55
49.245176, 4.050163, 7.63, -0.44, 0.92, 9.68
49.245176, 4.050163, 7.63, -0.59, 1.11, 10.76
49.245113, 4.050134, 7.02, -0.43, 0.76, 9.58
49.245113, 4.050134, 7.02, -0.88, 0.70, 9.75
49.245058, 4.050107, 6.16, -0.80, 0.41, 10.37
49.245058, 4.050107, 6.16, -0.98, 0.72, 9.88
49.245009, 4.050084, 5.32, -0.77, 0.88, 9.76
49.245009, 4.050084, 5.32, -0.87, 1.00, 9.31
49.244966, 4.050064, 4.71, -0.76, 0.90, 10.17
49.244966, 4.050064, 4.71, -0.81, 1.12, 9.67
49.244929, 4.050045, 4.02, -0.36, 1.03, 9.58
49.244929, 4.050045, 4.02, -0.94, 1.26, 10.13
49.244895, 4.050030, 3.69, -0.88, 1.20, 9.58
49.244895, 4.050030, 3.69, -1.00, 1.13, 9.95
49.244865, 4.050015, 3.33, -0.74, 1.43, 9.76
49.244865, 4.050015, 3.33, -0.55, 1.06, 9.59
49.244838, 4.050002, 2.96, -0.85, 0.71, 10.01
49.244814, 4.049990, 2.52, -0.68, 0.45, 9.49
49.244814, 4.049990, 2.52, -0.91, 1.22, 9.76
49.244794, 4.049979, 2.18, -0.67, 2.13, 9.68
49.244794, 4.049979, 2.18, -0.76, 2.48, 9.66
49.244773, 4.049969, 2.75, -0.54, 2.44, 9.24
49.244773, 4.049969, 2.75, -0.73, 2.28, 9.44
49.244745, 4.049957, 3.86, -1.03, 2.12, 9.58
49.244745, 4.049957, 3.86, -0.96, 2.83, 10.25
49.244708, 4.049940, 4.76, -0.99, 2.57, 10.51
49.244708, 4.049940, 4.76, -1.07, 2.60, 10.66
49.244663, 4.049921, 5.65, -1.57, 1.84, 10.97
49.244663, 4.049921, 5.65, -0.74, 1.97, 9.47
49.244612, 4.049897, 6.22, -0.53, 2.02, 10.26
49.244612, 4.049897, 6.22, -0.62, 1.98, 9.71
49.244556, 4.049871, 6.68, -0.78, 1.98, 9.98
49.244556, 4.049871, 6.68, -1.04, 2.22, 10.48
49.244497, 4.049845, 7.10, 0.25, 2.07, 9.12
49.244497, 4.049845, 7.10, -0.68, 1.68, 9.60
49.244433, 4.049815, 7.65, -0.49, 2.18, 8.97
49.244433, 4.049815, 7.65, 0.21, 2.23, 9.27
49.244363, 4.049780, 8.27, 0.37, 1.94, 10.26
49.244363, 4.049780, 8.27, -0.93, 2.30, 9.88
49.244288, 4.049735, 9.25, -0.07, 1.79, 10.09
49.244288, 4.049735, 9.25, -0.66, 1.40, 8.13
49.244213, 4.049668, 9.71, -0.54, 1.57, 8.76
49.244213, 4.049668, 9.71, -0.77, 1.37, 10.10
49.244137, 4.049591, 9.96, -0.57, 1.80, 9.85
49.244137, 4.049591, 9.96, -0.59, 1.33, 10.02
49.244060, 4.049508, 10.35, -0.17, 1.72, 9.99
49.244060, 4.049508, 10.35, -0.47, 1.67, 10.89
49.243982, 4.049421, 10.85, -0.82, 1.54, 10.38
49.243982, 4.049421, 10.85, -0.66, 1.36, 9.92
49.243904, 4.049328, 11.36, -0.63, 1.67, 8.75
49.243904, 4.049328, 11.36, -0.71, 1.07, 9.82
49.243823, 4.049231, 11.99, -1.71, 1.78, 10.72
49.243823, 4.049231, 11.99, -0.55, 1.33, 9.05
49.243736, 4.049126, 12.57, -0.78, 1.44, 9.54
49.243736, 4.049126, 12.57, -0.89, 1.86, 10.44
49.243645, 4.049020, 13.11, -0.65, 1.24, 10.32
49.243645, 4.049020, 13.11, -0.54, 1.26, 9.62
49.243551, 4.048908, 13.45, -0.19, 1.42, 9.48
49.243454, 4.048794, 13.89, -1.12, 1.31, 10.42
49.243454, 4.048794, 13.89, -1.19, 1.51, 10.42
49.243353, 4.048678, 14.18, -0.86, 1.29, 9.66
49.243353, 4.048678, 14.18, -1.11, 1.12, 9.47
49.243247, 4.048562, 14.57, -0.09, 1.45, 10.18
49.243247, 4.048562, 14.57, -0.90, 1.05, 10.28
49.243139, 4.048446, 14.81, -0.45, 1.00, 9.93
49.243139, 4.048446, 14.81, -0.59, 0.86, 9.58
49.243031, 4.048327, 15.01, -0.98, 0.82, 9.54
49.243031, 4.048327, 15.01, -0.51, 0.56, 9.98
49.242921, 4.048205, 14.95, -0.42, 0.92, 9.51
49.242921, 4.048205, 14.95, -0.70, 0.91, 9.90
49.242813, 4.048084, 14.70, 0.40, 0.55, 9.69
49.242813, 4.048084, 14.70, -1.62, 0.84, 10.49
49.242709, 4.047959, 14.64, -0.14, 1.50, 10.44
49.242709, 4.047959, 14.64, 0.15, 0.26, 9.78
49.242607, 4.047832, 14.46, -0.03, 1.03, 10.69
49.242607, 4.047832, 14.46, -0.45, 0.90, 9.16
49.242507, 4.047698, 14.42, -0.84, -0.81, 9.14
49.242507, 4.047698, 14.42, -1.03, 1.29, 9.60
49.242411, 4.047564, 14.35, -0.16, 0.19, 10.86
49.242411, 4.047564, 14.35, -0.66, 1.10, 9.44
49.242317, 4.047430, 13.81, -0.30, 0.54, 10.99
49.242317, 4.047430, 13.81, -0.69, 0.83, 10.83
49.242228, 4.047303, 13.32, 0.85, 1.16, 11.82
49.242228, 4.047303, 13.32, -0.30, 0.82, 9.38
49.242141, 4.047181, 12.65, -0.59, -0.16, 9.56
49.242141, 4.047181, 12.65, -0.57, 1.10, 10.03
49.242061, 4.047067, 12.18, -0.50, 0.05, 10.39
49.242061, 4.047067, 12.18, -1.31, 0.79, 9.43
49.241982, 4.046951, 12.33, -0.73, 0.54, 9.74
49.241982, 4.046951, 12.33, -0.39, 0.53, 10.45
49.241901, 4.046830, 12.31, -0.36, 0.53, 10.65
49.241901, 4.046830, 12.31, 0.30, 1.00, 9.92
49.241821, 4.046711, 12.30, 0.39, 0.57, 10.30
49.241821, 4.046711, 12.30, 0.68, 0.93, 10.63
49.241743, 4.046595, 12.11, -0.56, 0.72, 11.20
49.241743, 4.046595, 12.11, 1.11, 0.24, 10.04
49.241672, 4.046470, 11.59, -0.30, 0.65, 10.05
49.241672, 4.046470, 11.59, -0.23, 0.03, 10.29
49.241614, 4.046342, 10.98, -0.28, 0.67, 9.24
49.241569, 4.046211, 10.42, -0.05, 0.35, 10.49
49.241569, 4.046211, 10.42, -0.39, 0.45, 10.41
49.241529, 4.046085, 9.96, -0.37, 0.61, 9.80
49.241529, 4.046085, 9.96, -0.39, 1.02, 9.98
49.241492, 4.045962, 9.80, -0.95, 0.89, 9.54
49.241492, 4.045962, 9.80, -1.32, 1.27, 9.15
49.241454, 4.045837, 9.81, -0.12, 0.74, 9.87
49.241454, 4.045837, 9.81, -0.16, 0.05, 9.08
49.241419, 4.045719, 9.21, 0.85, 0.45, 10.18
49.241419, 4.045719, 9.21, 1.21, 0.44, 11.32
49.241392, 4.045611, 8.62, 2.27, 0.12, 9.68
49.241392, 4.045611, 8.62, 1.05, 0.43, 10.72
49.241378, 4.045499, 8.12, 1.45, 0.93, 10.57
49.241378, 4.045499, 8.12, 1.12, 0.94, 10.42
49.241384, 4.045379, 8.17, 0.86, 1.08, 9.75
49.241384, 4.045379, 8.17, 0.47, 0.59, 10.83
49.241404, 4.045264, 8.23, -0.54, 1.11, 10.37
49.241404, 4.045264, 8.23, -0.47, 0.70, 9.77
49.241428, 4.045156, 7.75, -1.62, 0.87, 9.83
49.241428, 4.045156, 7.75, -1.81, 1.33, 9.45
49.241449, 4.045050, 7.66, -2.83, 0.94, 8.97
49.241449, 4.045050, 7.66, -2.60, -0.06, 11.56
49.241464, 4.044945, 7.71, -1.69, 1.10, 9.83
49.241464, 4.044945, 7.71, -2.10, 1.09, 8.94
49.241469, 4.044839, 7.68, -1.92, 0.66, 10.15
49.241469, 4.044839, 7.68, -1.57, 0.82, 9.28
49.241457, 4.044731, 7.79, -2.58, 0.48, 10.48
49.241457, 4.044731, 7.79, -1.88, 0.11, 9.26
49.241428, 4.044637, 7.44, -2.14, 0.15, 11.62
49.241428, 4.044637, 7.44, -1.53, 1.07, 10.38
49.241391, 4.044563, 6.60, -1.98, 0.43, 10.20
49.241391, 4.044563, 6.60, -2.06, 1.51, 9.11
49.241348, 4.044511, 6.10, -2.04, 1.34, 9.43
49.241348, 4.044511, 6.10, -0.88, 0.30, 10.23
49.241300, 4.044468, 6.19, -1.17, 1.01, 10.15
49.241300, 4.044468, 6.19, -0.88, 1.04, 9.02
49.241247, 4.044434, 6.06, -1.47, 1.12, 9.57
49.241247, 4.044434, 6.06, -0.96, 1.35, 9.58
49.241193, 4.044408, 6.16, -1.19, 1.41, 10.10
49.241138, 4.044385, 6.50, -1.58, 1.57, 9.29
49.241138, 4.044385, 6.50, -1.10, 1.47, 9.08
49.241078, 4.044364, 6.89, -2.11, 1.81, 10.43
49.241078, 4.044364, 6.89, -0.58, 2.39, 9.62
49.241015, 4.044349, 7.11, -1.72, 1.32, 10.61
49.241015, 4.044349, 7.11, -3.33, 3.68, 8.21
49.240948, 4.044341, 7.78, -1.52, 1.95, 8.29
49.240948, 4.044341, 7.78, -0.60, 2.90, 9.39
49.240871, 4.044347, 8.73, -2.19, 2.06, 9.44
49.240871, 4.044347, 8.73, -0.80, 2.94, 8.60
49.240781, 4.044361, 9.70, -1.12, 2.77, 9.38
49.240781, 4.044361, 9.70, -1.32, 2.39, 10.36
49.240684, 4.044381, 10.39, -1.25, 2.28, 10.54
49.240684, 4.044381, 10.39, -1.30, 2.73, 9.52
49.240582, 4.044398, 11.10, -2.13, 2.03, 10.18
49.240582, 4.044398, 11.10, -0.69, 2.03, 9.97
49.240476, 4.044422, 11.83, -1.03, 2.12, 8.78
49.240476, 4.044422, 11.83, -0.13, 1.62, 9.71
49.240366, 4.044453, 12.01, -0.62, 1.63, 9.85
49.240366, 4.044453, 12.01, -1.16, 1.20, 9.00
49.240260, 4.044484, 12.14, -0.34, 1.69, 10.67
49.240260, 4.044484, 12.14, -0.48, 1.37, 9.13
49.240150, 4.044516, 12.31, -0.90, 1.39, 9.29
49.240150, 4.044516, 12.31, -0.89, 0.81, 10.67
49.240039, 4.044548, 12.54, -1.02, 1.72, 10.48
49.240039, 4.044548, 12.54, -0.76, 1.65, 9.94
49.239928, 4.044580, 12.82, -1.39, 1.64, 10.32
49.239928, 4.044580, 12.82, -0.79, 1.16, 10.25
49.239814, 4.044609, 12.99, -1.12, 1.27, 8.65
49.239814, 4.044609, 12.99, -0.30, 1.47, 8.41
49.239700, 4.044641, 12.90, -1.48, 1.16, 10.27
49.239700, 4.044641, 12.90, -1.15, 1.14, 9.78
49.239589, 4.044672, 12.75, -0.95, 1.13, 11.02
49.239589, 4.044672, 12.75, -1.11, 0.61, 8.36
49.239479, 4.044702, 12.62, -1.16, 0.81, 9.89
49.239479, 4.044702, 12.62, -0.79, 1.16, 9.75
49.239369, 4.044734, 12.46, -1.12, 1.29, 10.79
49.239369, 4.044734, 12.46, -1.36, 1.45, 10.00
49.239258, 4.044766, 12.58, -0.50, 1.48, 9.68
49.239258, 4.044766, 12.58, -1.10, 1.43, 8.89
49.239147, 4.044797, 12.70, -0.24, 1.55, 9.50
49.239033, 4.044825, 12.92, -0.56, 1.75, 9.18
49.239033, 4.044825, 12.92, 0.48, 1.39, 9.90
49.238915, 4.044849, 13.21, 0.30, 2.08, 8.76
49.238915, 4.044849, 13.21, 0.11, 0.93, 9.87
49.238793, 4.044850, 13.44, -0.06, 0.63, 9.95
49.238793, 4.044850, 13.44, 0.13, 1.12, 10.68
49.238671, 4.044832, 13.36, 0.25, 1.14, 9.72
49.238671, 4.044832, 13.36, 0.57, 1.00, 9.57
49.238555, 4.044792, 12.94, -0.40, 1.40, 10.65
49.238555, 4.044792, 12.94, -0.00, 1.02, 9.41
49.238446, 4.044736, 13.01, -1.41, 0.90, 9.60
49.238446, 4.044736, 13.01, -0.21, 0.78, 9.87
49.238341, 4.044670, 12.80, -1.05, 0.85, 9.17
49.238341, 4.044670, 12.80, -0.81, 0.84, 9.87
49.238234, 4.044607, 12.70, -1.15, 0.95, 9.84
49.238234, 4.044607, 12.70, -0.78, 0.57, 10.45
49.238127, 4.044541, 12.53, -1.59, 0.79, 9.34
49.238127, 4.044541, 12.53, -1.29, 1.06, 9.58
49.238022, 4.044476, 12.50, -1.04, 0.79, 9.09
49.238022, 4.044476, 12.50, -1.02, 1.42, 10.23
49.237916, 4.044409, 12.60, -1.24, 0.82, 9.34
49.237916, 4.044409, 12.60, -0.85, 0.92, 10.76
49.237811, 4.044344, 12.85, -1.33, 0.83, 9.99
49.237811, 4.044344, 12.85, -0.50, 1.08, 10.69
49.237703, 4.044280, 13.05, -1.06, 1.13, 10.10
49.237703, 4.044280, 13.05, -1.02, 0.82, 9.74
49.237592, 4.044215, 13.23, 0.10, 1.21, 10.20
49.237592, 4.044215, 13.23, -0.23, 1.06, 10.05
49.237480, 4.044148, 13.45, -0.73, 0.94, 8.85
49.237480, 4.044148, 13.45, -0.74, 0.89, 10.60
49.237367, 4.044081, 13.53, -1.31, 1.06, 9.98
49.237367, 4.044081, 13.53, -1.03, 1.13, 10.50
49.237253, 4.044013, 13.53, -1.05, 0.86, 9.20
49.237253, 4.044013, 13.53, -0.77, 1.49, 11.27
49.237142, 4.043943, 13.36, -0.60, 1.03, 9.79
49.237142, 4.043943, 13.36, -1.37, 1.12, 10.01
49.237030, 4.043871, 13.41, -0.74, 1.04, 8.99
49.237030, 4.043871, 13.41, -0.98, 0.93, 10.08
49.236917, 4.043798, 13.48, -0.37, 0.83, 10.48
49.236917, 4.043798, 13.48, -0.69, 1.25, 8.07
49.236807, 4.043725, 13.32, -0.62, 1.43, 9.74
49.236807, 4.043725, 13.32, -0.36, 1.46, 10.61
49.236697, 4.043649, 13.24, -0.43, 1.54, 10.62
49.236590, 4.043568, 13.04, -0.33, 1.24, 9.02
49.236590, 4.043568, 13.04, 0.24, 1.68, 8.56
49.236486, 4.043480, 12.90, -0.90, 1.43, 10.72
49.236486, 4.043480, 12.90, -0.47, 0.66, 11.20
49.236389, 4.043383, 12.81, -0.47, 0.44, 10.89
49.236389, 4.043383, 12.81, -0.74, 1.48, 9.03
49.236296, 4.043283, 12.57, -0.11, 0.70, 11.86
49.236296, 4.043283, 12.57, -0.97, 1.64, 10.09
49.236205, 4.043182, 12.32, -0.59, 0.77, 10.68
49.236205, 4.043182, 12.32, -0.45, 1.50, 8.94
49.236120, 4.043077, 12.27, -0.31, 0.09, 10.30
49.236120, 4.043077, 12.27, -0.65, 1.02, 8.57
49.236035, 4.042969, 12.18, -0.83, 1.13, 9.08
49.236035, 4.042969, 12.18, -0.92, 1.33, 10.11
49.235952, 4.042861, 12.24, -0.55, 0.91, 10.54
49.235952, 4.042861, 12.24, -0.77, 1.49, 9.84
49.235869, 4.042751, 12.14, -0.95, 1.02, 9.01
49.235869, 4.042751, 12.14, -0.66, 1.23, 10.16
49.235789, 4.042637, 11.94, -0.58, 0.15, 10.18
49.235789, 4.042637, 11.94, -0.49, 1.11, 10.05
49.235706, 4.042523, 11.64, -0.76, 0.56, 10.56
49.235706, 4.042523, 11.64, -0.94, 0.59, 11.11
49.235627, 4.042410, 11.36, -0.09, 0.54, 10.95
49.235627, 4.042410, 11.36, -0.62, 1.06, 10.41
49.235554, 4.042302, 11.04, 0.06, 0.50, 10.85
49.235554, 4.042302, 11.04, -0.87, 0.74, 9.58
49.235485, 4.042196, 10.72, -0.56, 0.79, 8.60
49.235485, 4.042196, 10.72, -1.53, -0.28, 10.37
49.235421, 4.042093, 10.16, -0.71, 0.73, 10.41
49.235421, 4.042093, 10.16, -0.24, -0.34, 8.70
49.235361, 4.041992, 9.57, -1.20, 0.55, 11.39
49.235361, 4.041992, 9.57, -0.69, 0.83, 10.05
49.235306, 4.041899, 8.88, -0.44, 0.83, 9.98
49.235306, 4.041899, 8.88, -0.41, 0.68, 8.99
49.235255, 4.041812, 8.11, -0.23, -0.53, 10.58
49.235255, 4.041812, 8.11, -0.34, -0.51, 10.47
49.235214, 4.041736, 6.67, -0.63, -0.09, 10.20
49.235180, 4.041669, 5.64, -0.79, -0.09, 10.51
49.235180, 4.041669, 5.64, -1.11, 0.65, 10.26
49.235152, 4.041611, 4.96, -1.20, 1.61, 9.90
49.235152, 4.041611, 4.96, -1.12, 2.12, 9.70
49.235123, 4.041554, 5.66, -0.91, 1.99, 10.02
49.235123, 4.041554, 5.66, -1.11, 2.19, 9.30
49.235089, 4.041494, 6.57, -1.03, 2.21, 9.23
49.235089, 4.041494, 6.57, -1.16, 1.66, 8.58
49.235048, 4.041421, 7.54, -1.05, 2.23, 10.51
49.235048, 4.041421, 7.54, -0.91, 2.01, 9.64
49.235000, 4.041336, 8.54, -1.15, 2.12, 10.14
49.235000, 4.041336, 8.54, -1.10, 1.74, 9.02
49.234947, 4.041240, 9.59, -0.99, 2.06, 10.14
49.234947, 4.041240, 9.59, -0.67, 2.09, 11.07
49.234889, 4.041138, 10.17, 0.01, 1.74, 10.33
49.234889, 4.041138, 10.17, -0.46, 1.69, 9.77
49.234828, 4.041029, 10.59, 0.85, 1.16, 10.98
49.234828, 4.041029, 10.59, 2.11, 0.95, 9.73
49.234774, 4.040905, 10.64, 1.44, 1.61, 10.06
49.234774, 4.040905, 10.64, 0.98, 1.05, 11.09
49.234734, 4.040765, 10.71, 2.17, 1.16, 9.55
49.234734, 4.040765, 10.71, 1.90, 1.02, 10.55
49.234710, 4.040610, 10.78, 2.02, 1.11, 10.72
49.234710, 4.040610, 10.78, 2.03, 1.33, 10.51
49.234709, 4.040447, 11.38, 2.38, 1.13, 9.06
49.234709, 4.040447, 11.38, 2.76, 0.92, 9.89
49.234740, 4.040286, 11.85, 2.21, 1.70, 9.71
49.234740, 4.040286, 11.85, 0.96, 1.77, 10.68
49.234797, 4.040128, 12.39, 0.05, 2.04, 9.66
49.234797, 4.040128, 12.39, -1.21, 1.90, 10.32
49.234883, 4.039987, 13.60, -0.62, 2.06, 8.60
49.234883, 4.039987, 13.60, -1.06, 1.21, 10.19
49.234973, 4.039837, 14.80, -0.27, 1.75, 8.59
49.234973, 4.039837, 14.80, -0.03, 1.51, 11.58
49.235073, 4.039682, 16.02, 0.03, 1.32, 8.56
49.235073, 4.039682, 16.02, -0.84, 1.70, 9.84
49.235183, 4.039513, 17.30, -0.51, 1.35, 9.82
49.235183, 4.039513, 17.30, -1.11, 1.94, 11.44
49.235302, 4.039336, 18.13, -1.07, 1.35, 8.18
49.235302, 4.039336, 18.13, -0.63, 1.91, 10.36
49.235425, 4.039153, 18.89, 0.01, 1.92, 12.08
49.235554, 4.038972, 19.22, -0.61, 2.10, 10.04
49.235554, 4.038972, 19.22, -1.12, 2.21, 11.86
49.235684, 4.038792, 19.71, -0.60, 2.22, 11.13
49.235684, 4.038792, 19.71, -0.14, 1.40, 8.09
49.235818, 4.038612, 20.06, -0.00, 2.27, 10.68
49.235818, 4.038612, 20.06, 0.40, 1.82, 10.08
49.235957, 4.038431, 20.37, -0.09, 1.44, 10.00
49.235957, 4.038431, 20.37, 0.15, 1.70, 10.47
49.236103, 4.038248, 20.74, -1.30, 1.58, 8.77
49.236103, 4.038248, 20.74, -1.08, 1.56, 10.32
49.236252, 4.038066, 21.04, -0.42, 1.77, 9.65
49.236252, 4.038066, 21.04, -0.91, 0.60, 9.77
49.236401, 4.037872, 20.86, -0.24, 0.73, 9.69
49.236401, 4.037872, 20.86, -0.11, 0.67, 9.99
49.236548, 4.037680, 20.30, -0.91, 1.00, 9.05
49.236548, 4.037680, 20.30, -1.24, 0.90, 11.43
49.236692, 4.037499, 19.82, -0.51, 1.58, 10.58
49.236692, 4.037499, 19.82, -0.89, 1.92, 9.81
49.236833, 4.037327, 20.17, -1.21, 1.32, 9.53
49.236833, 4.037327, 20.17, -1.21, 1.38, 9.64
49.236971, 4.037155, 20.40, -1.69, 1.68, 9.11
49.236971, 4.037155, 20.40, -0.63, 2.16, 10.88
49.237111, 4.036974, 20.59, -1.02, 1.30, 10.16
49.237111, 4.036974, 20.59, -0.57, 2.43, 9.70
49.237256, 4.036790, 20.89, 0.03, 2.39, 10.56
49.237256, 4.036790, 20.89, -0.37, 2.26, 9.80
49.237405, 4.036607, 21.17, -1.06, 2.50, 11.08
49.237405, 4.036607, 21.17, -0.94, 1.78, 8.68
49.237557, 4.036424, 21.59, -0.30, 1.49, 9.21
49.237557, 4.036424, 21.59, -0.96, 2.27, 11.42
49.237713, 4.036240, 22.11, -1.24, 1.94, 9.33
49.237713, 4.036240, 22.11, -0.47, 1.20, 9.60
49.237876, 4.036056, 22.39, -0.87, 1.41, 9.96
49.237876, 4.036056, 22.39, -0.26, 1.67, 9.10
49.238040, 4.035871, 22.74, -0.79, 1.46, 9.57
49.238040, 4.035871, 22.74, -0.81, 1.69, 9.37
49.238209, 4.035686, 23.08, -0.35, 2.04, 11.06
49.238209, 4.035686, 23.08, -1.41, 1.21, 9.87
49.238379, 4.035497, 23.27, -0.67, 1.70, 9.35
49.238379, 4.035497, 23.27, -0.42, 2.10, 9.62
49.238552, 4.035310, 23.43, -1.10, 0.93, 9.73
49.238722, 4.035123, 23.47, -0.46, 1.61, 10.37
49.238722, 4.035123, 23.47, 0.45, 1.17, 9.49
49.238894, 4.034943, 23.56, -0.86, 2.01, 9.08
49.238894, 4.034943, 23.56, -1.46, 1.44, 11.41
49.239072, 4.034765, 23.71, -0.23, 0.88, 10.53
49.239072, 4.034765, 23.71, -0.75, 1.29, 9.23
49.239250, 4.034585, 23.85, 0.03, 0.99, 10.80
49.239250, 4.034585, 23.85, -0.88, 2.08, 9.96
49.239430, 4.034408, 23.92, -0.16, 1.83, 8.93
49.239430, 4.034408, 23.92, -1.69, 1.17, 9.75
49.239616, 4.034236, 23.93, -0.74, 1.23, 9.52
49.239616, 4.034236, 23.93, -0.33, 1.19, 10.89
49.239802, 4.034067, 23.97, -0.11, 0.74, 10.18
49.239802, 4.034067, 23.97, -0.26, 1.60, 7.69
49.239988, 4.033895, 24.03, -0.68, 1.21, 7.85
49.239988, 4.033895, 24.03, -1.04, 0.82, 8.82
49.240176, 4.033727, 24.06, -0.63, 1.24, 9.80
49.240176, 4.033727, 24.06, -1.51, 1.24, 11.21
49.240364, 4.033557, 24.14, -1.02, 1.81, 8.66
49.240364, 4.033557, 24.14, -0.71, 1.94, 9.46
49.240547, 4.033381, 24.22, -0.73, 1.21, 10.21
49.240547, 4.033381, 24.22, -0.75, 1.65, 9.45
49.240730, 4.033202, 24.23, -1.01, 1.25, 10.07
49.240730, 4.033202, 24.23, -1.41, 0.47, 10.38
49.240916, 4.033029, 24.35, -1.88, 1.15, 10.78
49.240916, 4.033029, 24.35, -0.78, 1.21, 10.58
49.241107, 4.032862, 24.44, -0.66, 1.52, 9.48
49.241107, 4.032862, 24.44, -1.01, 1.51, 12.02
49.241299, 4.032695, 24.59, -0.53, 1.65, 9.76
49.241299, 4.032695, 24.59, -0.55, 1.68, 8.21
49.241490, 4.032523, 24.65, -0.13, 1.55, 9.20
49.241490, 4.032523, 24.65, -0.21, 1.75, 10.14
49.241676, 4.032340, 24.76, -0.81, 1.58, 8.80
49.241676, 4.032340, 24.76, -1.15, 1.28, 8.47
49.241865, 4.032161, 24.87, -0.19, 1.04, 11.06
49.241865, 4.032161, 24.87, -1.13, 1.33, 9.18
49.242057, 4.031987, 24.91, -0.69, 2.04, 8.03
49.242057, 4.031987, 24.91, -1.02, 0.86, 10.70
49.242248, 4.031807, 25.14, -0.24, 1.80, 8.55
49.242248, 4.031807, 25.14, -1.30, 1.03, 10.18
49.242443, 4.031628, 25.24, -0.57, 1.48, 10.14
49.242443, 4.031628, 25.24, -0.34, 1.24, 8.94
49.242639, 4.031454, 25.35, -0.51, 1.81, 10.68
49.242839, 4.031280, 25.43, -0.96, 1.10, 10.33
49.242839, 4.031280, 25.43, -0.78, 1.41, 10.59
49.243042, 4.031108, 25.49, -0.91, 1.56, 10.39
49.243042, 4.031108, 25.49, -0.50, 0.75, 10.00
49.243242, 4.030938, 25.48, -0.80, 1.10, 9.35
49.243242, 4.030938, 25.48, -0.92, 1.69, 7.36
49.243442, 4.030768, 25.46, -1.29, 1.38, 10.63
49.243442, 4.030768, 25.46, -0.30, 1.00, 10.34
49.243642, 4.030596, 25.44, -0.77, 1.23, 9.50
49.243642, 4.030596, 25.44, -1.50, 0.78, 10.78
49.243837, 4.030415, 25.33, -1.30, 1.01, 9.96
49.243837, 4.030415, 25.33, -0.79, 1.00, 10.56
49.244032, 4.030238, 25.18, -0.79, 1.62, 10.12
49.244032, 4.030238, 25.18, -1.19, 0.31, 9.47
49.244225, 4.030058, 25.08, -1.16, 1.18, 8.67
49.244225, 4.030058, 25.08, -0.93, 0.82, 10.49
49.244418, 4.029885, 24.98, -1.01, 1.39, 9.18
49.244418, 4.029885, 24.98, 0.01, 1.52, 8.01
49.244606, 4.029704, 24.83, -0.40, 1.40, 11.22
49.244606, 4.029704, 24.83, -0.51, 1.27, 8.87
49.244797, 4.029527, 24.68, -0.45, 0.91, 8.64
49.244797, 4.029527, 24.68, -1.02, 0.82, 8.24
49.244985, 4.029349, 24.30, -0.15, 1.43, 10.07
49.244985, 4.029349, 24.30, -0.63, 0.37, 10.11
49.245164, 4.029169, 23.78, -0.23, 0.66, 10.35
49.245164, 4.029169, 23.78, 0.34, 0.66, 9.69
49.245338, 4.028994, 23.39, -0.38, 0.07, 9.56
49.245338, 4.028994, 23.39, -0.24, 1.24, 9.70
49.245513, 4.028825, 23.08, -1.08, 1.35, 11.00
49.245513, 4.028825, 23.08, 0.06, 1.58, 10.60
49.245684, 4.028648, 22.89, 0.04, 0.73, 9.20
49.245684, 4.028648, 22.89, -0.85, 1.14, 9.57
49.245855, 4.028473, 22.82, -0.92, 1.24, 7.26
49.245855, 4.028473, 22.82, -0.22, 0.68, 10.36
49.246031, 4.028301, 22.85, -0.92, 1.13, 9.47
49.246031, 4.028301, 22.85, -0.72, 1.24, 8.66
49.246200, 4.028116, 22.56, -0.40, 0.64, 10.13
49.246200, 4.028116, 22.56, -0.45, 1.04, 10.17
49.246365, 4.027936, 22.23, 0.38, 0.67, 10.50
49.246365, 4.027936, 22.23, -1.21, 1.14, 9.70
49.246521, 4.027752, 21.78, 0.15, 0.50, 10.54
49.246673, 4.027574, 21.25, -0.66, 0.53, 8.57
49.246673, 4.027574, 21.25, -1.45, -0.33, 8.20
49.246820, 4.027396, 20.75, -1.37, 0.21, 10.28
49.246820, 4.027396, 20.75, -0.77, -0.23, 8.94
49.246962, 4.027223, 19.79, -0.68, -0.45, 10.62
49.246962, 4.027223, 19.79, -0.23, 0.22, 10.60
49.247096, 4.027057, 18.75, -0.19, 0.23, 9.83
49.247096, 4.027057, 18.75, -0.60, 0.86, 10.78
49.247221, 4.026896, 18.01, 0.10, 1.03, 10.48
49.247221, 4.026896, 18.01, -0.85, 0.55, 11.19
49.247338, 4.026737, 17.16, -0.46, 0.27, 9.20
49.247338, 4.026737, 17.16, -0.62, -0.59, 10.37
49.247454, 4.026598, 15.72, 0.39, -0.93, 8.73
49.247454, 4.026598, 15.72, -0.79, -1.43, 10.43
49.247555, 4.026469, 13.70, -1.07, -0.92, 12.07
49.247555, 4.026469, 13.70, -1.01, -1.77, 8.58
49.247640, 4.026359, 11.49, -0.49, -1.40, 9.26
49.247640, 4.026359, 11.49, 0.23, -0.13, 9.99
49.247712, 4.026267, 9.61, -0.21, -0.52, 9.33
49.247712, 4.026267, 9.61, -0.33, 0.50, 10.17
49.247770, 4.026186, 8.24, 0.29, 1.32, 10.90
49.247770, 4.026186, 8.24, -0.32, 1.46, 9.80
49.247822, 4.026109, 8.16, 0.01, 1.55, 9.66
49.247822, 4.026109, 8.16, -0.27, 1.52, 10.27
49.247877, 4.026033, 8.51, -0.45, 1.86, 9.55
49.247877, 4.026033, 8.51, -0.16, 1.78, 9.28
49.247936, 4.025954, 8.90, -0.43, 2.17, 10.43
49.247936, 4.025954, 8.90, 0.13, 1.64, 9.97
49.247993, 4.025871, 9.38, -0.06, 1.73, 10.02
49.247993, 4.025871, 9.38, -0.49, 1.84, 8.77
49.248056, 4.025784, 10.11, -0.43, 2.14, 8.78
49.248056, 4.025784, 10.11, -0.22, 2.21, 9.46
49.248125, 4.025688, 10.88, -0.57, 2.11, 9.59
49.248125, 4.025688, 10.88, -0.36, 1.91, 9.39
49.248205, 4.025584, 11.69, -0.52, 2.42, 9.66
49.248205, 4.025584, 11.69, -1.38, 1.54, 9.84
49.248287, 4.025470, 12.63, 0.43, 2.23, 8.67
49.248287, 4.025470, 12.63, -1.49, 2.05, 8.29
49.248373, 4.025350, 13.41, -0.73, 1.68, 9.90
49.248373, 4.025350, 13.41, 0.30, 1.80, 11.99
49.248463, 4.025223, 14.13, -0.69, 1.66, 7.80
49.248463, 4.025223, 14.13, 0.27, 1.77, 7.86
49.248561, 4.025085, 14.79, 0.36, 2.39, 11.25
49.248661, 4.024942, 15.68, -0.19, 2.31, 10.42
49.248661, 4.024942, 15.68, 0.16, 2.83, 10.75
49.248770, 4.024800, 16.33, -0.68, 1.26, 8.63
49.248770, 4.024800, 16.33, -0.03, 1.81, 9.65
49.248879, 4.024646, 17.06, 0.02, 2.07, 10.54
49.248879, 4.024646, 17.06, 0.15, 2.26, 10.74
49.248990, 4.024490, 17.58, 0.55, 1.08, 10.28
49.248990, 4.024490, 17.58, -0.60, 2.03, 8.78
49.249105, 4.024321, 18.21, 0.24, 2.17, 9.09
49.249105, 4.024321, 18.21, 1.06, 1.51, 9.62
49.249228, 4.024147, 18.77, -0.34, 2.31, 9.03
49.249228, 4.024147, 18.77, -0.39, 2.07, 9.22
49.249358, 4.023975, 19.34, 0.20, 1.86, 9.78
49.249358, 4.023975, 19.34, -0.65, 1.09, 9.54
49.249490, 4.023791, 19.87, -0.34, 1.13, 9.89
49.249490, 4.023791, 19.87, -0.31, 2.24, 9.42
49.249623, 4.023602, 20.29, -0.11, 1.20, 11.21
49.249623, 4.023602, 20.29, 0.01, 1.97, 9.41
49.249755, 4.023404, 20.72, 0.55, 1.11, 10.08
49.249755, 4.023404, 20.72, -0.76, 1.62, 9.87
49.249893, 4.023216, 20.99, -0.61, 1.89, 8.40
49.249893, 4.023216, 20.99, 0.57, 1.38, 10.38
49.250034, 4.023023, 21.18, -0.36, 0.87, 8.51
49.250034, 4.023023, 21.18, 1.04, 1.53, 9.39
49.250178, 4.022825, 21.29, -0.38, 1.42, 10.09
49.250178, 4.022825, 21.29, 0.15, 2.21, 9.36
49.250321, 4.022627, 21.28, 0.78, 1.17, 11.03
49.250321, 4.022627, 21.28, -1.96, 0.87, 10.33
49.250465, 4.022428, 21.27, -0.55, 1.17, 9.45
49.250465, 4.022428, 21.27, 0.11, 0.55, 9.84
49.250601, 4.022223, 21.01, 0.22, 0.70, 8.76
49.250601, 4.022223, 21.01, -0.70, 0.45, 8.62
49.250737, 4.022026, 20.84, -0.79, 0.60, 10.22
49.250737, 4.022026, 20.84, -0.58, 1.47, 11.46
49.250863, 4.021833, 20.43, -0.50, 0.77, 9.85
49.250863, 4.021833, 20.43, -0.19, 1.33, 8.69
49.250992, 4.021638, 20.29, 0.26, 0.40, 11.12
49.250992, 4.021638, 20.29, -0.69, 0.74, 9.43
49.251132, 4.021459, 20.07, 0.00, 1.42, 9.44
49.251132, 4.021459, 20.07, 0.19, 0.93, 9.86
49.251254, 4.021256, 19.70, 0.39, 1.20, 11.70
49.251375, 4.021065, 19.30, 0.06, 1.02, 9.01
49.251375, 4.021065, 19.30, 0.16, 0.09, 11.18
49.251502, 4.020876, 18.81, -1.16, 0.92, 9.32
49.251502, 4.020876, 18.81, -0.72, 1.10, 8.81
49.251618, 4.020692, 18.56, -1.54, 0.88, 8.72
49.251618, 4.020692, 18.56, -2.17, 0.78, 11.42
49.251731, 4.020502, 18.09, -1.52, 1.69, 11.71
49.251731, 4.020502, 18.09, -0.78, 0.83, 9.01
49.251832, 4.020312, 17.62, -1.73, 0.50, 11.76
49.251832, 4.020312, 17.62, -1.70, 1.32, 11.41
49.251924, 4.020121, 17.19, -1.91, 0.81, 11.18
49.251924, 4.020121, 17.19, -1.36, 1.59, 10.51
49.252010, 4.019931, 16.78, -1.06, 0.53, 9.45
49.252010, 4.019931, 16.78, -1.08, 1.56, 9.19
49.252094, 4.019745, 16.14, -0.61, 0.74, 9.33
49.252094, 4.019745, 16.14, -0.90, 1.75, 10.07
49.252172, 4.019562, 15.39, -0.13, -0.08, 7.62
49.252172, 4.019562, 15.39, -0.42, 0.97, 10.11
49.252245, 4.019389, 14.48, -0.97, 0.78, 11.59
49.252245, 4.019389, 14.48, 0.19, 0.82, 10.02
49.252315, 4.019230, 13.64, -0.67, 0.42, 10.04
49.252315, 4.019230, 13.64, -0.70, 0.91, 10.03
49.252378, 4.019082, 12.33, -0.13, 0.29, 9.50
49.252378, 4.019082, 12.33, -0.23, 0.35, 8.64
49.252438, 4.018948, 11.07, -0.19, 0.64, 9.28
49.252438, 4.018948, 11.07, 0.87, 1.30, 10.25
49.252499, 4.018840, 10.11, 0.97, 1.02, 9.87
49.252499, 4.018840, 10.11, 0.52, 1.11, 11.24
49.252567, 4.018754, 9.72, 0.91, 1.03, 9.55
49.252567, 4.018754, 9.72, 1.07, 1.45, 9.95
49.252651, 4.018684, 9.53, 0.80, 1.47, 10.57
49.252651, 4.018684, 9.53, 1.49, 1.09, 10.00
49.252736, 4.018640, 9.38, 0.92, 1.21, 11.15
49.252736, 4.018640, 9.38, 0.57, 1.56, 9.24
49.252816, 4.018620, 9.79, 1.33, 1.44, 10.34
49.252816, 4.018620, 9.79, 1.16, 1.30, 9.95
49.252902, 4.018620, 9.96, 1.37, 1.62, 10.02
49.252902, 4.018620, 9.96, 0.51, 1.23, 10.55
49.252995, 4.018647, 9.81, 0.54, 1.18, 9.64
49.253084, 4.018699, 9.88, 1.14, 1.53, 9.72
49.253084, 4.018699, 9.88, 0.78, 1.78, 9.72
49.253084, 4.018699, 9.88, -0.15, 1.18, 9.10
49.253170, 4.018762, 10.12, -1.08, 1.43, 10.12
49.253255, 4.018833, 10.28, -0.90, 1.55, 11.13
49.253255, 4.018833, 10.28, -1.54, 1.36, 9.40
49.253338, 4.018907, 10.50, -0.69, 1.37, 8.44
49.253338, 4.018907, 10.50, -0.10, 1.69, 10.28
49.253420, 4.018971, 10.68, -0.44, 1.37, 9.86
49.253420, 4.018971, 10.68, -0.63, 1.16, 9.73
49.253505, 4.019040, 10.83, -0.22, 1.23, 9.92
49.253505, 4.019040, 10.83, -0.69, 0.70, 9.37
49.253585, 4.019115, 10.29, -0.81, 0.60, 9.28
49.253585, 4.019115, 10.29, -0.92, 0.06, 9.90
49.253660, 4.019194, 9.82, 0.45, 0.91, 9.50
49.253660, 4.019194, 9.82, 0.03, 0.66, 9.85
49.253733, 4.019270, 9.73, -1.52, -0.03, 8.98
49.253733, 4.019270, 9.73, -0.31, 0.14, 9.86
49.253809, 4.019349, 9.33, -1.13, 0.75, 9.81
49.253809, 4.019349, 9.33, -1.11, -0.14, 10.14
49.253878, 4.019418, 8.88, -0.96, 0.50, 10.77
49.253878, 4.019418, 8.88, -0.79, 0.14, 10.08
49.253942, 4.019482, 8.39, -0.55, 0.60, 10.81
49.253942, 4.019482, 8.39, -0.55, 0.44, 9.54
49.253998, 4.019548, 7.92, -0.66, 1.02, 8.71
49.253998, 4.019548, 7.92, -0.64, 1.15, 8.82
49.254059, 4.019617, 7.97, -0.87, 0.27, 10.86
49.254059, 4.019617, 7.97, -0.35, 0.43, 9.94
49.254116, 4.019687, 7.93, -0.51, 0.45, 10.71
49.254116, 4.019687, 7.93, -0.38, 0.55, 9.41
49.254171, 4.019755, 7.57, -1.11, 0.56, 9.95
49.254171, 4.019755, 7.57, -1.18, -0.06, 11.13
49.254224, 4.019815, 7.23, -0.81, 0.09, 9.84
49.254224, 4.019815, 7.23, -0.91, 0.12, 9.74
49.254279, 4.019874, 6.90, -0.32, 0.48, 9.14
49.254279, 4.019874, 6.90, -0.37, 0.70, 10.28
49.254331, 4.019932, 6.55, -0.04, 0.41, 10.40
49.254331, 4.019932, 6.55, -0.46, 0.40, 9.98
49.254383, 4.019988, 6.33, -0.31, 0.63, 9.39
49.254432, 4.020040, 6.06, -0.50, 0.41, 9.30
49.254432, 4.020040, 6.06, -0.50, 0.11, 9.98
49.254474, 4.020087, 5.53, -0.61, 0.34, 9.98
49.254474, 4.020087, 5.53, -0.87, 0.04, 9.62
49.254507, 4.020132, 4.47, -0.64, -0.38, 10.13
49.254507, 4.020132, 4.47, -0.61, -0.07, 10.69
49.254534, 4.020165, 3.35, -0.21, 0.02, 9.61
49.254534, 4.020165, 3.35, -0.43, -0.02, 9.93
49.254534, 4.020165, 0.00, -0.32, 0.08, 10.02
49.254534, 4.020165, 0.00, -0.49, -0.02, 10.09
49.254534, 4.020165, 0.00, -0.68, 0.35, 9.96
49.254534, 4.020165, 0.00, -0.57, 0.43, 9.84
49.254534, 4.020165, 0.00, -0.55, 0.96, 9.71
49.254534, 4.020165, 0.00, -0.60, 1.00, 9.75
49.254534, 4.020165, 0.00, -0.56, 0.79, 9.99
49.254534, 4.020165, 0.00, -0.57, 0.85, 9.77
49.254534, 4.020165, 0.00, -0.49, 1.09, 9.57
49.254534, 4.020165, 0.00, -0.55, 1.13, 9.76
49.254534, 4.020165, 0.00, -0.55, 1.12, 9.81
49.254534, 4.020165, 0.00, -0.57, 1.21, 9.82
49.254534, 4.020165, 0.00, -0.55, 1.14, 9.76
49.254534, 4.020165, 0.00, -0.23, 1.21, 9.92
49.254534, 4.020165, 0.00, -0.50, 1.17, 9.86
49.254534, 4.020165, 0.00, -0.70, 1.07, 9.77
49.254534, 4.020165, 0.00, -0.64, 1.29, 9.75
49.254534, 4.020165, 0.00, -0.53, 1.22, 9.68
49.254534, 4.020165, 0.00, -0.50, 1.04, 9.83
49.254534, 4.020165, 0.00, -0.55, 1.17, 9.80
49.254534, 4.020165, 0.00, -0.62, 1.05, 9.91
49.254534, 4.020165, 0.00, -0.50, 1.05, 9.80
49.254534, 4.020165, 0.00, -0.53, 1.11, 9.76
49.254534, 4.020165, 0.00, -0.57, 1.12, 9.76
49.254534, 4.020165, 0.00, -0.54, 1.13, 9.77
49.254534, 4.020165, 0.00, -0.53, 1.13, 9.78
49.254534, 4.020165, 0.00, -0.86, 1.04, 9.62
49.254534, 4.020165, 0.00, -0.53, 1.21, 9.79
49.254534, 4.020165, 0.00, -0.52, 1.14, 9.78
49.254534, 4.020165, 0.00, -0.57, 1.12, 9.78
49.254534, 4.020165, 0.00, -0.56, 1.09, 9.80
49.254534, 4.020165, 0.00, -0.54, 1.12, 9.74
49.254534, 4.020165, 0.00, -0.53, 1.11, 9.84
49.254534, 4.020165, 0.00, -0.56, 1.14, 9.82
49.254534, 4.020165, 0.00, -0.53, 1.14, 9.80
49.254534, 4.020165, 0.00, -0.55, 1.06, 9.76
49.254534, 4.020165, 0.00, -0.52, 1.15, 9.78
49.254534, 4.020165, 0.00, -0.57, 1.12, 9.82
49.254534, 4.020165, 0.00, -0.54, 1.13, 9.83
49.254534, 4.020165, 0.00, -0.53, 1.17, 9.79
49.254534, 4.020165, 0.00, -0.53, 1.15, 9.83
49.254534, 4.020165, 0.00, -0.54, 1.13, 9.82
49.254534, 4.020165, 0.00, -0.53, 1.13, 9.77
49.254534, 4.020165, 0.00, -0.53, 1.13, 9.80
49.254534, 4.020165, 0.00, -0.51, 1.13, 9.82
49.254534, 4.020165, 0.00, -0.57, 1.13, 9.78
49.254534, 4.020165, 0.00, -0.57, 1.08, 9.79
49.254534, 4.020165, 0.00, -0.56, 1.11, 9.82
49.254534, 4.020165, 0.00, -0.48, 1.12, 9.84
49.254534, 4.020165, 0.00, -0.54, 1.13, 9.80
49.254534, 4.020165, 0.00, -0.57, 1.02, 9.66
49.254534, 4.020165, 0.00, -0.54, 1.56, 9.76
49.254534, 4.020165, 0.00, -0.50, 1.75, 9.77
49.254534, 4.020165, 0.00, -0.56, 1.65, 9.50
49.254534, 4.020165, 0.00, -0.60, 1.55, 10.11
49.254534, 4.020165, 0.00, -0.43, 1.02, 9.69
49.254534, 4.020165, 0.00, -0.48, 0.76, 9.83
49.254534, 4.020165, 0.00, -0.60, 0.76, 9.84
49.254534, 4.020165, 0.00, -0.65, 0.87, 9.77
49.254534, 4.020165, 0.00, -0.56, 0.79, 9.76
49.254534, 4.020165, 0.00, -0.69, 0.82, 9.61
49.254534, 4.020165, 0.00, -0.66, 1.11, 9.84
49.254534, 4.020165, 0.00, -0.60, 1.24, 9.73
49.254534, 4.020165, 0.00, -0.56, 1.23, 9.71
49.254534, 4.020165, 0.00, -0.58, 1.17, 9.83
49.254534, 4.020165, 0.00, -0.60, 1.15, 9.84
49.254534, 4.020165, 0.00, -0.76, 1.80, 9.51
49.254534, 4.020165, 0.00, -0.57, 2.38, 9.69
49.254534, 4.020165, 0.00, -0.45, 2.47, 9.36
49.254534, 4.020165, 0.00, -0.64, 2.27, 9.33
49.254534, 4.020165, 0.00, -0.93, 2.21, 9.63
49.254588, 4.020243, 0.00, -0.57, 2.38, 9.58
49.254588, 4.020243, 0.00, -0.52, 2.23, 9.93
49.254608, 4.020275, 3.05, -0.56, 2.11, 9.59
49.254608, 4.020275, 3.05, -0.54, 2.13, 9.39
49.254639, 4.020310, 3.84, -0.74, 2.29, 9.73
49.254639, 4.020310, 3.84, -0.62, 1.92, 9.98
49.254677, 4.020350, 4.64, -0.83, 2.03, 9.59
49.254716, 4.020392, 4.99, -1.41, 2.12, 9.39
49.254716, 4.020392, 4.99, -0.67, 2.20, 9.49
49.254753, 4.020436, 5.47, -0.61, 1.80, 9.99
49.254753, 4.020436, 5.47, -0.77, 1.72, 9.30
49.254799, 4.020478, 6.19, -0.67, 2.53, 7.64
49.254799, 4.020478, 6.19, -0.80, 1.79, 10.19
49.254848, 4.020528, 6.91, 0.43, 2.05, 10.06
49.254848, 4.020528, 6.91, -0.05, 1.72, 9.94
49.254909, 4.020582, 7.44, -0.26, 0.83, 9.76
49.254909, 4.020582, 7.44, 0.01, 1.63, 9.25
49.254966, 4.020635, 7.46, 0.36, 0.19, 9.51
49.254966, 4.020635, 7.46, -0.02, 1.56, 8.90
49.255020, 4.020693, 7.10, -0.09, 0.50, 10.61
49.255020, 4.020693, 7.10, 0.07, 1.19, 9.84
49.255068, 4.020748, 6.22, -0.08, 0.32, 9.20
49.255068, 4.020748, 6.22, 0.44, 0.17, 10.14
49.255110, 4.020795, 5.17, -0.04, -0.17, 9.72
49.255110, 4.020795, 5.17, -0.51, -0.12, 9.48
49.255142, 4.020835, 3.83, -0.01, -0.16, 10.51
49.255142, 4.020835, 3.83, -0.41, -0.03, 10.50
49.255142, 4.020835, 0.00, -0.51, -0.49, 10.41
49.255142, 4.020835, 0.00, -0.32, -0.19, 10.11
49.255142, 4.020835, 0.00, -0.29, 0.58, 9.84
49.255142, 4.020835, 0.00, -0.13, 1.66, 9.59
49.255142, 4.020835, 0.00, -0.27, 1.31, 9.82
49.255142, 4.020835, 0.00, -0.26, 1.31, 9.80
49.255142, 4.020835, 0.00, -0.23, 1.25, 9.74
49.255142, 4.020835, 0.00, -0.24, 1.30, 9.74
49.255142, 4.020835, 0.00, -0.22, 1.27, 9.75
49.255142, 4.020835, 0.00, -0.25, 1.27, 9.74
49.255142, 4.020835, 0.00, -0.22, 1.24, 9.72
49.255142, 4.020835, 0.00, -0.23, 1.28, 9.74
49.255142, 4.020835, 0.00, -0.25, 1.29, 9.76
49.255142, 4.020835, 0.00, -0.26, 1.31, 9.81
49.255142, 4.020835, 0.00, -0.22, 1.32, 9.72
49.255142, 4.020835, 0.00, -0.24, 1.29, 9.74
49.255142, 4.020835, 0.00, -0.23, 1.29, 9.76
49.255142, 4.020835, 0.00, -0.23, 1.29, 9.73
49.255142, 4.020835, 0.00, -0.26, 1.28, 9.72
49.255142, 4.020835, 0.00, -0.20, 1.32, 9.77
49.255142, 4.020835, 0.00, -0.26, 1.28, 9.80
49.255142, 4.020835, 0.00, -0.25, 1.32, 9.84
49.255142, 4.020835, 0.00, -0.25, 1.28, 9.77
49.255142, 4.020835, 0.00, -0.26, 1.28, 9.73
49.255142, 4.020835, 0.00, -0.22, 1.32, 9.80
49.255142, 4.020835, 0.00, -0.25, 1.26, 9.70
49.255142, 4.020835, 0.00, -0.21, 1.26, 9.79
49.255142, 4.020835, 0.00, -0.26, 1.25, 9.73
49.255142, 4.020835, 0.00, -0.27, 1.27, 9.73
49.255142, 4.020835, 0.00, -0.21, 1.33, 9.77
49.255142, 4.020835, 0.00, -0.20, 1.29, 9.82
49.255142, 4.020835, 0.00, -0.23, 1.23, 9.79
49.255142, 4.020835, 0.00, -0.28, 1.25, 9.77
49.255142, 4.020835, 0.00, -0.27, 1.28, 9.70
49.255142, 4.020835, 0.00, -0.17, 1.35, 9.79
49.255142, 4.020835, 0.00, -0.24, 1.27, 9.77
49.255142, 4.020835, 0.00, -0.24, 1.28, 9.76
49.255142, 4.020835, 0.00, -0.23, 1.29, 9.80
49.255142, 4.020835, 0.00, -0.22, 1.28, 9.77
49.255142, 4.020835, 0.00, -0.21, 1.29, 9.74
49.255142, 4.020835, 0.00, -0.26, 1.23, 9.74
49.255142, 4.020835, 0.00, -0.15, 1.27, 9.84
49.255142, 4.020835, 0.00, -0.24, 1.26, 9.74
49.255142, 4.020835, 0.00, -0.21, 1.35, 9.77
49.255142, 4.020835, 0.00, -0.20, 1.28, 9.75
49.255142, 4.020835, 0.00, -0.18, 1.15, 9.78
49.255142, 4.020835, 0.00, -0.17, 1.30, 9.83
49.255142, 4.020835, 0.00, -0.23, 1.20, 9.79
49.255142, 4.020835, 0.00, -0.21, 1.26, 9.76
49.255142, 4.020835, 0.00, -0.24, 1.17, 9.79
49.255142, 4.020835, 0.00, -0.25, 1.27, 9.75
49.255142, 4.020835, 0.00, -0.28, 1.14, 9.72
49.255142, 4.020835, 0.00, -0.22, 1.28, 9.76
49.255142, 4.020835, 0.00, -0.23, 1.29, 9.76
49.255142, 4.020835, 0.00, -0.18, 1.34, 9.80
49.255142, 4.020835, 0.00, -0.20, 1.28, 9.80
49.255142, 4.020835, 0.00, -0.21, 1.28, 9.80
49.255142, 4.020835, 0.00, -0.24, 1.28, 9.76
49.255142, 4.020835, 0.00, -0.21, 1.25, 9.80
49.255142, 4.020835, 0.00, -0.25, 1.29, 9.76
49.255142, 4.020835, 0.00, -0.24, 1.30, 9.76
49.255142, 4.020835, 0.00, -0.19, 1.30, 9.74
49.255142, 4.020835, 0.00, -0.24, 1.29, 9.76
49.255142, 4.020835, 0.00, -0.20, 1.34, 9.76
49.255142, 4.020835, 0.00, -0.22, 1.31, 9.74
49.255142, 4.020835, 0.00, -0.23, 1.29, 9.77
49.255142, 4.020835, 0.00, -0.22, 1.27, 9.77
49.255142, 4.020835, 0.00, -0.27, 1.23, 9.72
49.255187, 4.020885, 0.00, -0.25, 1.30, 9.75
49.255187, 4.020885, 0.00, -0.23, 1.29, 9.73
49.255187, 4.020885, 0.00, -0.22, 1.25, 9.76
49.255187, 4.020885, 0.00, -0.26, 1.27, 9.72
49.255187, 4.020885, 0.00, -0.15, 1.29, 9.78
49.255187, 4.020885, 0.00, -0.20, 1.30, 9.76
49.255187, 4.020885, 0.00, -0.22, 1.33, 9.78
49.255187, 4.020885, 0.00, -0.25, 1.25, 9.74
49.255187, 4.020885, 0.00, -0.23, 1.26, 9.77
49.255187, 4.020885, 0.00, -0.21, 1.31, 9.76
49.255187, 4.020885, 0.00, -0.24, 1.26, 9.74
49.255187, 4.020885, 0.00, -0.26, 1.28, 9.77
49.255187, 4.020885, 0.00, -0.20, 1.34, 9.85
49.255187, 4.020885, 0.00, -0.21, 1.39, 9.72
49.255187, 4.020885, 0.00, -0.18, 1.26, 9.85
49.255187, 4.020885, 0.00, -0.26, 1.34, 9.77
49.255187, 4.020885, 0.00, -0.24, 1.27, 9.76
49.255187, 4.020885, 0.00, -0.23, 1.27, 9.76
49.255187, 4.020885, 0.00, -0.26, 1.30, 9.75
49.255187, 4.020885, 0.00, -0.23, 1.27, 9.78
49.255187, 4.020885, 0.00, -0.20, 1.27, 9.81
49.255187, 4.020885, 0.00, -0.19, 1.27, 9.80
49.255187, 4.020885, 0.00, -0.25, 1.29, 9.77
49.255187, 4.020885, 0.00, -0.27, 1.28, 9.77
49.255187, 4.020885, 0.00, -0.23, 1.25, 9.77
49.255187, 4.020885, 0.00, -0.21, 1.28, 9.81
49.255187, 4.020885, 0.00, -0.19, 1.29, 9.77
49.255187, 4.020885, 0.00, -0.22, 1.31, 9.76
49.255187, 4.020885, 0.00, -0.23, 1.34, 9.80
49.255187, 4.020885, 0.00, -0.23, 1.19, 9.76
49.255187, 4.020885, 0.00, -0.20, 1.30, 9.76
49.255187, 4.020885, 0.00, -0.27, 1.18, 9.71
49.255187, 4.020885, 0.00, -0.22, 1.30, 9.79
49.255187, 4.020885, 0.00, -0.31, 1.19, 9.73
49.255187, 4.020885, 0.00, -0.27, 1.24, 9.70
49.255187, 4.020885, 0.00, -0.17, 1.32, 9.77
49.255187, 4.020885, 0.00, -0.23, 1.30, 9.70
49.255187, 4.020885, 0.00, -0.25, 1.31, 9.78
49.255187, 4.020885, 0.00, -0.26, 1.24, 9.76
49.255187, 4.020885, 0.00, -0.24, 1.27, 9.73
49.255187, 4.020885, 0.00, -0.23, 1.29, 9.75
49.255187, 4.020885, 0.00, -0.20, 1.26, 9.79
49.255187, 4.020885, 0.00, -0.27, 1.24, 9.72
49.255187, 4.020885, 0.00, -0.17, 1.32, 9.76
49.255187, 4.020885, 0.00, -0.25, 1.24, 9.74
49.255187, 4.020885, 0.00, -0.22, 1.28, 9.78
49.255187, 4.020885, 0.00, -0.18, 1.29, 9.85
49.255187, 4.020885, 0.00, -0.20, 1.35, 9.85
49.255187, 4.020885, 0.00, -0.27, 1.26, 9.76
49.255187, 4.020885, 0.00, -0.23, 1.29, 9.81
49.255187, 4.020885, 0.00, -0.19, 1.29, 9.80
49.255187, 4.020885, 0.00, -0.24, 1.27, 9.73
49.255187, 4.020885, 0.00, -0.28, 1.24, 9.76
49.255187, 4.020885, 0.00, -0.29, 1.24, 9.73
49.255187, 4.020885, 0.00, -0.29, 1.25, 9.67
49.255187, 4.020885, 0.00, -0.32, 1.24, 9.68
49.255187, 4.020885, 0.00, -0.17, 1.31, 9.82
49.255187, 4.020885, 0.00, -0.27, 1.24, 9.77
49.255187, 4.020885, 0.00, -0.18, 1.30, 9.81
49.255187, 4.020885, 0.00, -0.27, 1.16, 9.65
49.255187, 4.020885, 0.00, -0.24, 1.27, 9.66
49.255187, 4.020885, 0.00, -0.26, 1.25, 9.78
49.255187, 4.020885, 0.00, -0.25, 1.29, 9.69
49.255187, 4.020885, 0.00, -0.23, 1.26, 9.80
49.255187, 4.020885, 0.00, -0.27, 1.29, 9.74
49.255187, 4.020885, 0.00, -0.18, 1.28, 9.81
49.255187, 4.020885, 0.00, -0.21, 1.30, 9.84
49.255187, 4.020885, 0.00, -0.28, 1.27, 9.74
49.255187, 4.020885, 0.00, -0.22, 1.60, 9.73
49.255187, 4.020885, 0.00, -0.05, 1.41, 9.71
49.255187, 4.020885, 0.00, -0.27, 1.29, 9.79
49.255187, 4.020885, 0.00, -0.04, 1.72, 9.65
49.255187, 4.020885, 0.00, -0.17, 2.23, 9.63
49.255187, 4.020885, 0.00, -0.19, 2.36, 9.83
49.255187, 4.020885, 0.00, -0.30, 2.46, 9.39
49.255196, 4.020892, 0.87, -0.15, 2.15, 9.73
49.255196, 4.020892, 0.87, -0.13, 2.33, 9.10
49.255210, 4.020909, 2.46, 0.10, 2.28, 9.56
49.255210, 4.020909, 2.46, 0.20, 2.05, 9.19
49.255234, 4.020933, 3.17, -0.24, 1.99, 11.04
49.255234, 4.020933, 3.17, -0.82, 2.03, 9.72
49.255259, 4.020965, 3.63, -1.35, 1.73, 9.47
49.255292, 4.021002, 4.29, -1.84, 1.65, 10.00
49.255292, 4.021002, 4.29, -2.25, 1.62, 9.38
49.255337, 4.021031, 5.06, -1.75, 1.68, 9.77
49.255337, 4.021031, 5.06, -2.33, 1.70, 9.28
49.255385, 4.021038, 5.32, -2.49, 1.64, 9.30
49.255385, 4.021038, 5.32, -2.41, 1.80, 10.01
49.255440, 4.021018, 6.21, -1.60, 1.81, 10.32
49.255440, 4.021018, 6.21, -0.64, 1.99, 10.65
49.255493, 4.020965, 6.76, -1.45, 1.55, 10.58
49.255493, 4.020965, 6.76, -1.05, 1.94, 10.56
49.255547, 4.020898, 7.54, -0.47, 1.88, 10.17
49.255547, 4.020898, 7.54, -0.47, 1.24, 9.55
49.255598, 4.020832, 7.58, 0.08, 2.54, 10.88
49.255598, 4.020832, 7.58, -1.16, 1.74, 10.94
49.255655, 4.020762, 8.20, -0.17, 1.29, 11.60
49.255655, 4.020762, 8.20, -1.73, 2.13, 9.95
49.255714, 4.020693, 8.28, -1.22, 1.60, 9.14
49.255714, 4.020693, 8.28, -0.86, 2.09, 10.60
49.255778, 4.020624, 8.42, -0.99, 1.79, 9.64
49.255778, 4.020624, 8.42, -0.53, 2.05, 9.13
49.255846, 4.020551, 9.39, -1.00, 1.54, 8.38
49.255846, 4.020551, 9.39, -1.19, 1.96, 9.93
49.255920, 4.020474, 9.75, 0.52, 1.96, 10.37
49.255920, 4.020474, 9.75, -2.42, -0.46, 8.83
49.255995, 4.020397, 9.51, -1.64, 0.31, 10.44
49.255995, 4.020397, 9.51, -1.11, 0.55, 10.05
49.256072, 4.020323, 10.01, -0.16, 0.60, 11.43
49.256072, 4.020323, 10.01, -0.71, 1.05, 8.62
49.256072, 4.020323, 10.01, -1.16, 0.22, 9.55
49.256072, 4.020323, 10.01, -0.85, 1.26, 9.82
49.256072, 4.020323, 10.01, -0.44, 0.68, 9.71
49.256072, 4.020323, 10.01, -0.80, 0.43, 8.44
49.256307, 4.020143, 9.29, 0.12, 0.04, 9.78
49.256307, 4.020143, 9.29, -1.19, -0.07, 9.85
49.256359, 4.020090, 7.27, -0.91, 0.90, 9.88
49.256359, 4.020090, 7.27, -0.57, 0.31, 10.42
49.256431, 4.020040, 6.29, -0.16, 0.27, 10.62
49.256431, 4.020040, 6.29, 0.40, 0.52, 10.43
49.256481, 4.020010, 5.07, 1.13, 0.31, 9.70
49.256481, 4.020010, 5.07, 1.03, 0.09, 9.06
49.256516, 4.019995, 3.92, 1.02, 1.34, 9.91
49.256547, 4.020011, 3.93, 1.14, 1.23, 9.62
49.256547, 4.020011, 3.93, 1.74, 1.63, 9.29
49.256574, 4.020062, 4.44, 0.81, 1.88, 9.82
49.256574, 4.020062, 4.44, 0.07, 1.70, 9.69
49.256602, 4.020128, 5.30, 0.11, 1.64, 11.40
49.256602, 4.020128, 5.30, -0.94, 1.24, 10.56
49.256624, 4.020206, 5.84, 1.16, 1.48, 10.21
49.256624, 4.020206, 5.84, -0.06, 1.47, 8.36
49.256652, 4.020289, 6.01, -0.17, 0.73, 9.58
49.256652, 4.020289, 6.01, -0.30, 0.24, 10.63
49.256681, 4.020372, 5.96, -0.80, 1.53, 13.58
49.256681, 4.020372, 5.96, -0.70, 0.51, 11.23
49.256707, 4.020444, 5.29, -1.26, 0.68, 10.73
49.256707, 4.020444, 5.29, -1.43, 1.05, 9.69
49.256728, 4.020506, 4.80, 0.03, 0.72, 10.45
49.256728, 4.020506, 4.80, -0.22, 1.63, 11.28
49.256748, 4.020566, 4.77, 0.18, 1.81, 9.64
49.256748, 4.020566, 4.77, -0.19, 1.50, 9.98
49.256766, 4.020632, 5.09, -0.23, 1.73, 9.23
49.256766, 4.020632, 5.09, -0.40, 1.86, 10.11
49.256793, 4.020699, 5.57, -0.56, 1.64, 9.97
49.256793, 4.020699, 5.57, -0.02, 1.47, 9.58
49.256819, 4.020774, 5.96, -0.89, 1.20, 9.25
49.256819, 4.020774, 5.96, -1.23, 1.50, 11.02
49.256848, 4.020850, 5.94, -0.90, 1.71, 10.16
49.256848, 4.020850, 5.94, -0.91, 1.25, 9.07
49.256879, 4.020917, 5.70, -1.14, 1.37, 8.76
49.256879, 4.020917, 5.70, -0.78, 1.02, 10.24
49.256916, 4.020985, 6.16, -0.45, 1.22, 9.98
49.256916, 4.020985, 6.16, -0.94, 0.76, 8.53
49.256954, 4.021038, 5.93, -0.50, 0.75, 9.88
49.256954, 4.021038, 5.93, -0.42, 0.68, 9.51
49.256988, 4.021091, 5.21, -0.24, 1.05, 9.91
49.256988, 4.021091, 5.21, -0.19, 0.52, 11.08
49.257019, 4.021139, 4.83, -0.86, 0.71, 9.15
49.257019, 4.021139, 4.83, -0.39, 1.58, 7.35
49.257045, 4.021179, 4.29, -0.90, 1.37, 8.07
49.257045, 4.021179, 4.29, -0.34, 1.62, 9.83
49.257072, 4.021220, 3.93, -0.11, 2.00, 8.65
49.257101, 4.021258, 4.15, -0.22, 1.42, 9.21
49.257101, 4.021258, 4.15, -0.39, 1.65, 9.69
49.257133, 4.021296, 4.61, -0.43, 1.67, 9.99
49.257133, 4.021296, 4.61, -0.43, 1.87, 9.73
49.257168, 4.021337, 4.87, -0.68, 1.83, 9.17
49.257168, 4.021337, 4.87, -0.10, 1.49, 10.03
49.257205, 4.021380, 5.16, -0.25, 1.35, 10.05
49.257205, 4.021380, 5.16, 0.37, 1.83, 8.74
49.257239, 4.021428, 4.96, 0.65, 1.44, 9.16
49.257239, 4.021428, 4.96, -0.60, 1.09, 9.47
49.257272, 4.021473, 4.70, -0.53, 0.57, 9.65
49.257272, 4.021473, 4.70, -0.34, 0.84, 8.92
49.257299, 4.021513, 4.14, -0.68, 0.79, 9.20
49.257299, 4.021513, 4.14, 0.05, 1.15, 10.20
49.257324, 4.021548, 3.79, -0.29, 1.25, 9.90
49.257324, 4.021548, 3.79, -0.11, 0.87, 9.81
49.257347, 4.021581, 3.49, -0.59, 0.34, 9.93
49.257347, 4.021581, 3.49, -0.50, 0.42, 9.49
49.257367, 4.021609, 2.57, -0.34, 0.34, 9.83
49.257367, 4.021609, 2.57, -0.29, 0.50, 9.89
49.257381, 4.021627, 1.56, -0.67, 0.64, 10.02
49.257381, 4.021627, 1.56, -0.31, 0.70, 9.96
49.257393, 4.021638, 0.82, -0.25, 1.05, 9.96
49.257393, 4.021638, 0.82, -0.25, 1.24, 9.59
49.257393, 4.021638, 0.00, -0.12, 1.15, 9.84
49.257393, 4.021638, 0.00, -0.04, 0.91, 9.86
49.257393, 4.021638, 0.00, -0.16, 0.89, 9.70
49.257393, 4.021638, 0.00, -0.12, 1.44, 9.79
49.257393, 4.021638, 0.00, -0.17, 1.36, 9.81
49.257393, 4.021638, 0.00, -0.17, 1.34, 9.77
49.257393, 4.021638, 0.00, -0.11, 1.38, 9.80
49.257393, 4.021638, 0.00, -0.16, 1.37, 9.78
49.257393, 4.021638, 0.00, -0.15, 1.36, 9.73
49.257393, 4.021638, 0.00, -0.15, 1.37, 9.75
49.257393, 4.021638, 0.00, -0.14, 1.38, 9.76
49.257393, 4.021638, 0.00, -0.18, 1.34, 9.73
49.257393, 4.021638, 0.00, -0.23, 1.75, 9.72
49.257393, 4.021638, 0.00, -0.20, 1.66, 9.59
49.257393, 4.021638, 0.00, -0.08, 1.79, 9.47
49.257393, 4.021638, 0.00, -0.11, 2.33, 9.59
49.257393, 4.021638, 0.00, -0.12, 2.16, 9.59
49.257409, 4.021659, 1.12, -0.33, 2.15, 9.76
49.257409, 4.021659, 1.12, 0.08, 2.38, 9.45
49.257420, 4.021673, 2.27, 0.34, 1.99, 9.73
49.257420, 4.021673, 2.27, 0.06, 2.14, 9.38
49.257440, 4.021694, 3.02, 0.33, 2.40, 8.16
49.257440, 4.021694, 3.02, -0.05, 2.24, 10.00
49.257465, 4.021726, 3.58, 0.34, 1.95, 9.77
49.257465, 4.021726, 3.58, 0.10, 1.95, 8.87
49.257491, 4.021758, 3.85, -0.40, 1.49, 9.87
49.257491, 4.021758, 3.85, -0.99, 1.12, 9.99
49.257518, 4.021790, 3.91, -0.44, 1.57, 10.03
49.257518, 4.021790, 3.91, 0.28, 1.75, 8.88
49.257547, 4.021824, 4.21, -0.58, 1.88, 8.78
49.257547, 4.021824, 4.21, -0.88, 1.95, 9.78
49.257581, 4.021860, 4.41, -0.80, 2.04, 10.18
49.257581, 4.021860, 4.41, -1.64, 2.08, 10.12
49.257618, 4.021887, 4.54, -2.02, 2.10, 8.37
49.257618, 4.021887, 4.54, -1.48, 2.47, 9.65
49.257663, 4.021909, 5.12, -1.26, 2.61, 9.58
49.257663, 4.021909, 5.12, -1.23, 2.13, 9.74
49.257719, 4.021899, 6.03, -0.54, 1.81, 8.74
49.257719, 4.021899, 6.03, -0.61, 2.45, 10.47
49.257779, 4.021865, 7.12, 0.79, 2.23, 11.31
49.257779, 4.021865, 7.12, -0.88, 1.93, 9.76
49.257845, 4.021830, 7.52, 0.54, 2.09, 11.07
49.257845, 4.021830, 7.52, 0.31, 2.09, 9.87
49.257921, 4.021795, 8.54, -0.40, 2.31, 9.39
49.257921, 4.021795, 8.54, -1.00, 1.86, 10.84
49.258003, 4.021771, 8.95, 0.05, 2.06, 8.15
49.258003, 4.021771, 8.95, 0.22, 2.11, 10.01
49.258092, 4.021771, 9.64, 0.17, 1.50, 10.10
49.258092, 4.021771, 9.64, -1.33, 1.63, 9.65
49.258176, 4.021787, 9.45, -1.54, 1.85, 10.87
49.258176, 4.021787, 9.45, 0.52, 2.47, 10.53
49.258276, 4.021810, 10.77, -0.82, 2.31, 9.52
49.258276, 4.021810, 10.77, -0.49, 1.93, 10.79
49.258392, 4.021839, 12.07, 0.56, -0.08, 10.58
49.258392, 4.021839, 12.07, -0.52, 0.53, 9.71
49.258509, 4.021865, 11.73, 1.07, 1.24, 9.95
49.258509, 4.021865, 11.73, -0.37, 1.01, 7.64
49.258621, 4.021893, 11.06, 0.58, 0.64, 11.13
49.258621, 4.021893, 11.06, 1.05, 1.37, 9.01
49.258730, 4.021927, 11.07, 0.89, 1.51, 9.90
49.258839, 4.021964, 10.65, 1.07, 1.63, 9.68
49.258839, 4.021964, 10.65, 0.83, 0.87, 9.42
49.258941, 4.022002, 10.27, 1.08, 0.97, 9.44
49.258941, 4.022002, 10.27, 0.40, 1.67, 9.50
49.259034, 4.022057, 10.30, 0.67, 0.91, 9.66
49.259034, 4.022057, 10.30, 0.13, 0.70, 11.57
49.259123, 4.022117, 10.06, 0.43, 1.19, 9.73
49.259123, 4.022117, 10.06, -0.04, 0.52, 10.39
49.259206, 4.022177, 9.37, -1.58, -0.73, 7.86
49.259206, 4.022177, 9.37, 0.15, 1.35, 6.28
49.259284, 4.022236, 8.85, -1.06, 0.90, 9.84
49.259284, 4.022236, 8.85, -0.37, 1.18, 9.80
49.259357, 4.022295, 8.54, -0.95, 0.09, 9.47
49.259357, 4.022295, 8.54, -0.32, 0.14, 10.66
49.259418, 4.022359, 7.39, -0.90, -0.50, 10.14
49.259418, 4.022359, 7.39, -0.29, -0.24, 10.10
49.259470, 4.022412, 5.89, 0.28, 0.49, 9.87
49.259470, 4.022412, 5.89, -0.38, 1.20, 9.61
49.259513, 4.022450, 4.73, -0.04, 0.68, 10.12
49.259513, 4.022450, 4.73, -0.83, 0.83, 9.83
49.259550, 4.022486, 4.39, -0.24, 1.29, 9.74
49.259550, 4.022486, 4.39, 0.13, 1.32, 9.47
49.259582, 4.022519, 3.84, 0.07, 1.82, 9.37
49.259582, 4.022519, 3.84, -0.19, 1.84, 9.25
49.259614, 4.022550, 4.16, -0.24, 1.78, 9.84
49.259614, 4.022550, 4.16, -1.63, 1.74, 10.20
49.259646, 4.022586, 4.73, -1.66, 1.61, 9.34
49.259646, 4.022586, 4.73, -2.22, 1.99, 9.42
49.259685, 4.022624, 5.38, -2.38, 1.52, 9.96
49.259685, 4.022624, 5.38, -2.68, 1.68, 9.99
49.259726, 4.022657, 5.59, -2.19, 1.36, 9.21
49.259726, 4.022657, 5.59, -2.43, 1.64, 9.03
49.259769, 4.022717, 6.30, -1.46, 1.55, 9.16
49.259769, 4.022717, 6.30, -1.00, 1.06, 9.22
49.259819, 4.022719, 6.56, -1.25, 0.59, 9.77
49.259819, 4.022719, 6.56, -0.82, 1.48, 10.11
49.259867, 4.022699, 6.29, -1.42, 1.35, 8.68
49.259867, 4.022699, 6.29, -0.77, 1.58, 9.81
49.259914, 4.022671, 6.49, -0.57, 2.00, 9.86
49.259970, 4.022642, 6.99, -0.82, 1.64, 8.72
49.259970, 4.022642, 6.99, -0.85, 1.07, 10.01
49.260026, 4.022614, 6.79, -0.86, 1.05, 10.17
49.260026, 4.022614, 6.79, -1.17, 0.77, 8.91
49.260078, 4.022583, 6.06, -1.17, 0.94, 10.07
49.260078, 4.022583, 6.06, -0.56, 0.77, 10.30
49.260129, 4.022553, 5.72, -0.58, 0.98, 9.21
49.260129, 4.022553, 5.72, -0.42, 1.07, 9.50
49.260178, 4.022523, 5.00, -0.24, 0.35, 11.10
49.260178, 4.022523, 5.00, -0.20, 0.79, 9.73
49.260219, 4.022496, 4.47, 1.33, 0.98, 9.90
49.260219, 4.022496, 4.47, 1.67, 0.61, 9.60
49.260255, 4.022475, 3.72, 1.92, 1.05, 8.83
49.260255, 4.022475, 3.72, 1.70, 1.66, 9.44
49.260282, 4.022468, 1.97, 1.74, 2.52, 9.39
49.260282, 4.022468, 1.97, 0.24, 2.39, 9.12
49.260300, 4.022472, 1.38, 0.96, 2.46, 10.31
49.260300, 4.022472, 1.38, 0.30, 2.03, 8.90
49.260329, 4.022493, 2.77, -0.78, 2.60, 9.47
49.260329, 4.022493, 2.77, -1.08, 2.64, 9.59
49.260359, 4.022558, 4.72, -0.19, 2.63, 8.14
49.260359, 4.022558, 4.72, -0.69, 2.01, 9.42
49.260405, 4.022663, 5.32, -0.20, 3.07, 9.78
49.260405, 4.022663, 5.32, -1.32, 2.56, 7.75
49.260479, 4.022823, 7.58, -1.40, 1.12, 9.88
49.260479, 4.022823, 7.58, -1.16, 1.33, 7.53
49.260560, 4.022955, 8.86, -1.93, 1.95, 8.35
49.260560, 4.022955, 8.86, 0.31, 2.22, 11.13
49.260645, 4.023088, 10.32, -0.95, 2.08, 10.55
49.260645, 4.023088, 10.32, -0.54, 1.45, 10.21
49.260732, 4.023233, 10.89, -0.17, 0.80, 10.04
49.260732, 4.023233, 10.89, -1.81, 1.08, 8.81
49.260818, 4.023384, 11.89, -0.91, 1.36, 9.96
49.260818, 4.023384, 11.89, -2.51, 0.33, 7.45
49.260905, 4.023528, 11.97, -0.18, 1.04, 8.87
49.260905, 4.023528, 11.97, -0.78, 1.55, 11.81
49.260982, 4.023670, 11.68, 0.28, 1.09, 8.29
49.260982, 4.023670, 11.68, -1.28, 2.20, 9.65
49.261053, 4.023804, 11.42, -0.41, 0.87, 9.64
49.261053, 4.023804, 11.42, -0.66, 1.40, 9.39
49.261123, 4.023934, 11.47, 0.07, 0.41, 11.08
49.261191, 4.024060, 11.17, -0.54, 0.85, 10.29
49.261191, 4.024060, 11.17, -1.68, 0.85, 11.22
49.261253, 4.024192, 10.86, 0.44, -0.02, 8.91
49.261253, 4.024192, 10.86, -0.59, 0.45, 11.56
49.261318, 4.024318, 10.30, 0.50, 0.70, 11.36
49.261318, 4.024318, 10.30, -0.29, -0.33, 10.68
49.261382, 4.024433, 9.61, -0.73, 0.78, 9.34
49.261382, 4.024433, 9.61, -1.00, 0.36, 10.62
49.261440, 4.024553, 9.04, -0.41, 0.72, 10.68
49.261440, 4.024553, 9.04, -0.08, 0.46, 9.15
49.261488, 4.024652, 7.86, -0.50, 1.07, 10.32
49.261488, 4.024652, 7.86, -1.11, -0.15, 9.30
49.261524, 4.024728, 6.79, -1.12, 0.60, 10.28
49.261524, 4.024728, 6.79, -1.11, -0.18, 10.79
49.261556, 4.024792, 5.76, -1.84, 0.47, 9.45
49.261556, 4.024792, 5.76, -2.93, -0.14, 10.22
49.261587, 4.024861, 5.00, -2.66, 0.15, 9.50
49.261587, 4.024861, 5.00, -2.73, 0.63, 9.53
49.261616, 4.024907, 4.24, -2.53, 1.18, 9.34
49.261616, 4.024907, 4.24, -2.39, 1.62, 10.30
49.261652, 4.024909, 4.13, -3.21, 1.81, 9.56
49.261652, 4.024909, 4.13, -3.30, 1.45, 8.80
49.261690, 4.024867, 5.02, -2.26, 1.91, 10.58
49.261690, 4.024867, 5.02, -1.56, 1.24, 8.83
49.261721, 4.024803, 4.99, -2.60, 1.85, 7.50
49.261721, 4.024803, 4.99, -2.02, 2.79, 8.42
49.261743, 4.024721, 6.25, -1.49, 2.20, 10.04
49.261743, 4.024721, 6.25, -1.07, 0.80, 11.57
49.261756, 4.024629, 6.56, -0.25, 2.88, 8.83
49.261756, 4.024629, 6.56, -0.59, 2.60, 7.98
49.261768, 4.024528, 7.42, -0.79, 2.15, 8.58
49.261768, 4.024528, 7.42, 0.64, 2.29, 9.72
49.261787, 4.024414, 8.25, -0.51, 1.88, 10.47
49.261787, 4.024414, 8.25, -0.13, 1.52, 11.33
49.261811, 4.024295, 8.76, -0.23, 0.57, 9.65
49.261811, 4.024295, 8.76, -1.76, 1.54, 10.16
49.261842, 4.024175, 8.92, 0.12, 1.33, 8.92
49.261842, 4.024175, 8.92, 0.27, 1.30, 11.88
49.261869, 4.024047, 9.28, 0.44, 1.05, 7.84
49.261869, 4.024047, 9.28, -1.41, 0.58, 8.09
49.261892, 4.023919, 9.12, -1.32, -1.42, 8.92
49.261892, 4.023919, 9.12, -1.10, 0.41, 9.97
49.261911, 4.023787, 8.68, -1.01, 0.04, 9.62
49.261926, 4.023670, 7.55, -1.18, 0.85, 9.25
49.261926, 4.023670, 7.55, -0.27, 0.69, 10.85
49.261936, 4.023573, 6.91, -0.78, 0.46, 11.01
49.261936, 4.023573, 6.91, -0.79, 0.31, 9.17
49.261948, 4.023483, 6.21, -0.89, -0.02, 9.21
49.261948, 4.023483, 6.21, -0.78, 1.25, 10.56
49.261956, 4.023393, 5.73, -0.53, 0.79, 9.38
49.261956, 4.023393, 5.73, -1.20, 1.27, 10.41
49.261962, 4.023308, 5.40, -0.61, 1.29, 9.58
49.261962, 4.023308, 5.40, -0.66, 0.50, 9.82
49.261970, 4.023234, 5.10, -0.50, 1.05, 9.89
49.261970, 4.023234, 5.10, -0.95, 0.79, 10.64
49.261979, 4.023165, 4.98, -0.65, 0.64, 9.36
49.261979, 4.023165, 4.98, -1.26, 0.83, 9.70
49.261989, 4.023097, 4.48, -0.57, 0.55, 10.29
49.261989, 4.023097, 4.48, -0.54, -0.07, 9.74
49.261992, 4.023033, 3.73, -1.22, 0.41, 10.21
49.261992, 4.023033, 3.73, -1.08, 0.17, 9.24
49.261994, 4.022984, 2.69, -1.60, 0.06, 10.02
49.261994, 4.022984, 2.69, -1.32, 0.39, 9.50
49.261994, 4.022949, 1.71, -0.78, 0.78, 9.53
49.261994, 4.022949, 1.71, -0.50, 0.25, 9.74
49.261994, 4.022949, 0.00, -0.20, -0.14, 9.82
49.261994, 4.022949, 0.00, 0.17, 0.11, 9.83
49.261994, 4.022949, 0.00, -0.23, 0.29, 9.83
49.261994, 4.022949, 0.00, -0.33, 1.03, 9.71
49.261994, 4.022949, 0.00, -0.33, 1.61, 9.74
49.261994, 4.022949, 0.00, -0.38, 1.35, 9.71
