Location-lat,Location-long,Speed,Accelerometer-X,Accelerometer-Y,Accelerometer-Z
50.273958,2.971472,33.97,-1.25,1.16,9.7
50.273958,2.971472,33.97,0.22,1.08,9.28
50.273739,2.971807,33.98,-1.63,1.03,9.68
50.273739,2.971807,33.98,-0.75,0.42,11.56
50.273519,2.972139,33.98,-0.23,-0.06,8.77
50.273519,2.972139,33.98,-0.19,1.14,9.99
50.273296,2.972464,34.02,-0.54,1.38,11.59
50.273296,2.972464,34.02,-0.49,1.19,9.65
50.273079,2.97279,33.99,0.35,1.32,9.24
50.273079,2.97279,33.99,-0.7,1.84,8.61
50.272862,2.973129,34.06,-1.65,1.17,8.41
50.272862,2.973129,34.06,-1.13,1.08,8.64
50.272649,2.973471,34.21,-0.58,1.19,9.39
50.272649,2.973471,34.21,0.03,0.63,10.07
50.272434,2.973818,34.25,-1.39,1.05,10.48
50.272434,2.973818,34.25,-0.68,1.49,9.59
50.272221,2.974172,34.35,-0.85,1.41,9.99
50.27201,2.974525,34.45,-1.21,1.67,10.08
50.27201,2.974525,34.45,-0.71,1.18,8.85
50.271794,2.97488,34.59,-1.03,0.36,8.8
50.271794,2.97488,34.59,-1.54,1.63,8.92
50.271584,2.975239,34.73,-1.23,1.63,9.58
50.271584,2.975239,34.73,-2.65,0.48,10.37
50.271369,2.975607,34.9,-1.92,1.9,10.05
50.271369,2.975607,34.9,-0.64,1.49,9.52
50.271161,2.975976,35.01,-0.79,0.66,9.91
50.271161,2.975976,35.01,0.33,0.33,9.1
50.270957,2.976353,35.11,-0.2,1.03,10.77
50.270957,2.976353,35.11,0.11,0.51,10.15
50.270755,2.976731,35.1,-0.34,0.88,10.11
50.270755,2.976731,35.1,-0.95,1.02,8.15
50.270555,2.977104,34.59,-0.45,1.44,10.81
50.270555,2.977104,34.59,-1.15,1.85,11.58
50.270358,2.977471,34.14,-0.23,0.82,9.71
50.270358,2.977471,34.14,-1.13,1.06,8.51
50.270166,2.977843,34.03,-0.2,1.43,11.48
50.270166,2.977843,34.03,-0.87,1.44,8.54
50.269982,2.978217,34.02,-1.83,0.91,8.91
50.269982,2.978217,34.02,-0.88,1.54,10.74
50.269797,2.978591,34.09,-0.59,0.58,10.9
50.269797,2.978591,34.09,-1.56,2.32,10.84
50.269614,2.978968,34.15,-0.92,0.67,12.61
50.269614,2.978968,34.15,-0.43,0.57,8.35
50.269435,2.979347,34.04,-1.62,1.84,10.67
50.269435,2.979347,34.04,-0.69,1.43,9.86
50.269251,2.979729,33.92,0.48,1.23,11.06
50.269251,2.979729,33.92,0.08,1.13,10.85
50.269069,2.980119,33.72,-0.51,0.5,9.53
50.269069,2.980119,33.72,-0.61,1.29,8.58
50.268891,2.980497,33.59,-1.18,1.52,9.79
50.268891,2.980497,33.59,-1.27,1.36,11.63
50.268718,2.980881,33.48,-0.2,1.37,9.68
50.268718,2.980881,33.48,-1.29,1.34,7.75
50.268545,2.981265,33.4,-0.15,1.29,9.07
50.268545,2.981265,33.4,-1.0,1.9,10.65
50.268379,2.981651,33.38,-0.05,0.97,9.33
50.268379,2.981651,33.38,-0.3,0.81,10.81
50.268215,2.982042,33.19,-0.38,1.12,9.39
50.268215,2.982042,33.19,-0.06,0.48,8.13
50.268043,2.982421,33.1,-0.34,1.4,10.97
50.267878,2.982801,32.99,-0.74,0.92,8.97
50.267878,2.982801,32.99,-0.24,0.58,10.11
50.267716,2.983181,32.97,0.26,1.09,10.84
50.267716,2.983181,32.97,-0.27,1.97,8.32
50.267554,2.983566,32.82,-0.06,1.03,8.93
50.267554,2.983566,32.82,0.61,0.78,10.93
50.267394,2.983954,32.73,-1.72,1.93,10.0
50.267394,2.983954,32.73,-1.67,0.23,9.34
50.267235,2.98434,32.7,-1.48,1.08,9.62
50.267235,2.98434,32.7,-1.03,0.57,10.16
50.267076,2.984731,32.58,-1.32,1.13,10.46
50.267076,2.984731,32.58,-0.36,1.89,8.51
50.266922,2.985124,32.52,-1.1,1.45,8.22
50.266922,2.985124,32.52,-0.25,0.96,11.28
50.266765,2.985506,32.43,-1.8,1.64,10.14
50.266765,2.985506,32.43,-1.66,0.99,7.87
50.266609,2.985893,32.41,-1.66,1.15,10.09
50.266609,2.985893,32.41,-0.72,1.82,8.63
50.26645,2.986279,32.47,0.23,1.05,11.09
50.26645,2.986279,32.47,-0.45,1.09,10.45
50.266296,2.98667,32.53,-1.64,1.47,9.36
50.266296,2.98667,32.53,-1.17,1.92,8.75
50.266143,2.987065,32.66,0.57,0.63,9.52
50.266143,2.987065,32.66,-0.49,1.29,11.2
50.265984,2.987455,32.71,-0.43,1.26,9.9
50.265984,2.987455,32.71,-0.83,1.54,9.44
50.265828,2.987849,32.89,-0.79,2.14,10.05
50.265828,2.987849,32.89,-1.7,2.7,10.93
50.265674,2.988239,33.0,-2.08,1.24,8.57
50.265674,2.988239,33.0,0.15,3.11,11.04
50.265521,2.988635,33.18,0.57,1.41,8.58
50.265521,2.988635,33.18,-0.7,0.75,9.42
50.265366,2.989032,33.26,-0.88,0.72,9.88
50.265366,2.989032,33.26,-1.49,2.12,10.55
50.265213,2.989434,33.47,-0.92,2.37,10.09
50.265057,2.989839,33.7,-1.59,1.29,9.86
50.265057,2.989839,33.7,-0.48,1.44,8.45
50.264895,2.990248,33.86,-0.79,1.3,11.32
50.264895,2.990248,33.86,1.72,1.08,9.7
50.264736,2.990656,33.94,-0.13,1.16,8.82
50.264736,2.990656,33.94,-0.21,1.1,10.36
50.264577,2.991061,33.87,-1.86,0.95,8.86
50.264577,2.991061,33.87,0.37,1.81,9.17
50.26442,2.991462,33.86,0.56,0.47,10.04
50.26442,2.991462,33.86,0.63,1.24,10.54
50.26426,2.991866,33.78,0.17,1.97,12.2
50.26426,2.991866,33.78,0.7,0.81,9.87
50.264102,2.992267,33.69,-1.02,1.85,10.26
50.264102,2.992267,33.69,-0.33,0.46,9.51
50.263942,2.992672,33.64,-0.79,2.2,10.22
50.263942,2.992672,33.64,0.02,1.55,7.56
50.263784,2.993073,33.6,-0.78,1.4,10.23
50.263784,2.993073,33.6,-1.94,1.1,7.5
50.26363,2.99348,33.59,-2.05,1.95,10.43
50.26363,2.99348,33.59,0.14,0.63,10.98
50.263474,2.993885,33.57,-0.27,1.12,9.66
50.263474,2.993885,33.57,0.23,1.16,9.09
50.263318,2.994289,33.55,0.28,1.44,9.72
50.263318,2.994289,33.55,0.05,1.22,12.38
50.263163,2.994692,33.61,-0.44,2.61,10.14
50.263163,2.994692,33.61,-1.5,1.12,9.89
50.26301,2.9951,33.62,-0.69,1.86,8.95
50.26301,2.9951,33.62,-0.51,1.82,10.64
50.262855,2.995503,33.63,-0.92,0.93,8.81
50.262855,2.995503,33.63,-1.24,1.92,11.83
50.262696,2.995904,33.61,0.71,1.26,8.71
50.262696,2.995904,33.61,-0.62,1.79,12.8
50.262538,2.996305,33.72,-0.18,1.73,7.93
50.262538,2.996305,33.72,-0.85,1.6,8.82
50.262379,2.996707,33.63,-1.22,1.14,11.39
50.262379,2.996707,33.63,-0.96,2.06,9.78
50.26222,2.997104,33.66,-0.71,1.15,11.16
50.26222,2.997104,33.66,-0.81,1.39,8.53
50.26206,2.997503,33.61,-1.02,1.2,10.99
50.261904,2.997908,33.68,-1.02,1.32,9.71
50.261904,2.997908,33.68,-0.21,0.82,10.72
50.261743,2.998309,33.73,-0.51,1.43,8.97
50.261743,2.998309,33.73,-0.63,1.85,11.52
50.261584,2.998714,33.72,0.49,1.23,9.66
50.261584,2.998714,33.72,0.76,2.19,10.0
50.261427,2.999119,33.72,-0.52,-0.1,9.79
50.261427,2.999119,33.72,-0.35,2.48,11.18
50.261269,2.999522,33.74,1.18,0.33,11.2
50.261269,2.999522,33.74,0.18,1.49,9.99
50.261112,2.999922,33.69,1.42,0.69,9.99
50.261112,2.999922,33.69,-0.16,1.0,9.95
50.260952,3.000325,33.7,0.45,2.35,10.99
50.260952,3.000325,33.7,1.71,0.21,9.14
50.260791,3.000729,33.69,0.25,2.55,10.71
50.260791,3.000729,33.69,0.28,0.91,9.07
50.260627,3.001129,33.72,-0.01,1.9,9.66
50.260627,3.001129,33.72,0.91,0.83,11.19
50.260464,3.001523,33.74,-0.74,1.35,8.88
50.260464,3.001523,33.74,-0.85,2.32,11.39
50.260299,3.00192,33.76,0.13,0.59,10.9
50.260299,3.00192,33.76,0.5,2.78,9.97
50.260135,3.002311,33.68,0.48,1.05,10.29
50.260135,3.002311,33.68,-0.69,2.11,9.34
50.259973,3.002705,33.9,-0.84,1.33,12.1
50.259973,3.002705,33.9,1.07,1.07,8.74
50.259805,3.003102,34.02,-0.48,1.25,10.1
50.259805,3.003102,34.02,-0.23,0.52,10.26
50.259639,3.003507,34.02,0.51,0.76,9.6
50.259639,3.003507,34.02,0.08,1.72,8.53
50.259474,3.003916,34.07,-0.25,0.78,10.32
50.259474,3.003916,34.07,-0.41,0.91,9.3
50.259305,3.004318,34.01,-0.82,1.41,9.5
50.259305,3.004318,34.01,-0.03,2.49,9.14
50.259131,3.004712,33.93,-1.42,0.57,8.94
50.259131,3.004712,33.93,0.72,2.17,9.09
50.258961,3.005105,33.89,-1.21,0.86,8.86
50.258961,3.005105,33.89,-1.06,1.9,10.05
50.258786,3.005489,33.76,0.29,2.42,11.28
50.258786,3.005489,33.76,1.62,0.63,10.3
50.258609,3.005874,33.81,0.43,1.89,10.49
50.258435,3.006254,33.82,0.11,0.17,8.15
50.258435,3.006254,33.82,-0.26,0.94,9.11
50.258255,3.006632,33.83,0.08,0.67,9.21
50.258255,3.006632,33.83,-1.39,1.46,8.78
50.258073,3.007014,33.87,-0.46,2.07,9.28
50.258073,3.007014,33.87,1.07,-0.11,8.85
50.257893,3.007396,33.95,0.68,0.81,10.59
50.257893,3.007396,33.95,-0.14,2.57,10.48
50.257703,3.007774,34.11,-0.07,1.33,8.06
50.257703,3.007774,34.11,0.08,1.19,10.01
50.257509,3.008149,34.17,-0.66,2.99,10.34
50.257509,3.008149,34.17,0.76,0.33,7.8
50.257315,3.008523,34.32,-0.04,1.81,9.55
50.257315,3.008523,34.32,-0.96,1.65,10.75
50.257126,3.0089,34.38,-0.18,1.11,11.41
50.257126,3.0089,34.38,1.07,1.28,8.82
50.256932,3.009275,34.41,1.51,0.13,8.91
50.256932,3.009275,34.41,0.11,0.66,9.14
50.256734,3.009649,34.45,0.32,2.14,9.34
50.256734,3.009649,34.45,-1.37,1.09,9.92
50.256536,3.010027,34.45,-0.62,0.2,11.14
50.256536,3.010027,34.45,-0.28,0.61,7.94
50.256335,3.010395,34.44,0.25,2.08,11.34
50.256335,3.010395,34.44,-0.61,0.51,10.54
50.256129,3.010751,33.74,0.93,-0.09,8.75
50.256129,3.010751,33.74,-0.77,0.13,8.99
50.255929,3.011096,33.27,0.17,1.72,8.88
50.255929,3.011096,33.27,0.08,0.82,8.82
50.255729,3.011441,33.07,-0.69,1.26,10.76
50.255729,3.011441,33.07,-1.2,1.1,7.25
50.255526,3.011778,32.97,-0.16,0.81,12.77
50.255526,3.011778,32.97,-1.06,1.59,10.51
50.255319,3.012117,33.02,-0.4,2.15,9.86
50.255319,3.012117,33.02,-1.39,0.92,11.53
50.255111,3.012446,33.03,-0.51,2.53,10.56
50.255111,3.012446,33.03,-0.58,0.96,9.85
50.254905,3.012779,32.98,-0.24,2.03,10.21
50.254905,3.012779,32.98,0.61,1.12,9.11
50.2547,3.013105,32.9,-1.81,1.33,9.05
50.254487,3.013429,32.86,-0.25,0.62,10.12
50.254487,3.013429,32.86,-0.28,1.22,8.5
50.254276,3.01375,32.8,-0.04,1.35,10.54
50.254276,3.01375,32.8,-0.27,1.02,10.54
50.254065,3.014069,32.69,-0.72,1.22,9.43
50.254065,3.014069,32.69,-0.81,2.15,12.21
50.25385,3.014388,32.65,-0.48,1.56,8.56
50.25385,3.014388,32.65,1.36,0.68,7.43
50.25364,3.014699,32.65,0.61,0.66,10.64
50.25364,3.014699,32.65,-0.52,1.88,10.81
50.253426,3.015014,32.64,-0.11,1.79,9.34
50.253426,3.015014,32.64,0.73,1.63,9.41
50.253211,3.015331,32.65,0.01,1.74,10.69
50.253211,3.015331,32.65,-0.34,0.53,11.51
50.252993,3.015633,32.58,-1.18,2.02,10.95
50.252993,3.015633,32.58,-0.45,1.86,8.54
50.252771,3.015934,32.61,-1.15,1.82,8.96
50.252771,3.015934,32.61,-0.12,1.13,10.06
50.252547,3.016224,32.61,0.06,2.02,10.95
50.252547,3.016224,32.61,-1.05,2.13,9.19
50.25232,3.016517,32.65,-1.3,2.13,9.51
50.25232,3.016517,32.65,0.13,1.38,10.18
50.252095,3.01681,32.65,-0.99,2.13,11.12
50.252095,3.01681,32.65,0.13,1.83,10.49
50.251866,3.0171,32.65,-1.05,1.36,9.33
50.251866,3.0171,32.65,-0.89,0.67,10.83
50.251635,3.017385,32.67,0.62,2.19,11.1
50.251635,3.017385,32.67,0.12,2.32,9.02
50.251405,3.017668,32.7,-0.6,1.2,8.54
50.251405,3.017668,32.7,-0.34,1.53,12.07
50.251175,3.017952,32.67,-1.57,0.75,11.24
50.251175,3.017952,32.67,0.11,1.66,9.1
50.25094,3.018229,32.7,0.73,1.22,9.21
50.25094,3.018229,32.7,0.83,1.05,10.25
50.250707,3.01851,32.68,-1.45,2.28,12.12
50.250707,3.01851,32.68,-1.27,1.01,9.51
50.250474,3.018788,32.78,-1.59,2.13,10.61
50.250474,3.018788,32.78,-0.95,0.93,13.02
50.25024,3.019066,32.81,-0.18,1.94,9.73
50.25024,3.019066,32.81,-0.08,2.18,9.69
50.250001,3.019338,32.86,0.72,1.25,9.94
50.249763,3.01961,32.95,-0.49,0.84,9.2
50.249763,3.01961,32.95,0.62,0.95,9.67
50.249526,3.019885,33.1,0.3,1.38,12.03
50.249526,3.019885,33.1,0.28,1.51,9.37
50.249286,3.020159,33.15,-0.33,0.79,9.69
50.249286,3.020159,33.15,-0.62,1.56,9.05
50.249043,3.020428,33.23,-1.72,1.07,9.19
50.249043,3.020428,33.23,-0.94,1.13,10.23
50.2488,3.020695,33.34,0.51,2.0,10.54
50.2488,3.020695,33.34,0.96,1.12,9.01
50.248557,3.020962,33.32,-0.49,1.58,9.65
50.248557,3.020962,33.32,-0.79,1.02,7.58
50.248313,3.021225,33.32,-1.11,2.01,10.77
50.248313,3.021225,33.32,-0.17,0.7,12.2
50.248068,3.021489,33.33,-0.82,0.99,12.08
50.248068,3.021489,33.33,-1.75,0.89,9.29
50.247822,3.021758,33.41,-0.8,0.63,9.89
50.247822,3.021758,33.41,-0.95,1.64,9.34
50.247573,3.022026,33.51,-1.35,0.66,11.67
50.247573,3.022026,33.51,-1.59,0.09,8.53
50.247323,3.02229,33.52,1.04,0.76,9.34
50.247323,3.02229,33.52,0.15,1.54,9.36
50.247078,3.022562,33.48,-1.19,0.16,8.65
50.247078,3.022562,33.48,0.19,2.35,10.52
50.24683,3.022828,33.38,0.43,0.71,9.55
50.24683,3.022828,33.38,-1.47,1.0,10.4
50.246582,3.023085,33.32,0.55,-0.35,10.54
50.246582,3.023085,33.32,-0.59,0.67,10.93
50.246337,3.023345,33.25,-0.29,1.65,8.18
50.246337,3.023345,33.25,-0.01,1.33,11.2
50.246089,3.023602,33.13,0.23,1.59,10.01
50.246089,3.023602,33.13,-1.51,0.53,9.25
50.245845,3.023857,33.1,-0.72,1.74,10.5
50.245845,3.023857,33.1,-0.21,1.14,7.16
50.245601,3.024118,33.51,-0.79,1.37,10.86
50.245601,3.024118,33.51,-0.91,1.31,7.25
50.245349,3.024384,33.67,0.24,1.83,9.73
50.245349,3.024384,33.67,-0.57,0.91,8.69
50.245103,3.024653,33.78,-0.63,0.89,9.98
50.245103,3.024653,33.78,-1.15,0.94,9.96
50.244856,3.024923,33.78,-0.03,1.29,10.43
50.244856,3.024923,33.78,-0.18,1.26,11.34
50.244604,3.025191,33.7,0.31,0.88,8.85
50.244356,3.025456,33.67,0.2,0.82,12.22
50.244356,3.025456,33.67,-1.25,-0.03,8.66
50.244106,3.025718,33.33,-0.71,0.56,9.72
50.244106,3.025718,33.33,-1.33,1.32,9.28
50.243862,3.025976,32.84,-0.18,0.8,9.95
50.243862,3.025976,32.84,-0.31,0.61,9.9
50.243614,3.026234,32.83,-2.05,1.5,9.95
50.243614,3.026234,32.83,-1.05,1.37,9.97
50.243375,3.026496,32.73,-0.26,0.12,10.78
50.243375,3.026496,32.73,-0.61,0.81,9.78
50.243126,3.026746,32.66,-1.45,1.37,9.21
50.243126,3.026746,32.66,-0.54,1.69,8.28
50.242882,3.027,32.68,-0.33,1.0,10.49
50.242882,3.027,32.68,-0.93,0.99,10.1
50.242637,3.027263,32.68,-0.51,1.74,10.05
50.242637,3.027263,32.68,-0.26,0.91,10.06
50.242396,3.027525,32.64,0.39,1.02,9.32
50.242396,3.027525,32.64,-0.29,1.33,12.43
50.242155,3.027779,32.65,-0.68,1.07,8.56
50.242155,3.027779,32.65,-0.06,1.14,10.07
50.241915,3.028044,32.8,0.25,1.27,11.2
50.241915,3.028044,32.8,-1.63,1.62,9.5
50.241671,3.02831,32.74,-0.81,1.47,10.42
50.241671,3.02831,32.74,-0.11,1.69,8.74
50.241427,3.028577,32.78,-1.4,1.84,9.61
50.241427,3.028577,32.78,-1.42,0.7,8.42
50.241182,3.028844,33.17,-0.97,0.93,9.86
50.241182,3.028844,33.17,-1.47,1.18,9.37
50.240942,3.029118,33.31,-0.88,0.88,11.9
50.240942,3.029118,33.31,-0.26,0.97,9.17
50.240702,3.029399,33.52,0.32,1.65,7.99
50.240702,3.029399,33.52,-0.65,0.88,11.02
50.240461,3.029691,33.61,-0.28,1.21,10.89
50.240461,3.029691,33.61,-1.26,1.76,9.79
50.240222,3.029982,33.71,-0.22,1.17,11.96
50.240222,3.029982,33.71,0.13,1.33,9.33
50.239984,3.030274,33.67,-0.61,1.36,9.35
50.239742,3.030567,33.79,0.12,0.71,9.57
50.239742,3.030567,33.79,-0.06,1.24,10.87
50.239506,3.030857,33.64,-0.29,-0.02,8.45
50.239506,3.030857,33.64,-0.74,1.48,11.3
50.239272,3.031156,33.47,-0.56,1.34,10.31
50.239272,3.031156,33.47,-0.63,1.05,11.33
50.23904,3.031454,33.42,-0.32,0.93,9.17
50.23904,3.031454,33.42,-1.05,0.45,11.67
50.238817,3.031765,33.42,-0.25,1.28,8.61
50.238817,3.031765,33.42,-1.0,1.28,11.59
50.238596,3.032084,33.41,-0.53,1.21,10.61
50.238596,3.032084,33.41,0.57,0.03,10.37
50.238376,3.032399,33.34,-1.08,1.6,8.31
50.238376,3.032399,33.34,0.96,1.56,13.34
50.238159,3.032721,33.21,-0.79,1.33,10.92
50.238159,3.032721,33.21,-0.54,1.44,8.85
50.237943,3.033053,33.28,-0.58,2.21,10.53
50.237943,3.033053,33.28,0.25,2.32,8.9
50.237734,3.033387,33.24,1.15,0.76,12.04
50.237734,3.033387,33.24,0.54,2.26,10.79
50.237525,3.033724,33.22,0.3,0.15,10.28
50.237525,3.033724,33.22,-0.87,1.37,10.38
50.237319,3.034059,33.21,-0.85,1.61,10.48
50.237319,3.034059,33.21,-1.26,2.12,12.39
50.237115,3.034398,33.27,-0.27,1.93,10.71
50.237115,3.034398,33.27,-0.87,-0.08,7.94
50.236919,3.03475,33.22,-0.41,2.75,12.26
50.236919,3.03475,33.22,-0.78,1.1,8.41
50.236726,3.035103,33.2,-0.62,0.91,11.81
50.236726,3.035103,33.2,-0.24,1.58,7.57
50.236538,3.035455,33.14,-0.58,0.92,11.42
50.236538,3.035455,33.14,0.18,1.05,11.37
50.236353,3.035808,32.95,0.52,1.41,9.51
50.236353,3.035808,32.95,-1.08,0.27,10.64
50.236168,3.036163,32.95,0.07,1.44,9.59
50.236168,3.036163,32.95,-0.13,1.82,8.6
50.235987,3.036518,32.74,-0.42,0.67,9.15
50.235806,3.036885,32.71,-1.58,1.32,10.6
50.235806,3.036885,32.71,-0.43,1.87,8.12
50.235629,3.03725,32.57,0.12,1.33,9.19
50.235629,3.03725,32.57,-0.1,1.51,9.6
50.235454,3.037616,32.46,0.17,1.46,8.35
50.235454,3.037616,32.46,-0.65,0.11,10.84
50.23528,3.037985,32.43,-0.12,1.91,9.73
50.23528,3.037985,32.43,-0.72,1.02,10.21
50.235101,3.038349,32.42,-0.96,1.95,8.21
50.235101,3.038349,32.42,-1.21,1.58,9.07
50.234933,3.038715,32.47,-0.96,1.75,8.01
50.234933,3.038715,32.47,-0.85,1.36,9.31
50.23476,3.039086,32.55,-0.65,1.67,10.43
50.23476,3.039086,32.55,-1.13,2.12,10.24
50.234585,3.039451,32.67,0.12,2.24,9.81
50.234585,3.039451,32.67,-1.5,1.42,10.27
50.234418,3.039841,32.86,-1.91,1.47,10.94
50.234418,3.039841,32.86,-1.19,1.0,8.91
50.234252,3.040218,32.99,0.64,1.33,10.12
50.234252,3.040218,32.99,-0.42,1.57,11.09
50.234091,3.0406,33.12,-1.34,2.04,8.67
50.234091,3.0406,33.12,-1.07,1.11,10.69
50.233919,3.04099,33.26,-0.51,1.4,8.88
50.233919,3.04099,33.26,-1.47,1.25,9.71
50.233742,3.041371,33.39,-0.34,2.46,11.3
50.233742,3.041371,33.39,-1.6,1.3,11.05
50.23357,3.041753,33.52,-1.44,0.63,9.24
50.23357,3.041753,33.52,0.46,3.14,12.21
50.233402,3.042133,33.71,-0.75,0.94,10.1
50.233402,3.042133,33.71,-0.35,1.83,11.39
50.233233,3.042527,33.82,-0.86,0.92,8.93
50.233233,3.042527,33.82,-0.66,1.51,9.68
50.233063,3.042926,33.69,-0.45,1.02,9.72
50.233063,3.042926,33.69,-1.06,0.88,8.45
50.232893,3.043319,33.62,-0.75,1.7,10.76
50.232893,3.043319,33.62,-0.9,1.66,9.63
50.232719,3.043703,33.39,-0.03,1.85,9.88
50.232719,3.043703,33.39,-0.43,0.73,9.94
50.232543,3.044084,33.45,-1.58,0.89,10.14
50.232543,3.044084,33.45,-1.5,1.04,7.78
50.232374,3.044471,33.47,-1.1,0.28,9.23
50.232206,3.044865,33.49,-1.12,2.27,9.72
50.232206,3.044865,33.49,-1.25,1.72,11.15
50.232039,3.045262,33.48,-1.12,1.78,9.83
50.232039,3.045262,33.48,-1.25,0.61,11.66
50.231877,3.04566,33.44,-0.72,1.76,9.45
50.231877,3.04566,33.44,0.6,1.38,8.16
50.231715,3.046058,33.37,-1.47,1.92,8.89
50.231715,3.046058,33.37,-0.1,0.86,10.28
50.231556,3.04645,33.3,-0.75,2.07,11.87
50.231556,3.04645,33.3,-1.01,1.1,9.68
50.231401,3.046843,33.24,-2.18,0.55,10.06
50.231401,3.046843,33.24,-1.2,1.92,10.06
50.231241,3.047234,33.17,0.58,1.25,9.17
50.231241,3.047234,33.17,-1.81,2.41,7.94
50.231084,3.04763,33.08,-0.56,1.45,9.98
50.231084,3.04763,33.08,-0.03,0.37,10.52
50.230934,3.048029,33.06,-2.08,1.31,8.77
50.230934,3.048029,33.06,-0.37,1.43,9.13
50.230783,3.048434,33.04,-1.06,1.3,11.01
50.230783,3.048434,33.04,-0.23,2.05,9.26
50.230632,3.048834,32.95,-0.53,1.95,10.09
50.230632,3.048834,32.95,-2.0,0.43,10.47
50.230484,3.049238,32.87,-1.12,2.3,10.29
50.230484,3.049238,32.87,-1.26,1.02,10.19
50.230341,3.049643,32.84,0.63,0.83,10.51
50.230341,3.049643,32.84,-1.09,1.34,10.24
50.230201,3.050054,32.86,-1.16,1.8,8.97
50.230201,3.050054,32.86,-0.58,0.86,8.7
50.230058,3.050463,32.81,-2.31,0.56,10.24
50.230058,3.050463,32.81,-0.51,2.96,8.25
50.229922,3.050867,32.75,-1.42,0.86,6.23
50.229922,3.050867,32.75,0.21,1.38,11.7
50.22978,3.051271,32.76,-0.99,2.49,10.38
50.22978,3.051271,32.76,-1.69,1.21,9.58
50.229647,3.051676,32.75,-2.03,1.05,9.64
50.229647,3.051676,32.75,-2.16,1.0,11.01
50.229522,3.052082,32.7,-1.78,1.27,10.79
50.229522,3.052082,32.7,-0.47,1.5,9.25
50.229398,3.052497,32.68,-1.09,0.41,9.38
50.229398,3.052497,32.68,-1.01,0.72,10.13
50.229276,3.052909,32.7,-1.24,1.94,10.37
50.229154,3.053326,32.67,-0.2,0.94,9.03
50.229154,3.053326,32.67,0.57,2.3,8.46
50.22903,3.053744,32.63,-0.4,1.28,11.9
50.22903,3.053744,32.63,-1.67,1.21,10.36
50.228909,3.054161,32.66,-1.64,1.99,10.04
50.228909,3.054161,32.66,-1.07,1.85,8.15
50.228795,3.05458,32.7,-0.78,0.56,11.94
50.228795,3.05458,32.7,-0.96,1.55,11.87
50.22868,3.055003,32.68,-0.52,1.67,9.59
50.22868,3.055003,32.68,-1.47,1.9,8.36
50.228567,3.055428,32.71,-1.5,1.47,9.07
50.228567,3.055428,32.71,-2.26,1.28,10.84
50.228456,3.055852,32.7,-1.24,1.8,10.18
50.228456,3.055852,32.7,-0.63,1.75,9.44
50.228353,3.056272,32.74,0.21,1.46,9.41
50.228353,3.056272,32.74,-0.17,1.24,9.79
50.228248,3.056706,32.7,-1.32,1.09,10.05
50.228248,3.056706,32.7,-0.53,2.6,8.57
50.228149,3.057141,32.82,-1.69,1.47,10.68
50.228149,3.057141,32.82,-1.96,1.7,10.04
50.228044,3.057574,32.87,-1.56,0.57,8.35
50.228044,3.057574,32.87,-0.73,1.29,9.6
50.227943,3.05801,32.89,-0.24,1.36,11.04
50.227943,3.05801,32.89,-0.49,1.13,9.39
50.22784,3.058444,32.89,0.43,1.68,11.32
50.22784,3.058444,32.89,-0.16,1.71,9.9
50.227747,3.058877,32.92,-2.56,0.85,9.15
50.227747,3.058877,32.92,-0.09,1.6,9.45
50.227656,3.05932,32.92,-0.88,1.81,11.45
50.227656,3.05932,32.92,-1.49,1.86,8.17
50.227563,3.059757,32.95,-0.6,0.79,7.9
50.227563,3.059757,32.95,-1.37,1.02,10.25
50.227478,3.060195,32.94,-0.45,1.72,8.98
50.227478,3.060195,32.94,0.3,0.93,11.73
50.22739,3.060627,32.86,-2.34,0.85,11.19
50.22739,3.060627,32.86,0.01,1.9,8.73
50.227309,3.061068,32.86,0.14,0.61,9.75
50.227309,3.061068,32.86,0.3,0.31,11.49
50.227231,3.061517,32.85,-0.2,2.52,11.57
50.227231,3.061517,32.85,-0.5,0.6,8.85
50.227154,3.061963,32.87,-0.6,0.85,8.96
50.227072,3.062415,32.86,-0.5,2.26,10.01
50.227072,3.062415,32.86,-0.75,1.47,8.29
50.226994,3.06286,32.84,-0.82,1.51,8.65
50.226994,3.06286,32.84,-1.21,1.12,11.12
50.226917,3.063301,32.8,-0.98,1.26,9.64
50.226917,3.063301,32.8,-0.73,0.73,7.69
50.22684,3.063745,32.8,0.28,1.08,11.4
50.22684,3.063745,32.8,-0.44,0.37,12.06
50.226764,3.064191,32.76,-0.35,1.94,11.24
50.226764,3.064191,32.76,-1.3,0.79,8.16
50.226689,3.064631,32.71,-0.42,0.98,8.57
50.226689,3.064631,32.71,-1.22,1.98,9.22
50.226612,3.065067,32.77,-1.63,0.72,7.8
50.226612,3.065067,32.77,-1.46,1.3,8.77
50.226534,3.065519,32.79,0.17,0.92,11.3
50.226534,3.065519,32.79,-0.74,2.01,9.41
50.226459,3.065963,32.83,0.03,0.82,10.06
50.226459,3.065963,32.83,-0.22,0.79,11.54
50.226387,3.066405,32.92,-0.64,1.82,10.65
50.226387,3.066405,32.92,-0.07,1.0,8.65
50.226315,3.066858,32.95,-0.78,1.33,9.56
50.226315,3.066858,32.95,-1.19,1.76,9.6
50.226245,3.067301,33.01,-0.31,1.18,8.94
50.226245,3.067301,33.01,-1.19,1.54,10.94
50.226174,3.067755,33.02,0.88,1.9,8.6
50.226174,3.067755,33.02,0.39,1.65,9.4
50.226103,3.068206,33.13,-0.93,2.19,9.86
50.226103,3.068206,33.13,-0.4,1.01,8.68
50.226033,3.068657,33.2,0.02,0.88,11.25
50.226033,3.068657,33.2,-1.01,1.96,8.63
50.225961,3.06911,33.22,-0.42,1.23,7.99
50.225961,3.06911,33.22,-1.36,2.29,11.19
50.225884,3.069574,33.31,0.22,0.58,8.26
50.225884,3.069574,33.31,-0.64,1.71,9.02
50.225809,3.070027,33.39,-1.49,0.79,8.37
50.225809,3.070027,33.39,-0.59,1.81,10.14
50.225737,3.070481,33.39,-0.21,1.11,8.37
50.225737,3.070481,33.39,0.24,1.2,10.16
50.225662,3.070934,33.37,-1.16,1.55,8.57
50.225597,3.071397,33.45,-1.03,1.81,10.55
50.225597,3.071397,33.45,0.6,1.02,8.41
50.225529,3.071851,33.58,-1.66,1.52,11.18
50.225529,3.071851,33.58,-1.01,0.8,8.43
50.22546,3.072315,33.66,0.04,2.3,11.08
50.22546,3.072315,33.66,-0.35,0.97,7.76
50.225383,3.072775,33.78,-0.1,2.43,9.15
50.225383,3.072775,33.78,-0.62,1.46,12.25
50.22531,3.07323,33.84,0.26,1.65,9.8
50.22531,3.07323,33.84,-0.27,1.86,12.65
50.225234,3.073697,33.87,0.39,0.31,9.09
50.225234,3.073697,33.87,-1.54,2.67,10.85
50.225157,3.074149,33.93,-0.18,0.88,10.27
50.225157,3.074149,33.93,-0.98,0.41,7.05
50.225074,3.074606,33.97,0.49,0.49,11.93
50.225074,3.074606,33.97,0.55,0.8,9.34
50.224992,3.075061,33.7,-0.91,2.02,11.6
50.224992,3.075061,33.7,0.12,1.27,8.21
50.224908,3.075517,33.54,-0.01,1.32,10.73
50.224908,3.075517,33.54,0.82,1.01,7.67
50.224824,3.075964,33.48,0.38,1.44,11.15
50.224824,3.075964,33.48,-0.26,1.02,9.55
50.224727,3.076406,33.54,-1.04,1.59,9.59
50.224727,3.076406,33.54,0.45,1.1,8.67
50.224627,3.076854,33.57,-0.44,1.59,11.51
50.224627,3.076854,33.57,0.81,0.57,8.85
50.224519,3.077295,33.66,0.67,1.36,10.12
50.224519,3.077295,33.66,0.93,0.51,8.26
50.224418,3.077732,33.73,0.99,1.33,8.63
50.224418,3.077732,33.73,-0.27,2.2,11.69
50.224307,3.078162,33.82,0.99,0.67,9.13
50.224307,3.078162,33.82,-0.02,0.9,9.17
50.224191,3.078593,33.75,-0.23,0.83,8.98
50.224191,3.078593,33.75,-0.8,1.44,9.94
50.224073,3.079018,33.8,-0.63,-0.03,9.49
50.224073,3.079018,33.8,-0.02,1.76,8.75
50.223947,3.079446,33.73,-0.09,1.74,10.82
50.223947,3.079446,33.73,0.31,0.44,9.02
50.223823,3.079876,33.68,-0.79,1.74,10.93
50.223692,3.080304,33.69,0.64,0.22,10.66
50.223692,3.080304,33.69,-0.4,1.71,12.06
50.223557,3.080731,33.66,0.63,0.67,8.71
50.223557,3.080731,33.66,-0.43,1.41,8.57
50.22342,3.081154,33.64,-0.2,0.43,9.62
50.22342,3.081154,33.64,-0.13,1.17,9.31
50.223282,3.081571,33.56,1.33,1.7,10.48
50.223282,3.081571,33.56,-1.12,1.8,10.48
50.223136,3.081979,33.45,0.28,0.63,9.44
50.223136,3.081979,33.45,-0.49,1.21,9.89
50.222987,3.082392,33.55,1.03,0.9,10.72
50.222987,3.082392,33.55,0.18,1.04,9.38
50.222837,3.082805,33.69,-0.3,0.91,11.89
50.222837,3.082805,33.69,0.3,0.62,7.45
50.22268,3.083212,33.77,-0.69,0.91,9.26
50.22268,3.083212,33.77,1.02,0.89,9.22
50.222527,3.083614,33.88,0.05,1.84,5.12
50.222527,3.083614,33.88,0.76,1.39,10.41
50.222364,3.084014,34.01,0.53,0.95,7.78
50.222364,3.084014,34.01,0.59,1.92,10.05
50.222202,3.084408,34.18,0.57,0.47,2.92
50.222202,3.084408,34.18,-0.53,0.88,8.39
50.222028,3.084807,34.3,0.53,0.28,12.64
50.222028,3.084807,34.3,-0.12,1.55,8.33
50.221853,3.085199,34.04,0.74,0.15,8.82
50.221853,3.085199,34.04,0.49,1.57,10.02
50.221677,3.085591,33.8,-0.54,1.62,10.41
50.221677,3.085591,33.8,-0.07,1.2,10.41
50.221493,3.085967,33.85,0.36,2.72,9.39
50.221493,3.085967,33.85,1.0,1.66,12.2
50.22131,3.086346,33.91,-0.39,2.09,10.33
50.22131,3.086346,33.91,-0.47,1.47,9.74
50.22112,3.086719,34.01,0.78,1.21,8.69
50.22112,3.086719,34.01,-0.34,2.24,10.86
50.22093,3.08709,34.05,0.19,1.11,11.14
50.22093,3.08709,34.05,0.33,0.15,10.22
50.220735,3.087454,34.08,-0.79,1.82,9.83
50.220735,3.087454,34.08,1.18,2.12,12.13
50.220537,3.087818,34.05,-0.3,0.4,9.53
50.220537,3.087818,34.05,-0.9,2.65,10.25
50.220334,3.088184,34.1,-1.13,0.69,12.05
50.220129,3.088543,34.0,0.94,0.53,8.13
50.220129,3.088543,34.0,-0.65,2.33,11.77
50.219921,3.088897,33.85,-0.36,0.63,10.05
50.219921,3.088897,33.85,-0.65,2.11,9.63
50.219711,3.089241,33.63,0.45,0.54,7.44
50.219711,3.089241,33.63,-0.65,1.36,8.92
50.219501,3.089579,33.49,0.98,1.39,12.33
50.219501,3.089579,33.49,-0.09,2.15,9.55
50.219283,3.089906,33.29,1.47,1.27,11.51
50.219283,3.089906,33.29,0.65,2.94,8.51
50.219065,3.090226,33.14,-0.46,1.18,10.41
50.219065,3.090226,33.14,-1.78,1.28,12.19
50.21885,3.090541,33.04,-0.24,2.05,10.14
50.21885,3.090541,33.04,-1.05,1.03,9.31
50.218628,3.090851,32.79,0.24,0.91,11.18
50.218628,3.090851,32.79,-0.66,2.07,9.53
50.218408,3.091149,32.63,-0.93,1.51,9.86
50.218408,3.091149,32.63,0.49,1.3,9.14
50.218192,3.09146,32.42,0.42,0.48,9.81
50.218192,3.09146,32.42,-0.29,2.31,12.11
50.217973,3.091754,32.32,0.91,2.05,11.54
50.217973,3.091754,32.32,-0.93,1.6,9.75
50.21775,3.092044,32.26,-0.02,2.37,9.53
50.21775,3.092044,32.26,0.1,1.89,8.33
50.217524,3.092326,32.21,-0.22,1.37,9.07
50.217524,3.092326,32.21,-0.39,0.39,10.28
50.217297,3.092601,32.26,0.11,1.29,10.64
50.217297,3.092601,32.26,-0.9,1.49,11.61
50.217066,3.092873,32.24,-0.26,1.51,12.39
50.217066,3.092873,32.24,0.29,1.48,10.44
50.216835,3.093141,32.15,-0.44,2.25,10.34
50.216835,3.093141,32.15,-1.06,1.8,9.05
50.216604,3.093408,32.06,0.05,1.42,8.54
50.216604,3.093408,32.06,-0.88,1.99,8.71
50.216364,3.093663,32.13,-0.99,0.62,9.07
50.216364,3.093663,32.13,-0.26,0.19,9.12
50.216132,3.093917,31.96,-1.38,1.58,7.47
50.216132,3.093917,31.96,-0.49,1.36,8.23
50.215903,3.094166,32.08,0.76,0.79,11.8
50.215903,3.094166,32.08,0.61,1.91,11.84
50.215661,3.094415,31.92,0.08,0.52,9.36
50.21542,3.094659,31.99,-0.1,1.39,9.27
50.21542,3.094659,31.99,-1.16,2.09,11.42
50.215176,3.09489,32.0,0.25,1.38,11.08
50.215176,3.09489,32.0,-0.69,2.12,10.93
50.214925,3.095123,32.13,-0.91,1.35,10.15
50.214925,3.095123,32.13,-0.77,1.75,10.69
50.214672,3.095351,32.21,-0.57,2.12,9.02
50.214672,3.095351,32.21,0.65,1.6,10.14
50.214417,3.095573,32.32,-0.22,2.58,8.44
50.214417,3.095573,32.32,0.97,1.21,8.63
50.214167,3.09579,32.42,0.99,1.08,8.86
50.214167,3.09579,32.42,-1.27,1.4,10.65
50.213907,3.096007,32.6,-0.9,2.15,7.95
50.213907,3.096007,32.6,-0.95,2.3,9.05
50.213644,3.096222,32.8,0.36,0.67,11.39
50.213644,3.096222,32.8,0.12,1.21,10.54
50.213384,3.096437,32.76,-0.49,1.4,9.76
50.213384,3.096437,32.76,0.63,0.9,9.32
50.213123,3.096651,33.01,-0.54,1.61,9.17
50.213123,3.096651,33.01,0.57,0.87,10.39
50.212859,3.096865,33.11,-1.83,1.47,11.34
50.212859,3.096865,33.11,-0.94,1.25,8.94
50.212595,3.097078,33.3,-1.3,1.31,10.5
50.212595,3.097078,33.3,-0.38,1.5,9.69
50.212325,3.097286,33.25,0.07,1.15,11.03
50.212325,3.097286,33.25,-0.96,1.48,8.05
50.212055,3.097496,33.47,-1.85,1.97,10.54
50.212055,3.097496,33.47,-0.02,1.75,10.15
50.211784,3.097705,33.58,-0.52,0.72,10.37
50.211784,3.097705,33.58,-0.21,0.95,8.73
50.211516,3.097916,33.55,0.1,0.87,12.29
50.211516,3.097916,33.55,-1.42,1.21,7.79
50.211248,3.098138,33.59,-1.05,1.46,12.65
50.211248,3.098138,33.59,-0.26,0.69,8.61
50.210978,3.098359,33.64,-0.15,1.36,11.5
50.210978,3.098359,33.64,0.02,0.48,9.58
50.21071,3.098574,33.62,-0.28,1.21,9.89
50.21071,3.098574,33.62,-0.83,0.94,7.77
50.21044,3.098785,33.64,-1.04,2.08,11.22
50.210171,3.098999,33.68,0.45,1.54,9.2
50.210171,3.098999,33.68,-0.68,1.71,10.08
50.2099,3.099211,33.62,0.82,0.92,14.39
50.2099,3.099211,33.62,0.01,1.13,9.48
50.209629,3.09942,33.67,0.75,1.24,10.43
50.209629,3.09942,33.67,-0.92,0.86,9.47
50.209359,3.099625,33.65,-0.25,1.97,9.87
50.209359,3.099625,33.65,-0.27,0.0,9.36
50.209085,3.099822,33.72,-0.36,1.24,9.23
50.209085,3.099822,33.72,-1.87,1.79,11.91
50.208808,3.100019,33.75,-0.41,0.88,10.07
50.208808,3.100019,33.75,-0.26,1.67,10.84
50.208533,3.100211,33.66,-1.26,1.06,8.12
50.208533,3.100211,33.66,-0.5,2.53,9.65
50.208255,3.100398,33.67,0.48,0.8,9.1
50.208255,3.100398,33.67,-1.21,1.81,12.25
50.207971,3.10058,33.92,-0.99,0.65,8.6
50.207971,3.10058,33.92,0.3,1.65,10.33
50.207688,3.100761,33.92,0.04,1.83,12.16
50.207688,3.100761,33.92,-0.4,1.36,8.79
50.207401,3.100945,34.16,-0.74,2.45,12.33
50.207401,3.100945,34.16,0.23,1.35,10.3
50.207119,3.101115,33.61,-0.82,1.14,10.39
50.207119,3.101115,33.61,0.05,0.69,8.64
50.206836,3.101281,33.79,-0.55,1.02,9.18
50.206836,3.101281,33.79,1.27,0.94,11.08
50.206552,3.101447,33.76,-0.87,1.44,8.37
50.206552,3.101447,33.76,-0.48,2.22,11.5
50.206266,3.101602,33.74,-0.57,0.76,9.48
50.206266,3.101602,33.74,-1.43,2.46,11.44
50.205979,3.101762,33.77,-0.02,1.65,12.36
50.205979,3.101762,33.77,-0.82,0.81,7.6
50.205691,3.101917,33.83,-0.22,1.1,10.39
50.205691,3.101917,33.83,0.96,0.95,8.21
50.205404,3.102059,33.82,0.2,0.83,8.22
50.205404,3.102059,33.82,-0.02,2.41,11.13
50.205111,3.102204,33.81,-0.11,1.91,11.45
50.205111,3.102204,33.81,-1.41,2.27,12.0
50.204822,3.102348,33.84,-0.32,0.8,10.87
50.204822,3.102348,33.84,-0.9,1.55,8.07
50.204531,3.102488,33.9,0.15,2.15,11.43
50.204531,3.102488,33.9,0.82,0.8,9.72
50.204235,3.102613,33.95,-0.92,2.11,12.14
50.203942,3.102741,33.94,-0.06,0.29,8.84
50.203942,3.102741,33.94,-0.99,0.84,8.1
50.203646,3.102863,33.96,-0.24,1.0,10.96
50.203646,3.102863,33.96,0.67,1.21,9.89
50.203347,3.102979,33.97,-0.76,1.09,10.62
50.203347,3.102979,33.97,0.73,0.67,9.96
50.203049,3.103098,33.99,-0.51,0.43,8.97
50.203049,3.103098,33.99,0.01,1.72,9.51
50.202748,3.10321,33.96,-0.13,0.84,9.65
50.202748,3.10321,33.96,0.51,0.89,7.24
50.202446,3.103315,34.01,0.72,1.75,7.49
50.202446,3.103315,34.01,-0.42,0.26,8.26
50.202149,3.103425,34.07,-1.34,1.31,7.6
50.202149,3.103425,34.07,-0.92,2.59,9.79
50.201852,3.103524,34.1,-0.84,1.9,11.09
50.201852,3.103524,34.1,-0.78,0.63,8.58
50.201551,3.10361,34.13,0.22,1.88,9.57
50.201551,3.10361,34.13,-0.66,1.99,10.98
50.201245,3.103688,34.14,-0.89,1.63,10.38
50.201245,3.103688,34.14,0.03,1.1,9.15
50.200944,3.103768,34.18,-0.99,2.75,11.85
50.200944,3.103768,34.18,0.26,1.21,11.68
50.20064,3.103842,34.25,-1.29,0.59,9.63
50.20064,3.103842,34.25,-0.46,1.2,9.28
50.200336,3.103914,34.25,-1.44,2.48,10.73
50.200336,3.103914,34.25,-0.67,0.13,8.62
50.200029,3.10398,34.29,0.17,1.82,10.57
50.200029,3.10398,34.29,0.56,2.64,9.94
50.199722,3.104041,34.35,0.46,1.49,9.17
50.199722,3.104041,34.35,-0.63,0.26,9.84
50.199413,3.1041,34.34,-0.02,0.32,8.99
50.199413,3.1041,34.34,-0.48,1.45,10.12
50.199104,3.104148,34.23,0.37,0.28,9.49
50.199104,3.104148,34.23,-0.48,-0.89,10.26
50.198799,3.104189,33.78,-2.19,1.56,10.77
50.198799,3.104189,33.78,-0.36,1.9,10.24
50.198499,3.104228,33.24,-0.57,0.81,10.54
50.198499,3.104228,33.24,0.28,1.76,9.9
50.198203,3.104264,33.2,-0.96,1.14,9.09
50.197905,3.104304,33.29,-0.42,2.57,11.32
50.197905,3.104304,33.29,-0.34,1.36,8.45
50.197605,3.104339,33.34,-0.57,1.21,9.77
50.197605,3.104339,33.34,-0.39,1.28,9.16
50.197306,3.104363,33.44,1.2,0.63,7.7
50.197306,3.104363,33.44,-0.42,1.9,9.21
50.197006,3.104383,33.47,1.17,1.21,9.66
50.197006,3.104383,33.47,-0.87,1.97,10.0
50.196705,3.104401,33.52,1.16,0.41,9.49
50.196705,3.104401,33.52,0.17,1.44,8.63
50.196403,3.104419,33.51,0.02,0.66,7.49
50.196403,3.104419,33.51,-0.54,2.86,11.38
50.1961,3.104423,33.54,0.33,1.07,10.75
50.1961,3.104423,33.54,-0.3,1.79,10.25
50.195798,3.104417,33.52,0.22,0.51,11.01
50.195798,3.104417,33.52,-0.3,1.97,10.48
50.195498,3.104401,33.54,-0.64,1.01,12.79
50.195498,3.104401,33.54,0.2,3.08,8.94
50.195197,3.104402,33.64,-0.12,1.92,11.1
50.195197,3.104402,33.64,-1.24,0.63,10.45
50.194895,3.104393,33.65,0.36,0.76,9.21
50.194895,3.104393,33.65,-0.24,1.31,8.81
50.194594,3.104374,33.72,-0.99,2.69,11.27
50.194594,3.104374,33.72,0.68,1.66,10.05
50.194295,3.104347,33.79,0.44,2.42,12.7
50.194295,3.104347,33.79,0.91,0.79,8.62
50.193992,3.104323,33.8,0.34,2.62,11.41
50.193992,3.104323,33.8,0.11,0.92,9.58
50.193683,3.104288,33.78,0.1,0.8,9.76
50.193683,3.104288,33.78,-1.84,2.16,8.78
50.193375,3.104258,33.81,-1.05,1.19,7.17
50.193375,3.104258,33.81,-0.49,2.5,10.57
50.193069,3.104224,33.75,-1.16,1.86,9.52
50.193069,3.104224,33.75,-0.13,1.16,7.48
50.192765,3.104185,33.7,0.36,1.33,11.77
50.192765,3.104185,33.7,0.53,0.38,10.22
50.192462,3.10414,33.7,0.02,1.43,10.82
50.192462,3.10414,33.7,-1.1,0.68,7.82
50.192161,3.104084,33.71,-0.57,2.83,8.57
50.191859,3.10403,33.68,0.19,0.99,9.82
50.191859,3.10403,33.68,-1.42,1.0,9.76
50.191559,3.103974,33.64,-0.72,0.41,9.17
50.191559,3.103974,33.64,-0.36,0.54,9.08
50.191258,3.103917,33.61,0.67,0.72,10.0
50.191258,3.103917,33.61,-0.11,1.13,8.22
50.19096,3.103852,33.57,-0.3,1.38,10.42
50.19096,3.103852,33.57,-0.03,1.88,10.44
50.190663,3.103784,33.54,-0.18,1.39,11.13
50.190663,3.103784,33.54,0.67,0.96,8.52
50.190368,3.103713,33.54,-0.9,0.42,9.45
50.190368,3.103713,33.54,-0.88,0.84,6.69
50.190071,3.103642,33.59,-0.87,1.89,10.75
50.190071,3.103642,33.59,-0.95,0.72,9.24
50.189771,3.103573,33.61,-1.45,1.6,11.77
50.189771,3.103573,33.61,1.06,1.28,9.99
50.189471,3.103501,33.6,0.03,2.04,7.15
50.189471,3.103501,33.6,0.92,1.28,7.11
50.189173,3.103424,33.6,-1.21,2.02,9.14
50.189173,3.103424,33.6,-1.01,1.1,9.37
50.188875,3.103346,33.62,0.25,1.99,11.31
50.188875,3.103346,33.62,-0.55,1.12,11.39
50.188573,3.103273,33.67,-0.43,1.54,8.22
50.188573,3.103273,33.67,0.98,0.41,9.85
50.188274,3.103195,33.79,0.15,0.79,10.78
50.188274,3.103195,33.79,-0.6,1.27,8.95
50.187974,3.103121,33.66,0.91,0.87,10.76
50.187974,3.103121,33.66,-1.11,1.79,10.75
50.187673,3.103047,33.64,-0.87,1.31,8.85
50.187673,3.103047,33.64,0.5,2.17,10.2
50.187375,3.102971,33.66,-0.21,1.35,9.75
50.187375,3.102971,33.66,-0.15,1.89,11.4
50.187079,3.102895,33.73,-1.18,1.32,11.8
50.187079,3.102895,33.73,0.29,1.96,9.33
50.186778,3.10283,33.85,-0.85,2.02,11.14
50.186778,3.10283,33.85,-0.34,1.04,9.92
50.186478,3.102759,33.94,0.17,2.66,11.72
50.186478,3.102759,33.94,-1.73,1.62,9.53
50.186177,3.102679,34.07,-0.09,1.06,10.89
50.186177,3.102679,34.07,-0.2,2.45,10.93
50.185873,3.102602,34.06,-0.15,0.9,10.43
50.185873,3.102602,34.06,-0.58,0.72,7.75
50.185567,3.102532,33.99,-0.75,1.7,10.91
50.185268,3.102455,33.89,-0.26,0.62,9.05
50.185268,3.102455,33.89,-0.97,1.38,8.96
50.184967,3.102373,33.78,1.05,1.17,8.54
50.184967,3.102373,33.78,-0.18,1.38,9.06
50.184664,3.102298,33.77,-0.85,1.92,8.76
50.184664,3.102298,33.77,-0.87,1.92,9.68
50.184365,3.102228,33.66,0.72,2.26,11.51
50.184365,3.102228,33.66,-0.63,1.27,10.24
50.184068,3.102157,33.59,-0.34,2.59,11.89
50.184068,3.102157,33.59,0.32,0.93,8.84
50.183772,3.102085,33.6,-1.33,1.11,7.8
50.183772,3.102085,33.6,0.06,1.55,9.86
50.183473,3.10201,33.52,0.27,1.32,10.59
50.183473,3.10201,33.52,-2.39,0.21,8.98
50.183172,3.101941,33.48,0.54,2.33,10.83
50.183172,3.101941,33.48,1.45,1.21,9.22
50.182875,3.101873,33.49,-1.99,0.89,9.06
50.182875,3.101873,33.49,0.86,0.89,10.29
50.182576,3.101803,33.5,-0.1,1.7,10.5
50.182576,3.101803,33.5,-1.62,0.59,10.52
50.18228,3.101734,33.51,-0.98,1.56,9.96
50.18228,3.101734,33.51,0.01,0.5,11.61
50.181982,3.101664,33.46,-0.1,1.79,9.09
50.181982,3.101664,33.46,-0.51,0.69,7.98
50.181683,3.101596,33.45,-0.74,2.74,10.18
50.181683,3.101596,33.45,-1.34,0.95,11.03
50.181385,3.101532,33.45,-0.24,1.44,9.86
50.181385,3.101532,33.45,-0.77,0.93,8.48
50.181088,3.101471,33.35,-0.03,1.41,11.11
50.181088,3.101471,33.35,0.65,0.98,10.69
50.180793,3.101409,33.26,-1.98,0.71,12.18
50.180793,3.101409,33.26,-0.49,1.92,9.28
50.180498,3.101353,33.24,-1.24,1.51,12.06
50.180498,3.101353,33.24,-1.44,0.73,6.52
50.180199,3.101299,33.2,1.68,1.38,10.5
50.180199,3.101299,33.2,-2.73,2.12,9.61
50.179901,3.101246,33.16,-0.87,1.53,9.24
50.179901,3.101246,33.16,-0.91,0.93,11.79
50.17961,3.10119,33.15,-1.64,1.37,9.83
50.17961,3.10119,33.15,-1.75,1.35,8.95
50.179315,3.101132,33.11,-1.37,2.45,11.74
50.179017,3.101082,33.12,-1.23,2.4,8.5
50.179017,3.101082,33.12,-1.82,1.82,11.83
50.178722,3.101039,33.11,-1.06,2.11,10.05
50.178722,3.101039,33.11,-0.44,1.78,10.17
50.178427,3.101002,33.13,-2.33,1.08,10.07
50.178427,3.101002,33.13,-0.48,1.04,9.77
50.178131,3.100971,33.1,-0.4,1.22,11.63
50.178131,3.100971,33.1,-1.26,0.9,8.81
50.177834,3.100947,33.05,-0.59,1.29,8.49
50.177834,3.100947,33.05,-1.78,2.06,13.09
50.177535,3.10092,33.01,-0.27,1.47,9.85
50.177535,3.10092,33.01,-1.27,0.96,7.56
50.177235,3.100901,32.98,-1.11,1.86,11.11
50.177235,3.100901,32.98,-0.69,0.83,9.02
50.176938,3.100872,32.94,-0.49,1.76,7.33
50.176938,3.100872,32.94,-0.25,0.51,10.51
50.176645,3.100852,32.84,-1.43,1.61,10.33
50.176645,3.100852,32.84,-0.36,1.29,8.76
50.176352,3.100827,32.75,-0.69,1.11,9.68
50.176352,3.100827,32.75,-1.04,1.49,11.26
50.176056,3.100813,32.69,-0.9,1.9,10.72
50.176056,3.100813,32.69,-0.43,2.46,8.47
50.175761,3.100809,32.7,-0.55,1.08,9.92
50.175761,3.100809,32.7,-0.98,1.69,9.98
50.175467,3.100807,32.7,-1.82,1.75,9.06
50.175467,3.100807,32.7,-1.13,1.38,7.61
50.175174,3.100807,32.66,-0.94,1.1,11.3
50.175174,3.100807,32.66,-1.96,1.01,11.56
50.174877,3.100808,32.63,-1.1,1.64,10.2
50.174877,3.100808,32.63,1.36,1.46,10.85
50.174579,3.100814,32.68,0.89,1.76,8.12
50.174579,3.100814,32.68,-0.45,1.83,11.72
50.174282,3.100825,32.69,-1.8,0.73,7.38
50.174282,3.100825,32.69,-0.29,0.7,9.37
50.173991,3.100831,32.68,-0.45,1.23,10.64
50.173991,3.100831,32.68,-1.1,2.0,12.25
50.173695,3.100855,32.63,-0.89,2.38,8.29
50.173695,3.100855,32.63,-1.29,1.26,7.09
50.173404,3.100877,32.6,-0.14,1.12,10.07
50.173404,3.100877,32.6,0.48,0.86,9.48
50.173111,3.1009,32.54,0.23,2.36,10.24
50.172821,3.100927,32.55,-0.76,1.72,7.29
50.172821,3.100927,32.55,-1.63,0.81,10.17
50.172529,3.100959,32.47,0.16,0.82,10.02
50.172529,3.100959,32.47,-1.71,1.72,10.58
50.172238,3.10099,32.45,-0.88,0.9,9.46
50.172238,3.10099,32.45,-0.82,1.82,9.37
50.171946,3.101033,32.44,0.18,1.39,9.47
50.171946,3.101033,32.44,-1.32,1.54,8.07
50.171652,3.101082,32.37,0.3,0.87,9.97
50.171652,3.101082,32.37,-1.6,1.43,9.98
50.171363,3.101128,32.31,-1.35,0.94,9.76
50.171363,3.101128,32.31,-1.19,1.31,10.59
50.171079,3.101179,32.27,-0.35,2.54,9.61
50.171079,3.101179,32.27,-0.17,2.1,8.76
50.170791,3.101235,32.23,-0.67,1.83,8.31
50.170791,3.101235,32.23,0.66,1.22,7.58
50.170508,3.101282,32.2,-1.05,0.26,11.24
50.170508,3.101282,32.2,-2.04,1.18,9.1
50.170222,3.101338,32.15,0.13,2.16,11.2
50.170222,3.101338,32.15,-1.96,1.1,10.61
50.169938,3.101405,32.14,-0.79,0.92,8.29
50.169938,3.101405,32.14,-0.8,1.02,9.41
50.169653,3.101476,32.09,-0.74,1.53,7.45
50.169653,3.101476,32.09,-1.39,1.8,9.78
50.16937,3.101551,32.06,-0.9,2.51,8.91
50.16937,3.101551,32.06,-2.29,2.03,6.99
50.169084,3.101627,32.02,-1.08,1.22,10.63
50.169084,3.101627,32.02,-1.25,1.63,8.73
50.168798,3.101704,31.95,-0.9,0.68,10.73
50.168798,3.101704,31.95,0.4,1.02,10.56
50.168517,3.101787,31.9,-1.08,0.34,12.58
50.168517,3.101787,31.9,-1.09,0.32,7.93
50.168236,3.10188,31.9,-1.39,0.1,10.42
50.168236,3.10188,31.9,-0.45,0.57,9.91
50.167956,3.101968,31.9,-0.13,0.87,11.43
50.167956,3.101968,31.9,-1.66,1.44,10.52
50.167674,3.102063,31.96,-2.15,1.56,8.81
50.167674,3.102063,31.96,0.21,1.58,11.37
50.167392,3.102157,32.06,-1.42,2.21,8.58
50.167392,3.102157,32.06,-0.39,1.79,8.56
50.167111,3.102254,32.2,-1.36,1.93,10.9
50.16683,3.102357,32.39,-1.51,1.96,9.3
50.16683,3.102357,32.39,-1.15,1.11,8.87
50.166548,3.102456,32.56,-0.55,0.43,10.84
50.166548,3.102456,32.56,-1.79,1.7,8.86
50.166265,3.102559,32.73,-2.15,2.81,9.04
50.166265,3.102559,32.73,-0.36,1.72,8.35
50.165981,3.102666,32.9,-1.58,0.75,10.91
50.165981,3.102666,32.9,-1.75,1.71,11.71
50.165697,3.10278,33.13,-1.88,0.78,8.63
50.165697,3.10278,33.13,-1.45,2.15,9.78
50.165415,3.102896,33.18,-0.6,1.48,10.85
50.165415,3.102896,33.18,-0.03,1.13,8.53
50.165129,3.103025,33.33,-0.2,0.77,10.32
50.165129,3.103025,33.33,-0.89,1.15,9.65
50.16484,3.103164,33.46,-1.55,2.02,10.76
50.16484,3.103164,33.46,-0.75,1.54,10.12
50.164552,3.103304,33.64,-0.61,1.32,9.03
50.164552,3.103304,33.64,-0.8,0.54,11.13
50.164263,3.103455,33.78,0.34,1.05,10.22
50.164263,3.103455,33.78,-1.55,2.25,10.75
50.163974,3.103619,33.96,-0.06,0.86,11.55
50.163974,3.103619,33.96,-0.84,0.73,8.79
50.163686,3.103775,34.11,-2.23,1.99,9.9
50.163686,3.103775,34.11,-0.6,0.32,8.32
50.163393,3.103934,34.27,-0.15,0.76,9.58
50.163393,3.103934,34.27,-0.89,1.14,9.42
50.163103,3.104092,34.44,-0.49,0.8,10.73
50.163103,3.104092,34.44,-1.18,1.11,11.55
50.162816,3.104254,34.48,0.0,-0.21,7.38
50.162816,3.104254,34.48,-2.05,1.67,10.1
50.162527,3.104422,34.62,-1.29,1.55,12.74
50.162527,3.104422,34.62,-1.69,1.45,10.1
50.162238,3.104597,34.75,-1.55,-1.8,10.86
50.162238,3.104597,34.75,0.11,-0.57,8.85
50.161952,3.104775,34.38,-0.87,0.59,10.41
50.161952,3.104775,34.38,-0.37,1.38,10.8
50.161669,3.104957,34.27,-0.57,0.87,8.38
50.161669,3.104957,34.27,0.25,1.3,10.01
50.161392,3.10515,34.06,-0.82,1.6,10.55
50.161392,3.10515,34.06,0.73,0.66,7.9
50.161108,3.105342,34.09,-0.69,1.0,9.14
50.161108,3.105342,34.09,-1.08,1.46,9.57
50.160824,3.105537,34.26,-1.57,0.32,8.58
50.160542,3.105735,34.12,1.03,0.67,10.46
50.160542,3.105735,34.12,-1.5,0.48,8.13
50.160264,3.105932,34.09,-1.28,0.19,10.62
50.160264,3.105932,34.09,0.11,0.28,8.19
50.15999,3.10613,33.95,-1.98,1.13,10.04
50.15999,3.10613,33.95,-0.56,0.96,9.96
50.159712,3.106333,33.9,-1.02,0.97,10.41
50.159712,3.106333,33.9,-0.36,0.64,11.56
50.159434,3.106543,33.77,-1.98,-0.07,11.48
50.159434,3.106543,33.77,-1.48,0.74,10.49
50.159158,3.106757,33.58,-0.67,1.38,9.05
50.159158,3.106757,33.58,-0.03,1.06,11.51
50.158886,3.10697,33.25,-1.71,-0.15,8.65
50.158886,3.10697,33.25,-0.91,1.26,11.15
50.158621,3.107181,33.16,-0.6,1.99,8.94
50.158621,3.107181,33.16,0.72,1.09,9.21
50.158358,3.107392,33.13,-0.21,1.72,8.92
50.158358,3.107392,33.13,1.07,1.32,10.3
50.1581,3.107613,33.17,0.05,1.41,11.21
50.1581,3.107613,33.17,-0.59,1.31,9.22
50.157841,3.107843,33.2,-0.35,0.6,9.4
50.157841,3.107843,33.2,-0.89,1.15,9.55
50.157585,3.108068,33.31,-0.35,0.76,10.1
50.157585,3.108068,33.31,-1.42,2.13,8.87
50.157324,3.108302,33.32,0.34,-0.02,10.38
50.157324,3.108302,33.32,-2.11,1.13,10.83
50.157065,3.108533,33.51,-0.44,1.6,9.65
50.157065,3.108533,33.51,0.36,1.01,9.21
50.156809,3.10877,33.64,-1.47,0.64,11.67
50.156809,3.10877,33.64,-0.74,1.58,8.47
50.156552,3.109017,33.81,-1.23,1.24,10.15
50.156552,3.109017,33.81,-0.5,0.67,9.51
50.156294,3.109265,33.99,0.82,2.16,9.32
50.156294,3.109265,33.99,-0.91,1.78,9.37
50.156029,3.109517,33.98,-1.82,1.87,7.71
50.156029,3.109517,33.98,-0.94,1.66,12.45
50.15577,3.10977,33.97,-0.68,1.55,8.96
50.155515,3.110027,34.02,-0.68,1.43,9.89
50.155515,3.110027,34.02,-1.68,0.95,10.31
50.155261,3.110291,34.12,-0.99,1.45,10.18
50.155261,3.110291,34.12,-1.05,1.78,8.21
50.155007,3.110557,34.12,-0.03,1.44,10.53
50.155007,3.110557,34.12,-1.66,0.99,9.28
50.154756,3.110825,34.05,0.17,1.77,8.56
50.154756,3.110825,34.05,-0.39,1.7,11.97
50.154502,3.111099,34.07,0.57,1.01,9.45
50.154502,3.111099,34.07,-2.19,1.83,9.84
50.154256,3.111375,33.97,-0.42,1.14,9.62
50.154256,3.111375,33.97,0.66,1.34,11.07
50.154011,3.111651,34.1,-0.31,1.17,8.4
50.154011,3.111651,34.1,0.19,1.22,12.3
50.153768,3.111929,33.99,-0.76,1.04,7.56
50.153768,3.111929,33.99,-2.04,1.08,9.89
50.153526,3.112211,33.98,0.05,2.07,11.35
50.153526,3.112211,33.98,-1.05,1.1,8.08
50.153283,3.112501,33.94,-1.44,1.16,7.87
50.153283,3.112501,33.94,-0.36,0.78,8.85
50.153044,3.112793,33.88,-0.72,1.56,9.41
50.153044,3.112793,33.88,-0.09,1.59,11.45
50.152803,3.113094,33.89,0.04,0.86,9.64
50.152803,3.113094,33.89,-1.36,2.01,10.81
50.152565,3.113392,33.86,0.57,0.68,10.65
50.152565,3.113392,33.86,-0.91,1.84,9.78
50.152333,3.113689,33.72,-0.82,0.91,8.55
50.152333,3.113689,33.72,-0.65,1.65,9.02
50.152098,3.113994,33.67,-1.46,2.34,9.97
50.152098,3.113994,33.67,-1.49,1.97,9.22
50.151865,3.114302,33.54,-0.6,1.24,11.79
50.151865,3.114302,33.54,-1.68,0.91,8.17
50.151641,3.114607,33.51,-1.74,1.75,11.24
50.151641,3.114607,33.51,-1.13,1.18,6.96
50.151419,3.114917,33.42,-1.31,0.58,12.31
50.151419,3.114917,33.42,-1.45,0.96,7.7
50.151197,3.115227,33.42,0.3,1.63,9.07
50.151197,3.115227,33.42,-1.57,0.83,9.91
50.150974,3.115537,33.43,-0.16,1.4,10.71
50.150974,3.115537,33.43,-2.47,2.08,10.26
50.150753,3.115846,33.44,-0.35,0.76,9.31
50.150525,3.116157,33.56,-1.07,2.23,8.14
50.150525,3.116157,33.56,-0.84,1.04,8.61
50.150304,3.116478,33.83,-1.52,1.86,12.43
50.150304,3.116478,33.83,-1.34,1.47,8.69
50.150086,3.116806,33.34,-0.86,0.45,10.69
50.150086,3.116806,33.34,-1.21,1.27,8.09
50.149874,3.117135,33.41,-1.12,1.9,11.6
50.149874,3.117135,33.41,-0.57,2.56,11.98
50.149663,3.117472,33.42,-0.18,1.2,11.82
50.149663,3.117472,33.42,-0.34,1.97,8.11
50.149455,3.117808,33.41,0.11,0.69,9.33
50.149455,3.117808,33.41,-0.82,1.16,9.84
50.149248,3.118141,33.42,-0.06,0.96,10.1
50.149248,3.118141,33.42,-1.96,1.62,10.51
50.149038,3.118475,33.45,-1.09,0.98,9.62
50.149038,3.118475,33.45,-2.2,2.13,10.3
50.148833,3.118811,33.44,-0.34,1.32,8.6
50.148833,3.118811,33.44,-1.06,2.08,10.93
50.14863,3.119153,33.47,-0.29,0.82,8.94
50.14863,3.119153,33.47,-1.85,1.83,9.45
50.148428,3.1195,33.43,-0.57,0.97,9.48
50.148428,3.1195,33.43,-1.57,1.61,8.88
50.148227,3.11985,33.42,-1.69,0.97,6.67
50.148227,3.11985,33.42,-0.54,1.0,9.28
50.148029,3.120197,33.41,-0.14,1.72,10.07
50.148029,3.120197,33.41,-1.47,1.98,10.08
50.147832,3.120546,33.6,0.86,1.46,10.06
50.147832,3.120546,33.6,-1.17,2.23,10.8
50.147635,3.120898,33.68,-1.68,1.01,10.26
50.147635,3.120898,33.68,-1.41,2.18,10.11
50.147435,3.121252,33.76,-1.16,0.68,8.52
50.147435,3.121252,33.76,-1.01,2.07,7.02
50.147229,3.121606,33.69,-0.45,2.41,13.95
50.147229,3.121606,33.69,-2.64,2.27,10.59
50.147029,3.121964,33.87,0.17,0.78,10.72
50.147029,3.121964,33.87,-0.79,-0.01,11.5
50.146831,3.122326,33.9,-1.44,3.12,9.52
50.146831,3.122326,33.9,0.34,-0.45,10.4
50.146635,3.122687,33.9,-1.89,1.09,9.61
50.146635,3.122687,33.9,-0.57,2.76,9.08
50.146438,3.123051,33.89,-1.79,0.39,8.87
50.146245,3.123413,33.75,0.81,2.22,9.81
50.146245,3.123413,33.75,-1.21,0.08,9.59
50.146048,3.123779,33.57,0.25,3.07,8.62
50.146048,3.123779,33.57,0.45,-0.43,11.48
50.145858,3.124139,33.4,0.07,0.86,11.02
50.145858,3.124139,33.4,-0.23,0.82,9.52
50.145664,3.124494,33.33,-0.97,1.68,9.92
50.145664,3.124494,33.33,-1.15,1.7,6.86
50.145469,3.12485,33.23,-2.06,1.49,10.56
50.145469,3.12485,33.23,-2.22,1.33,8.97
50.145273,3.125203,33.21,-1.69,1.22,10.52
50.145273,3.125203,33.21,-0.39,2.04,9.96
50.14508,3.125556,33.21,0.79,0.69,10.28
50.14508,3.125556,33.21,-0.37,2.24,10.37
50.144887,3.125912,33.35,-1.23,1.2,10.26
50.144887,3.125912,33.35,-1.92,0.97,10.07
50.144691,3.126272,33.36,-0.34,0.84,9.73
50.144691,3.126272,33.36,-0.19,2.33,10.47
50.1445,3.126631,33.29,-0.31,1.92,11.02
50.1445,3.126631,33.29,-0.38,0.95,10.6
50.144314,3.126992,33.23,-0.94,1.49,10.07
50.144314,3.126992,33.23,-0.28,1.06,9.85
50.144131,3.127356,33.31,-1.75,1.57,10.49
50.144131,3.127356,33.31,-1.05,0.4,9.08
50.143955,3.12772,33.29,0.47,0.7,11.54
50.143955,3.12772,33.29,0.31,1.99,11.88
50.143762,3.128082,33.33,-0.68,0.81,10.31
50.143762,3.128082,33.33,-1.62,1.65,9.51
50.143568,3.128443,33.38,0.73,1.18,7.72
50.143568,3.128443,33.38,-0.11,1.97,11.5
50.143376,3.128795,33.37,0.05,0.78,9.46
50.143376,3.128795,33.37,-0.16,1.81,9.99
50.143181,3.129149,33.42,0.78,0.93,9.59
50.143181,3.129149,33.42,-0.79,1.76,9.65
50.142989,3.129508,33.38,-0.72,1.12,12.07
50.142989,3.129508,33.38,-1.13,1.36,11.45
50.14279,3.129869,33.48,-1.13,1.45,8.03
50.142597,3.13023,33.33,-1.2,1.36,9.58
50.142597,3.13023,33.33,0.21,1.46,8.95
50.142409,3.130582,33.32,0.39,0.95,10.28
50.142409,3.130582,33.32,-0.79,1.89,9.63
50.142217,3.13094,33.26,-1.99,1.13,8.34
50.142217,3.13094,33.26,-1.35,1.58,10.24
50.142024,3.131295,33.23,-1.61,0.94,9.7
50.142024,3.131295,33.23,-0.06,0.78,9.53
50.141833,3.131647,33.08,-0.4,2.17,10.34
50.141833,3.131647,33.08,-0.63,1.2,9.53
50.141642,3.132005,33.02,0.22,1.05,8.0
50.141642,3.132005,33.02,0.21,2.26,10.23
50.141447,3.13236,32.94,-0.25,0.98,9.09
50.141447,3.13236,32.94,-0.58,0.86,9.52
50.141253,3.132708,32.88,-0.82,1.81,10.3
50.141253,3.132708,32.88,-0.91,1.37,7.4
50.141058,3.133058,32.78,-0.22,1.45,8.01
50.141058,3.133058,32.78,-1.51,1.33,10.69
50.140863,3.133407,32.69,-0.04,1.21,8.09
50.140863,3.133407,32.69,0.67,1.46,10.69
50.140666,3.133745,32.64,1.16,0.5,10.84
50.140666,3.133745,32.64,-1.35,1.75,11.86
50.140471,3.13408,32.62,-0.82,1.12,8.69
50.140471,3.13408,32.62,0.2,1.4,10.69
50.140272,3.134419,32.58,-0.05,0.74,10.19
50.140272,3.134419,32.58,-1.36,0.74,11.32
50.140077,3.134755,32.55,0.49,1.37,9.29
50.140077,3.134755,32.55,-0.22,0.83,9.0
50.13988,3.135091,32.5,-1.33,1.18,9.69
50.13988,3.135091,32.5,-0.82,2.21,12.12
50.139683,3.135425,32.45,-0.76,1.92,9.84
50.139683,3.135425,32.45,-1.24,1.86,11.31
50.139484,3.135754,32.43,1.47,1.39,9.41
50.139484,3.135754,32.43,-0.34,1.58,9.1
50.139286,3.136085,32.45,0.79,0.25,10.17
50.139286,3.136085,32.45,0.33,1.62,9.21
50.139086,3.136413,32.53,0.5,1.5,9.22
50.139086,3.136413,32.53,1.02,1.5,9.52
50.13888,3.136738,32.61,-0.47,1.9,8.41
50.13888,3.136738,32.61,-1.87,1.56,9.62
50.138674,3.137061,32.69,-0.85,1.36,10.09
50.138467,3.137384,32.63,-0.65,1.95,8.67
50.138467,3.137384,32.63,1.12,0.93,9.13
50.138259,3.137707,32.56,0.35,0.95,9.56
50.138259,3.137707,32.56,-2.14,1.59,12.07
50.138051,3.13803,32.44,-0.7,0.55,8.85
50.138051,3.13803,32.44,-0.51,1.47,8.12
50.137843,3.138347,32.42,-1.18,2.13,8.83
50.137843,3.138347,32.42,0.16,0.62,10.72
50.137632,3.138664,32.42,1.02,1.38,9.59
50.137632,3.138664,32.42,0.76,2.15,9.95
50.137423,3.138979,32.43,0.57,0.65,8.87
50.137423,3.138979,32.43,-0.72,1.68,8.45
50.137213,3.139291,32.45,0.74,2.38,8.94
50.137213,3.139291,32.45,0.64,1.83,11.43
50.136997,3.139597,32.47,-0.31,1.12,9.42
50.136997,3.139597,32.47,-0.75,1.86,9.6
50.136785,3.139905,32.42,0.16,1.4,7.58
50.136785,3.139905,32.42,-0.48,1.19,8.3
50.136566,3.140208,32.41,-0.14,1.83,9.84
50.136566,3.140208,32.41,1.02,1.44,10.98
50.13635,3.140513,32.43,-0.32,2.11,11.03
50.13635,3.140513,32.43,-1.23,1.31,10.06
50.136131,3.140809,32.43,-0.46,1.47,9.24
50.136131,3.140809,32.43,-0.11,0.51,9.33
50.135907,3.141104,32.45,1.18,0.19,10.54
50.135907,3.141104,32.45,-1.8,1.05,10.31
50.135682,3.141397,32.59,0.15,1.76,9.37
50.135682,3.141397,32.59,-1.1,0.77,6.01
50.135455,3.141688,32.68,0.54,0.86,8.94
50.135455,3.141688,32.68,-1.31,1.81,10.04
50.135229,3.14198,32.85,-0.82,2.15,8.32
50.135229,3.14198,32.85,-0.36,1.69,9.69
50.135005,3.142272,32.97,-0.77,2.15,10.36
50.135005,3.142272,32.97,-0.31,1.42,9.02
50.134776,3.142567,33.13,-0.24,0.26,10.18
50.134776,3.142567,33.13,0.27,1.7,9.93
50.134544,3.142863,33.34,0.27,1.61,7.06
50.134544,3.142863,33.34,-0.11,1.41,8.6
50.134308,3.143156,33.54,0.57,0.98,12.01
50.134308,3.143156,33.54,-0.99,0.78,9.79
50.134076,3.143451,33.62,0.69,0.86,9.45
50.133844,3.14374,33.58,0.18,1.9,9.06
50.133844,3.14374,33.58,-0.62,1.3,10.23
50.133606,3.144028,33.63,-1.37,1.41,9.42
50.133606,3.144028,33.63,-0.87,1.26,11.18
50.133361,3.14431,33.55,-2.02,1.62,8.29
50.133361,3.14431,33.55,-0.15,0.99,10.07
50.133117,3.14459,33.63,-0.01,1.13,8.73
50.133117,3.14459,33.63,-0.5,1.13,11.54
50.13288,3.144869,33.68,-1.12,1.17,8.49
50.13288,3.144869,33.68,-0.27,2.05,8.66
50.13264,3.145152,33.66,1.17,0.9,10.23
50.13264,3.145152,33.66,-0.6,1.36,10.6
50.132396,3.145428,33.77,0.93,1.33,11.74
50.132396,3.145428,33.77,0.75,0.86,8.69
50.13215,3.145702,33.73,0.38,1.34,9.94
50.13215,3.145702,33.73,0.4,1.42,9.03
50.131897,3.145967,33.62,-1.11,1.47,10.18
50.131897,3.145967,33.62,-0.2,1.58,10.1
50.131644,3.146231,33.64,-0.62,2.0,11.05
50.131644,3.146231,33.64,0.17,1.1,9.62
50.131393,3.146501,33.62,0.15,0.96,11.31
50.131393,3.146501,33.62,-0.8,1.52,9.17
50.13114,3.146769,33.62,-0.96,1.89,9.67
50.13114,3.146769,33.62,1.67,1.57,9.03
50.130893,3.147033,33.63,-0.56,1.63,10.5
50.130893,3.147033,33.63,0.64,1.07,10.12
50.130643,3.147293,33.58,-0.71,1.15,9.34
50.130643,3.147293,33.58,-1.0,1.06,8.54
50.130391,3.147554,33.64,-0.9,2.44,9.34
50.130391,3.147554,33.64,0.19,1.23,11.25
50.130139,3.147803,33.76,-1.2,1.83,7.78
50.130139,3.147803,33.76,-0.26,1.69,10.85
50.129881,3.148051,33.84,-0.85,0.77,8.45
50.129881,3.148051,33.84,-0.33,1.89,10.9
50.129622,3.148301,33.83,0.82,1.55,10.03
50.129622,3.148301,33.83,-0.38,1.66,10.34
50.129358,3.14855,33.93,0.0,1.21,10.31
50.129358,3.14855,33.93,-0.6,1.64,8.61
50.129098,3.148798,33.84,-1.03,1.76,10.81
50.129098,3.148798,33.84,-0.09,1.11,10.02
50.128837,3.149044,33.88,-1.58,0.91,9.08
50.128837,3.149044,33.88,-0.41,1.45,11.19
50.128575,3.149288,33.8,-0.45,1.72,8.97
50.128313,3.14953,33.68,-0.27,1.84,10.85
50.128313,3.14953,33.68,-1.2,1.24,8.86
50.128052,3.149767,33.59,-0.5,1.79,11.56
50.128052,3.149767,33.59,0.66,1.52,9.54
50.127787,3.150002,33.47,-0.79,1.0,11.51
50.127787,3.150002,33.47,-0.62,1.95,9.78
50.127523,3.15023,33.39,-1.13,0.62,10.23
50.127523,3.15023,33.39,0.13,1.75,9.18
50.127259,3.150456,33.3,1.11,0.78,9.6
50.127259,3.150456,33.3,-0.82,1.54,9.54
50.126995,3.150682,33.19,-0.36,1.71,9.2
50.126995,3.150682,33.19,-1.64,1.66,12.26
50.126733,3.150903,33.12,-0.73,0.79,8.78
50.126733,3.150903,33.12,-0.85,2.02,10.78
50.126469,3.151116,33.12,-0.23,1.72,9.9
50.126469,3.151116,33.12,0.28,1.62,8.3
50.126207,3.15133,33.07,-0.9,1.83,10.35
50.126207,3.15133,33.07,-0.43,2.05,11.75
50.125944,3.151542,33.01,-0.14,1.36,8.33
50.125944,3.151542,33.01,0.18,1.42,8.56
50.125682,3.151752,32.92,-0.65,2.13,7.12
50.125682,3.151752,32.92,-0.44,1.65,9.21
50.125416,3.151958,32.87,-0.34,0.82,10.37
50.125416,3.151958,32.87,-0.36,1.78,9.43
50.125147,3.152159,32.79,-0.6,1.3,7.87
50.125147,3.152159,32.79,-1.1,1.53,11.44
50.124881,3.152354,32.8,1.11,1.56,11.02
50.124881,3.152354,32.8,-0.13,1.74,7.75
50.124616,3.152551,32.81,-0.02,1.56,9.74
50.124616,3.152551,32.81,-1.37,1.1,11.41
50.124353,3.152742,32.8,-0.65,1.65,6.85
50.124353,3.152742,32.8,0.1,1.95,7.44
50.124085,3.152934,32.84,-2.0,0.86,11.31
50.124085,3.152934,32.84,-1.03,1.07,9.33
50.123815,3.153121,32.97,1.59,1.36,10.9
50.123815,3.153121,32.97,-0.79,0.63,10.98
50.123542,3.153306,32.99,-1.43,1.74,8.33
50.123268,3.153491,33.14,-0.07,1.15,9.08
50.123268,3.153491,33.14,-0.36,1.55,11.3
50.122991,3.153676,33.3,-1.46,0.89,10.59
50.122991,3.153676,33.3,-0.5,1.79,9.48
50.122719,3.153859,33.52,-0.77,1.72,7.47
50.122719,3.153859,33.52,0.2,1.14,11.91
50.122441,3.15405,33.67,0.16,1.01,7.78
50.122441,3.15405,33.67,-0.4,-0.34,9.28
50.122164,3.154236,33.5,-1.0,0.67,9.64
50.122164,3.154236,33.5,-1.35,0.23,10.97
50.121888,3.154415,33.06,-0.17,1.69,11.44
50.121888,3.154415,33.06,-0.63,1.52,7.69
50.121615,3.154592,32.87,0.33,0.41,9.91
50.121615,3.154592,32.87,-1.33,1.15,10.7
50.121345,3.154771,32.78,0.33,2.16,9.65
50.121345,3.154771,32.78,0.23,0.52,11.44
50.121078,3.154946,32.85,-1.23,0.13,11.27
50.121078,3.154946,32.85,-1.44,1.55,9.62
50.12081,3.155116,32.78,0.17,0.87,8.58
50.12081,3.155116,32.78,-0.39,0.84,9.87
50.120539,3.15529,32.93,-1.4,0.82,12.64
50.120539,3.15529,32.93,-0.28,1.45,7.8
50.120266,3.155467,32.96,-0.9,0.75,9.55
50.120266,3.155467,32.96,-0.61,1.05,11.43
50.11999,3.155645,32.99,-0.79,1.27,9.08
50.11999,3.155645,32.99,0.08,0.37,10.77
50.119717,3.15581,33.15,-0.73,1.07,10.61
50.119717,3.15581,33.15,-0.48,0.57,10.19
50.119439,3.155986,33.25,-0.74,0.9,9.05
50.119439,3.155986,33.25,0.31,0.15,9.13
50.119158,3.156161,33.18,-1.01,0.1,11.33
50.119158,3.156161,33.18,0.46,1.56,10.35
50.118885,3.156336,32.64,-0.72,-0.01,10.41
50.118885,3.156336,32.64,-1.06,1.02,9.44
50.118621,3.15651,32.22,-0.66,0.72,8.84
50.118621,3.15651,32.22,0.3,0.78,9.34
50.118355,3.156685,32.02,0.57,1.16,10.88
50.118355,3.156685,32.02,0.45,1.32,11.68
50.118086,3.156863,32.29,-0.5,2.09,9.79
50.118086,3.156863,32.29,-1.06,1.4,8.97
50.117813,3.157033,32.62,-0.19,1.16,7.64
50.117538,3.157206,32.79,-1.02,0.78,10.47
50.117538,3.157206,32.79,-0.71,1.04,11.01
50.117266,3.157374,32.82,-1.05,1.31,9.29
50.117266,3.157374,32.82,-0.91,0.39,11.45
50.116991,3.15755,32.86,-0.66,1.37,11.72
50.116991,3.15755,32.86,-0.92,1.41,9.02
50.116718,3.15773,32.83,0.18,1.23,9.53
50.116718,3.15773,32.83,-0.48,1.13,8.81
50.11644,3.157909,32.84,-1.01,1.32,8.11
50.11644,3.157909,32.84,-0.54,0.97,6.47
50.116163,3.158085,32.9,-0.23,0.34,9.97
50.116163,3.158085,32.9,-1.3,1.8,10.63
50.115891,3.158258,32.95,-1.18,1.38,9.17
50.115891,3.158258,32.95,-0.06,1.03,9.65
50.115619,3.158427,32.95,-1.62,1.1,10.14
50.115619,3.158427,32.95,-1.25,1.11,8.9
50.115342,3.158604,33.11,0.76,1.13,11.71
50.115342,3.158604,33.11,0.08,1.96,10.33
50.115063,3.158778,33.18,-0.98,1.58,9.61
50.115063,3.158778,33.18,-0.82,1.26,11.54
50.114785,3.158951,33.21,-0.82,1.54,10.12
50.114785,3.158951,33.21,-1.25,1.67,10.36
50.114505,3.159118,33.35,-1.38,0.39,6.83
50.114505,3.159118,33.35,-0.13,0.7,8.32
50.114222,3.159287,33.45,-0.17,1.62,10.33
50.114222,3.159287,33.45,-1.55,1.99,12.18
50.113938,3.159462,33.42,-0.3,1.48,8.15
50.113938,3.159462,33.42,-0.99,1.53,10.87
50.11366,3.15963,33.48,-1.33,0.69,7.81
50.11366,3.15963,33.48,-1.77,1.79,11.64
50.113381,3.15981,33.46,-1.19,1.74,10.4
50.113381,3.15981,33.46,-1.11,-0.72,13.26
50.113104,3.159982,33.45,-1.58,1.4,7.35
50.113104,3.159982,33.45,-2.01,1.46,11.44
50.112822,3.160164,33.4,-0.18,1.3,10.94
50.112822,3.160164,33.4,-1.42,1.28,10.12
50.112544,3.160335,33.41,-0.83,1.41,9.23
50.112544,3.160335,33.41,-1.09,0.44,8.29
50.112264,3.160519,33.29,-0.72,1.84,8.49
50.112264,3.160519,33.29,-0.33,0.68,8.47
50.111985,3.160695,33.27,-0.18,0.71,9.52
50.11171,3.160856,33.2,-0.42,2.02,9.09
50.11171,3.160856,33.2,-1.11,1.36,9.98
50.111429,3.16102,33.13,-0.69,2.81,12.69
50.111429,3.16102,33.13,-2.22,1.33,7.88
50.111152,3.161189,32.98,-1.17,1.95,11.97
50.111152,3.161189,32.98,-0.46,1.16,10.52
50.110878,3.161362,32.81,-2.34,2.51,11.61
50.110878,3.161362,32.81,0.51,0.97,11.69
50.110608,3.16153,32.58,-0.1,0.23,11.97
50.110608,3.16153,32.58,-1.95,1.31,11.49
50.110334,3.161702,32.47,-0.89,1.85,8.23
50.110334,3.161702,32.47,-0.9,0.97,9.04
50.110064,3.161869,32.36,-0.18,1.49,9.17
50.110064,3.161869,32.36,-0.39,0.91,11.16
50.109796,3.162036,32.25,-0.12,0.55,10.66
50.109796,3.162036,32.25,-0.94,1.21,11.41
50.109528,3.162203,32.09,-0.26,2.39,10.73
50.109528,3.162203,32.09,-1.12,1.95,9.14
50.109259,3.162365,32.12,-1.24,2.26,9.71
50.109259,3.162365,32.12,-0.97,1.53,8.63
50.10899,3.162519,32.09,-0.98,1.96,7.55
50.10899,3.162519,32.09,-0.31,1.99,8.55
50.108718,3.162679,32.07,-0.55,1.45,9.18
50.108718,3.162679,32.07,0.1,1.69,10.82
50.108446,3.162845,32.01,-0.93,2.39,7.85
50.108446,3.162845,32.01,1.13,1.41,7.81
50.108176,3.163006,31.95,0.74,0.95,10.0
50.108176,3.163006,31.95,-0.54,1.75,9.99
50.107908,3.163158,31.91,-0.35,1.09,9.36
50.107908,3.163158,31.91,-0.67,1.12,11.88
50.107642,3.163309,31.85,-1.08,1.08,10.66
50.107642,3.163309,31.85,-1.27,1.91,10.59
50.10737,3.163464,31.87,0.36,1.47,10.56
50.10737,3.163464,31.87,-0.33,1.45,8.57
50.107101,3.163617,31.84,-0.36,0.74,10.66
50.107101,3.163617,31.84,-0.85,0.37,10.16
50.10683,3.163771,31.76,-1.31,0.61,11.79
50.10683,3.163771,31.76,-1.24,0.92,10.7
50.106561,3.163923,31.76,-0.7,0.73,11.14
50.106292,3.164072,31.76,0.61,0.82,7.73
50.106292,3.164072,31.76,-0.43,2.39,7.29
50.106024,3.164215,31.69,-0.24,2.06,7.95
50.106024,3.164215,31.69,-0.32,2.31,8.14
50.105751,3.164356,31.69,0.15,1.87,9.3
50.105751,3.164356,31.69,-0.67,1.48,8.81
50.105479,3.164505,31.67,-1.29,0.95,7.71
50.105479,3.164505,31.67,-0.77,1.71,10.09
50.105212,3.164652,31.65,0.74,2.13,11.08
50.105212,3.164652,31.65,-0.39,2.18,9.67
50.104943,3.164799,31.7,-1.15,0.97,9.13
50.104943,3.164799,31.7,-1.52,1.49,9.04
50.104673,3.164943,31.65,-1.09,1.78,9.29
50.104673,3.164943,31.65,-0.53,1.54,9.66
50.104405,3.165087,31.69,-0.34,0.4,10.08
50.104405,3.165087,31.69,-1.21,0.46,10.36
50.104136,3.165226,31.72,-0.31,1.36,10.99
50.104136,3.165226,31.72,0.52,1.12,9.04
50.103864,3.165365,31.73,-0.1,0.99,10.39
50.103864,3.165365,31.73,-2.28,1.2,8.76
50.103595,3.165504,31.8,0.06,2.07,9.71
50.103595,3.165504,31.8,0.46,1.51,9.81
50.103322,3.165647,31.84,0.03,1.65,10.29
50.103322,3.165647,31.84,-0.82,1.45,11.16
50.103051,3.165781,31.86,-0.25,0.84,11.32
50.103051,3.165781,31.86,-0.93,0.94,12.61
50.10278,3.165916,31.9,-1.15,1.08,11.81
50.10278,3.165916,31.9,0.73,0.73,9.29
50.102507,3.166051,31.94,-0.66,0.37,10.91
50.102507,3.166051,31.94,-0.64,0.94,9.5
50.102232,3.166184,31.98,-0.82,2.04,11.33
50.102232,3.166184,31.98,-0.25,1.15,10.1
50.101954,3.166318,32.01,-1.1,1.35,10.67
50.101954,3.166318,32.01,-0.56,1.12,9.96
50.101679,3.166449,32.06,-1.67,1.42,10.34
50.101679,3.166449,32.06,-1.96,1.53,9.25
50.101405,3.166577,32.12,-0.08,2.47,8.82
50.101405,3.166577,32.12,-1.31,2.25,7.67
50.101126,3.166711,32.16,0.11,1.73,7.45
50.100845,3.166844,32.2,-0.35,0.85,9.74
50.100845,3.166844,32.2,0.01,1.39,10.09
50.100567,3.166975,32.26,-0.23,1.74,11.47
50.100567,3.166975,32.26,-0.54,2.19,10.01
50.100288,3.167104,32.29,-1.29,1.79,8.53
50.100288,3.167104,32.29,-0.83,1.61,8.18
50.100007,3.167233,32.35,0.06,1.76,10.12
50.100007,3.167233,32.35,-0.42,2.26,8.4
50.099729,3.16736,32.4,-0.81,1.3,9.46
50.099729,3.16736,32.4,-0.12,2.1,10.79
50.099451,3.167484,32.46,-0.11,1.82,10.06
50.099451,3.167484,32.46,-1.21,1.32,9.84
50.09917,3.167615,32.4,0.09,1.81,9.45
50.09917,3.167615,32.4,-0.03,1.12,11.18
50.098889,3.167741,32.43,-0.72,0.77,9.42
50.098889,3.167741,32.43,0.18,2.09,9.9
50.098606,3.167869,32.43,-0.23,1.47,9.42
50.098606,3.167869,32.43,-0.39,1.43,9.81
50.098326,3.167991,32.46,0.21,1.9,10.24
50.098326,3.167991,32.46,-1.16,1.26,10.15
50.098043,3.16811,32.48,-0.69,1.74,11.43
50.098043,3.16811,32.48,0.26,2.05,10.08
50.097758,3.168234,32.5,0.26,1.5,9.32
50.097758,3.168234,32.5,1.2,1.56,10.26
50.097475,3.168353,32.52,-0.17,0.62,11.39
50.097475,3.168353,32.52,-0.85,2.09,9.46
50.09719,3.168472,32.54,-1.46,1.7,7.69
50.09719,3.168472,32.54,-0.37,0.75,9.73
50.096907,3.168593,32.57,0.32,0.72,9.22
50.096907,3.168593,32.57,-0.89,1.68,9.13
50.096625,3.168708,32.57,-1.27,2.02,9.09
50.096625,3.168708,32.57,-0.51,1.57,8.02
50.096342,3.168821,32.58,-0.1,0.68,11.62
50.096342,3.168821,32.58,-0.53,1.57,9.91
50.096057,3.168936,32.58,-1.67,0.79,8.88
50.096057,3.168936,32.58,-1.18,1.85,8.94
50.095775,3.169045,32.55,0.83,1.8,9.16
50.095775,3.169045,32.55,0.24,1.64,8.6
50.095489,3.169156,32.55,-0.62,1.35,11.2
50.095204,3.169264,32.45,-1.56,2.15,10.41
50.095204,3.169264,32.45,-1.05,2.04,10.48
50.09492,3.169374,32.46,-0.87,1.25,7.83
50.09492,3.169374,32.46,-0.08,0.69,10.29
50.094635,3.169486,32.49,-0.77,2.05,11.17
50.094635,3.169486,32.49,-0.53,1.73,11.11
50.094351,3.169593,32.55,-1.16,0.78,9.54
50.094351,3.169593,32.55,0.26,1.16,10.26
50.094068,3.1697,32.62,-0.82,0.12,9.86
50.094068,3.1697,32.62,-0.26,2.21,10.17
50.093782,3.169807,32.75,0.33,1.85,10.47
50.093782,3.169807,32.75,-0.55,1.92,8.45
50.093495,3.169912,32.81,-0.71,1.45,10.63
50.093495,3.169912,32.81,-0.36,1.74,9.45
50.093207,3.170014,32.92,-1.55,1.37,8.03
50.093207,3.170014,32.92,-1.36,0.64,11.43
50.092917,3.170113,33.1,-1.3,1.76,8.6
50.092917,3.170113,33.1,0.15,2.04,9.17
50.092627,3.170207,33.27,-0.82,2.04,9.64
50.092627,3.170207,33.27,0.33,0.81,9.39
50.092335,3.170298,33.34,-0.29,2.4,10.62
50.092335,3.170298,33.34,-0.04,0.85,8.89
50.092041,3.17039,33.51,-0.63,2.05,9.18
50.092041,3.17039,33.51,0.53,1.34,8.84
50.091747,3.170484,33.6,-0.57,1.44,11.35
50.091747,3.170484,33.6,-0.54,0.92,7.35
50.091454,3.170571,33.69,-1.39,1.98,11.01
50.091454,3.170571,33.69,-0.44,1.1,10.19
50.091162,3.170676,33.83,-1.93,1.77,9.1
50.091162,3.170676,33.83,-2.15,2.14,10.09
50.090862,3.170782,33.93,-1.0,1.11,11.09
50.090862,3.170782,33.93,-0.01,0.34,8.38
50.090566,3.170874,34.12,-0.48,1.13,9.02
50.090566,3.170874,34.12,1.63,0.49,8.22
50.090274,3.170968,33.51,-0.64,1.62,9.43
50.090274,3.170968,33.51,0.35,0.61,9.04
50.089981,3.171056,33.19,-1.04,1.7,12.36
50.08969,3.171142,33.18,0.05,0.76,8.3
50.08969,3.171142,33.18,-1.12,0.16,10.3
50.0894,3.17123,33.18,-0.73,1.59,9.34
50.0894,3.17123,33.18,-0.5,0.42,10.49
50.089107,3.171314,33.1,-1.13,1.4,10.61
50.089107,3.171314,33.1,-0.37,1.53,7.85
50.088816,3.171397,33.07,0.23,1.09,10.2
50.088816,3.171397,33.07,-0.8,1.21,10.23
50.088523,3.171484,32.98,-1.13,1.47,9.47
50.088523,3.171484,32.98,-0.33,0.9,9.86
50.088235,3.171569,32.95,-0.55,1.19,10.57
50.088235,3.171569,32.95,-0.57,1.77,11.48
50.087945,3.171658,32.91,-0.37,1.0,10.72
50.087945,3.171658,32.91,-1.12,0.8,10.81
50.087649,3.171744,32.99,-0.17,1.82,8.71
50.087649,3.171744,32.99,0.11,1.97,9.12
50.08736,3.171838,32.93,-0.39,0.47,10.88
50.08736,3.171838,32.93,-0.97,0.8,9.51
50.087069,3.171931,32.99,-0.64,1.15,10.33
50.087069,3.171931,32.99,-0.12,2.32,10.46
50.086777,3.17202,33.07,0.09,1.24,8.63
50.086777,3.17202,33.07,0.23,1.07,11.71
50.086487,3.172106,33.13,0.41,2.05,8.85
50.086487,3.172106,33.13,-1.11,0.94,10.2
50.086192,3.172195,33.17,-1.07,1.33,10.52
50.086192,3.172195,33.17,-0.5,1.43,7.99
50.085899,3.172277,33.22,-0.98,1.67,10.81
50.085899,3.172277,33.22,-0.03,2.03,8.36
50.085606,3.172366,33.29,1.01,1.77,9.93
50.085606,3.172366,33.29,-0.91,0.99,10.81
50.085308,3.172452,33.35,-1.26,1.42,9.62
50.085308,3.172452,33.35,-1.4,1.12,9.74
50.085011,3.172546,33.31,-1.65,0.53,9.24
50.085011,3.172546,33.31,-0.45,0.52,10.46
50.084718,3.172634,33.35,-0.75,1.11,8.24
50.084718,3.172634,33.35,-1.39,0.78,10.67
50.084422,3.172727,33.27,-0.69,1.66,10.01
50.084422,3.172727,33.27,-0.68,0.99,9.47
50.084125,3.172817,33.21,-1.17,1.66,11.21
50.084125,3.172817,33.21,-0.62,1.62,8.54
50.083832,3.172906,33.23,-0.34,1.24,10.82
50.083832,3.172906,33.23,-0.61,1.28,8.58
50.083537,3.172998,33.13,0.13,1.48,9.32
50.083247,3.173088,33.0,-0.26,1.13,12.03
50.083247,3.173088,33.0,-1.11,0.84,9.35
50.08296,3.17318,32.34,-1.14,1.56,10.75
50.08296,3.17318,32.34,-0.08,2.0,10.9
50.082677,3.173265,31.69,-0.15,1.45,9.52
50.082677,3.173265,31.69,-1.3,1.28,11.16
50.0824,3.173342,31.44,-0.32,0.88,11.04
50.0824,3.173342,31.44,-0.34,0.59,8.74
50.082127,3.17342,31.2,-1.32,0.58,10.78
50.082127,3.17342,31.2,-0.5,0.82,9.61
50.081858,3.173493,30.32,-1.42,0.64,9.02
50.081858,3.173493,30.32,-2.22,0.07,9.92
50.081593,3.173569,29.47,0.04,1.1,6.75
50.081593,3.173569,29.47,-0.67,0.79,9.02
50.081329,3.173654,28.68,-0.3,1.54,9.03
50.081329,3.173654,28.68,0.03,1.42,8.39
50.081077,3.173731,28.0,-0.44,0.68,10.34
50.081077,3.173731,28.0,0.45,1.65,9.4
50.080833,3.173808,27.71,-1.03,1.28,9.52
50.080833,3.173808,27.71,0.24,2.54,8.63
50.08059,3.173886,27.8,-0.98,1.33,11.05
50.08059,3.173886,27.8,0.09,1.56,11.01
50.080344,3.173966,28.05,-1.69,1.59,9.36
50.080344,3.173966,28.05,1.01,1.68,9.6
50.080097,3.174054,28.36,-1.13,1.37,10.63
50.080097,3.174054,28.36,-0.86,1.94,11.38
50.079846,3.174146,28.55,0.23,1.81,10.36
50.079846,3.174146,28.55,-1.34,1.11,9.16
50.079594,3.174231,28.87,0.49,1.89,9.6
50.079594,3.174231,28.87,-0.57,1.48,9.52
50.079337,3.17431,29.04,0.19,1.3,8.66
50.079337,3.17431,29.04,1.18,1.97,7.49
50.079079,3.174388,29.39,-0.78,1.19,11.21
50.079079,3.174388,29.39,-1.16,1.45,8.77
50.07882,3.174465,29.61,-0.52,1.51,9.84
50.07882,3.174465,29.61,0.09,1.93,10.67
50.078561,3.174541,29.8,-0.43,1.75,7.01
50.078561,3.174541,29.8,-1.08,1.47,11.35
50.078299,3.17462,29.9,-0.92,1.39,9.33
50.078035,3.174701,29.95,0.8,2.39,8.53
50.078035,3.174701,29.95,0.19,1.54,10.81
50.07777,3.17478,30.0,-0.91,1.62,9.84
50.07777,3.17478,30.0,-0.49,0.57,10.97
50.077502,3.174864,30.2,-0.4,1.44,6.74
50.077502,3.174864,30.2,-0.99,0.58,9.86
50.077236,3.17494,30.28,-0.41,1.75,8.55
50.077236,3.17494,30.28,-0.95,0.83,10.62
50.076964,3.175017,30.45,1.28,1.74,9.93
50.076964,3.175017,30.45,-0.23,1.7,9.72
50.076693,3.175088,30.54,-1.7,1.38,8.61
50.076693,3.175088,30.54,-1.32,1.58,11.31
50.076422,3.175153,30.67,-1.33,1.15,9.78
50.076422,3.175153,30.67,0.26,1.23,10.06
50.07615,3.175224,30.75,-0.4,1.79,10.36
50.07615,3.175224,30.75,-1.26,1.37,9.79
50.075879,3.175303,30.8,-0.14,1.09,9.48
50.075879,3.175303,30.8,-1.74,1.62,8.86
50.075607,3.175383,30.91,-0.88,2.21,10.24
50.075607,3.175383,30.91,-1.47,2.01,9.89
50.075333,3.175463,31.06,-0.87,0.84,10.2
50.075333,3.175463,31.06,-0.87,1.35,8.09
50.075055,3.175549,31.18,-0.69,2.04,7.8
50.075055,3.175549,31.18,-0.07,1.92,10.3
50.07478,3.175635,31.32,-0.36,1.69,8.97
50.07478,3.175635,31.32,-0.57,1.65,9.6
50.074502,3.17572,31.41,-0.29,2.09,10.21
50.074502,3.17572,31.41,-1.46,1.24,11.18
50.074226,3.175796,31.57,-0.52,0.94,9.0
50.074226,3.175796,31.57,-0.28,1.23,9.61
50.073947,3.175878,31.69,0.56,1.34,7.83
50.073947,3.175878,31.69,-2.02,1.72,8.56
50.073669,3.17596,31.68,-1.51,1.69,8.12
50.073669,3.17596,31.68,0.93,0.03,10.88
50.073386,3.176041,31.77,-0.63,1.59,9.08
50.073386,3.176041,31.77,-1.48,1.72,8.84
50.073103,3.176126,31.95,-0.9,1.27,8.6
50.073103,3.176126,31.95,-0.74,2.2,9.7
50.07282,3.176204,32.0,-0.92,1.43,8.69
50.072538,3.176293,31.95,1.07,1.53,9.87
50.072538,3.176293,31.95,0.21,1.56,8.28
50.072257,3.176378,32.26,-0.12,0.97,10.93
50.072257,3.176378,32.26,-1.3,2.05,9.56
50.071968,3.176462,32.33,-0.81,2.26,11.32
50.071968,3.176462,32.33,0.1,1.78,10.16
50.071677,3.176546,32.59,-0.37,1.5,6.92
50.071677,3.176546,32.59,-0.3,1.73,8.52
50.071388,3.17663,32.68,-0.1,1.28,10.01
50.071388,3.17663,32.68,-1.25,1.83,9.49
50.071099,3.17671,32.77,-0.47,1.8,8.89
50.071099,3.17671,32.77,-0.47,1.56,11.56
50.070809,3.176781,32.93,-0.72,1.92,9.45
50.070809,3.176781,32.93,-0.98,1.53,8.28
50.070515,3.176858,33.07,-1.94,1.54,10.37
50.070515,3.176858,33.07,-1.47,1.22,6.89
50.070221,3.176932,33.28,1.42,1.53,9.48
50.070221,3.176932,33.28,-0.68,2.26,10.85
50.069932,3.177002,33.43,0.3,1.25,7.85
50.069932,3.177002,33.43,-0.69,1.05,11.47
50.069635,3.177071,33.48,0.2,0.97,10.21
50.069635,3.177071,33.48,-0.21,2.01,10.36
50.069338,3.177141,33.6,-0.39,1.11,8.8
50.069338,3.177141,33.6,0.54,1.96,10.31
50.069042,3.177201,33.71,0.26,1.03,10.24
50.069042,3.177201,33.71,-0.91,2.37,8.96
50.06874,3.177269,33.55,0.09,0.69,11.3
50.06874,3.177269,33.55,-0.16,1.36,7.9
50.068439,3.177339,33.73,-0.36,1.47,10.01
50.068439,3.177339,33.73,-0.95,1.44,10.02
50.068139,3.177401,33.95,-0.79,1.72,10.9
50.068139,3.177401,33.95,-0.83,1.29,11.41
50.067835,3.177463,34.03,0.95,0.34,9.55
50.067835,3.177463,34.03,-0.84,0.6,9.48
50.067533,3.177519,33.63,-0.22,0.81,8.99
50.067533,3.177519,33.63,-1.17,1.52,8.38
50.067235,3.177573,33.47,-0.06,0.51,12.4
50.067235,3.177573,33.47,-1.07,1.85,10.19
50.066936,3.177627,33.44,0.6,0.89,9.73
50.06664,3.177679,33.49,0.38,2.15,8.39
50.06664,3.177679,33.49,-1.25,1.02,10.76
50.06634,3.177731,33.51,0.2,1.41,11.35
50.06634,3.177731,33.51,0.58,0.45,10.99
50.066037,3.177786,33.61,-0.4,2.15,11.07
50.066037,3.177786,33.61,1.6,0.62,9.12
50.065738,3.177837,33.74,-0.7,1.78,11.29
50.065738,3.177837,33.74,0.43,1.19,8.99
50.065436,3.177886,33.77,-0.86,1.37,8.79
50.065436,3.177886,33.77,0.16,0.34,10.09
50.065133,3.17793,33.7,-0.76,1.27,9.26
50.065133,3.17793,33.7,-0.38,1.55,11.08
50.064831,3.177972,33.65,-0.29,1.28,11.61
50.064831,3.177972,33.65,0.96,1.72,10.77
50.064528,3.178013,33.65,0.34,1.47,10.37
50.064528,3.178013,33.65,-0.48,1.5,12.21
50.064226,3.178046,33.63,-0.58,1.51,10.15
50.064226,3.178046,33.63,-0.56,0.74,10.61
50.06393,3.178074,33.51,-1.24,0.49,10.51
50.06393,3.178074,33.51,-0.84,2.52,11.83
50.063631,3.178101,33.42,-0.3,0.48,8.61
50.063631,3.178101,33.42,0.71,1.06,11.88
50.063332,3.178132,33.35,-1.22,1.1,9.07
50.063332,3.178132,33.35,-0.28,1.57,10.46
50.063031,3.178161,33.19,-0.54,1.31,10.76
50.063031,3.178161,33.19,-0.34,1.08,9.07
50.062731,3.17819,33.07,-0.63,1.52,10.52
50.062731,3.17819,33.07,-1.61,0.83,6.76
50.062432,3.178218,33.14,0.61,1.22,6.72
50.062432,3.178218,33.14,-0.19,1.88,9.84
50.062132,3.178244,33.14,0.05,0.63,8.98
50.062132,3.178244,33.14,0.26,0.61,10.86
50.061835,3.17827,33.15,-1.32,1.54,9.84
50.061835,3.17827,33.15,1.7,1.13,8.89
50.061536,3.178292,33.27,0.33,1.73,10.06
50.061536,3.178292,33.27,-0.07,1.57,10.07
50.061234,3.178311,33.35,-1.39,2.44,10.65
50.061234,3.178311,33.35,1.26,0.77,10.03
50.060933,3.178325,33.5,-1.94,1.73,11.46
50.060933,3.178325,33.5,0.86,0.92,8.86
50.060634,3.178332,33.64,-1.87,2.14,8.92
50.060634,3.178332,33.64,-0.36,1.18,9.53
50.060333,3.178342,33.62,-0.57,1.31,7.1
50.060333,3.178342,33.62,-0.69,1.47,12.05
50.060036,3.178349,33.68,0.54,2.18,9.37
50.059736,3.178361,33.6,-0.31,0.7,10.65
50.059736,3.178361,33.6,0.09,0.36,10.36
50.059429,3.178367,33.66,0.08,1.35,10.59
50.059429,3.178367,33.66,0.14,0.68,8.05
50.059118,3.178377,33.77,0.42,1.61,9.42
50.059118,3.178377,33.77,-1.29,0.57,8.56
50.058812,3.178384,33.84,-0.42,1.54,10.07
50.058812,3.178384,33.84,-1.02,0.72,10.18
50.058513,3.17838,33.86,-0.01,1.63,7.92
50.058513,3.17838,33.86,-0.82,2.48,12.35
50.05821,3.178378,33.95,-1.13,1.2,8.42
50.05821,3.178378,33.95,-0.73,2.2,10.18
50.057908,3.178368,34.02,-0.56,1.7,9.19
50.057908,3.178368,34.02,-0.27,0.71,9.26
50.057603,3.178363,34.08,-0.3,1.06,10.17
50.057603,3.178363,34.08,-0.28,0.12,9.93
50.0573,3.178359,33.42,-0.46,0.8,11.23
50.0573,3.178359,33.42,-1.6,0.64,9.46
50.057003,3.17835,33.04,0.05,0.65,9.36
50.057003,3.17835,33.04,-1.21,1.15,7.74
50.056713,3.178332,32.85,-0.01,1.6,9.54
50.056713,3.178332,32.85,0.15,0.32,10.89
50.056423,3.178315,32.85,-0.4,0.99,9.95
50.056423,3.178315,32.85,1.55,0.54,9.7
50.056131,3.178303,32.89,-0.19,0.1,8.91
50.056131,3.178303,32.89,-1.12,2.0,10.62
50.055836,3.178291,32.92,0.1,0.52,9.3
50.055836,3.178291,32.92,-0.09,-0.53,8.16
50.055545,3.178268,32.96,-0.62,1.32,10.03
50.055545,3.178268,32.96,-1.32,-0.25,7.97
50.05525,3.178248,32.95,-0.61,0.68,12.33
50.05525,3.178248,32.95,-0.39,1.33,10.3
50.054956,3.178224,32.87,-0.16,1.72,9.36
50.054956,3.178224,32.87,-0.9,0.11,11.45
50.054663,3.178197,32.77,-0.08,0.95,10.72
50.054663,3.178197,32.77,-0.3,0.94,10.84
50.054372,3.178168,32.73,-0.2,1.41,7.54
50.054372,3.178168,32.73,-0.03,0.41,10.24
50.05408,3.178137,32.73,0.83,1.25,12.48
50.053784,3.178111,32.65,-1.39,1.56,9.44
50.053784,3.178111,32.65,-0.65,0.4,9.17
50.053492,3.178083,32.57,0.28,0.14,9.27
50.053492,3.178083,32.57,-0.6,0.14,10.38
50.053202,3.178052,32.54,-0.52,0.71,9.77
50.053202,3.178052,32.54,-1.14,1.58,10.02
50.052909,3.17802,32.75,-0.06,0.41,8.9
50.052909,3.17802,32.75,1.0,0.5,6.3
50.052613,3.177984,32.82,-2.04,1.57,10.35
50.052613,3.177984,32.82,-1.25,1.56,10.39
50.05232,3.177943,32.86,0.46,1.26,7.87
50.05232,3.177943,32.86,-1.15,1.76,12.13
50.052025,3.177898,32.84,0.04,2.15,8.75
50.052025,3.177898,32.84,-0.01,1.41,9.75
50.051728,3.177854,32.72,-0.48,0.88,10.6
50.051728,3.177854,32.72,-0.16,1.73,9.34
50.051436,3.177808,32.5,-0.82,1.89,11.38
50.051436,3.177808,32.5,-1.88,1.99,8.27
50.051143,3.177762,32.45,0.34,0.83,9.32
50.051143,3.177762,32.45,1.24,1.7,9.96
50.050853,3.177709,32.24,-0.49,1.07,12.25
50.050853,3.177709,32.24,0.29,1.61,10.59
50.050564,3.177654,32.14,-1.17,1.86,10.54
50.050564,3.177654,32.14,-0.79,1.12,9.87
50.050272,3.1776,31.88,-0.06,1.71,11.49
50.050272,3.1776,31.88,-0.49,1.39,10.57
50.049984,3.177551,31.61,0.52,1.73,9.91
50.049984,3.177551,31.61,-2.03,0.84,10.12
50.049699,3.1775,31.42,-1.04,0.92,11.01
50.049699,3.1775,31.42,-0.05,2.22,9.31
50.049417,3.17745,31.24,-1.21,1.81,7.31
50.049417,3.17745,31.24,-1.38,1.7,9.5
50.049139,3.177391,31.12,0.13,2.18,10.68
50.049139,3.177391,31.12,-0.23,0.67,11.19
50.048857,3.17733,31.0,0.81,2.19,9.13
50.048857,3.17733,31.0,-1.01,1.86,8.38
50.04858,3.177266,30.95,-0.75,1.46,9.96
50.04858,3.177266,30.95,0.2,1.19,10.09
50.048306,3.177205,30.84,0.54,1.58,10.56
50.048306,3.177205,30.84,0.79,1.51,10.3
50.048032,3.177141,30.75,-0.52,1.23,6.85
50.047759,3.177076,30.67,0.35,2.5,9.87
50.047759,3.177076,30.67,-0.56,1.8,8.14
50.047488,3.177006,30.64,0.92,1.9,12.05
50.047488,3.177006,30.64,-0.92,2.08,7.88
50.047215,3.176938,30.48,-1.85,1.16,11.8
50.047215,3.176938,30.48,-0.19,2.21,6.56
50.046942,3.176869,30.37,0.09,1.52,10.8
50.046942,3.176869,30.37,0.46,2.21,8.49
50.046673,3.1768,30.35,-0.43,1.34,11.25
50.046673,3.1768,30.35,-0.88,1.31,10.07
50.046403,3.176731,30.25,-0.22,1.55,10.78
50.046403,3.176731,30.25,-1.56,1.3,9.81
50.046137,3.176659,30.14,-1.03,1.66,11.29
50.046137,3.176659,30.14,-0.13,1.42,10.02
50.04587,3.176586,30.12,-0.18,1.92,10.3
50.04587,3.176586,30.12,-0.45,1.2,10.15
50.045603,3.176502,30.02,1.14,2.7,11.01
50.045603,3.176502,30.02,0.22,2.44,9.73
50.045339,3.176414,29.97,0.16,1.54,10.9
50.045339,3.176414,29.97,-1.25,1.6,8.43
50.045069,3.176327,29.93,-0.59,1.28,11.14
50.045069,3.176327,29.93,-1.26,2.54,7.91
50.044804,3.176239,29.81,-0.2,1.73,11.17
50.044804,3.176239,29.81,-0.27,1.63,10.41
50.044544,3.176156,29.75,-2.29,2.08,8.26
50.044544,3.176156,29.75,-1.7,1.02,8.78
50.044279,3.176079,29.64,0.01,1.14,9.27
50.044279,3.176079,29.64,-1.93,1.65,7.53
50.044015,3.175998,29.57,-0.3,0.9,9.86
50.044015,3.175998,29.57,-0.72,0.54,9.61
50.043756,3.175907,29.47,-1.1,2.37,9.59
50.043756,3.175907,29.47,0.91,1.54,9.51
50.043494,3.175819,29.54,0.96,2.19,10.08
50.043494,3.175819,29.54,0.07,2.41,9.92
50.043231,3.175734,29.53,0.53,2.07,10.3
50.043231,3.175734,29.53,-0.45,1.64,10.23
50.042967,3.175655,29.54,0.12,1.72,9.34
50.042967,3.175655,29.54,0.38,1.97,9.58
50.042707,3.175566,29.63,-0.61,1.12,10.81
50.042707,3.175566,29.63,1.19,1.76,8.63
50.042449,3.175474,29.69,1.59,1.83,9.55
50.042189,3.17538,29.78,-0.32,1.33,10.47
50.042189,3.17538,29.78,-0.8,2.78,8.25
50.041928,3.175287,29.97,-1.36,-0.05,11.37
50.041928,3.175287,29.97,0.68,1.81,8.3
50.041663,3.175202,30.18,1.32,1.26,9.68
50.041663,3.175202,30.18,-0.33,1.58,11.65
50.041395,3.175118,30.4,0.06,1.03,8.56
50.041395,3.175118,30.4,-1.4,1.73,9.06
50.041128,3.175028,30.69,-0.53,1.02,9.85
50.041128,3.175028,30.69,-0.39,0.75,10.82
50.04086,3.17493,30.85,-1.32,1.2,9.1
50.04086,3.17493,30.85,0.84,1.89,10.11
50.040591,3.17484,31.17,-0.46,1.58,8.51
50.040591,3.17484,31.17,-0.14,1.22,9.76
50.04032,3.174745,31.36,0.12,2.49,9.44
50.04032,3.174745,31.36,-0.9,1.2,8.64
50.040047,3.174652,31.64,-1.39,1.75,8.22
50.040047,3.174652,31.64,-2.04,1.8,7.49
50.03977,3.174553,31.97,-0.88,1.92,8.23
50.03977,3.174553,31.97,0.1,1.02,11.26
50.03949,3.174452,32.25,0.56,2.25,9.86
50.03949,3.174452,32.25,-1.12,1.03,9.06
50.039208,3.174356,32.56,-1.55,1.85,10.09
50.039208,3.174356,32.56,-0.9,1.06,9.66
50.038923,3.174257,32.89,0.29,1.67,8.05
50.038923,3.174257,32.89,0.64,0.7,10.86
50.038634,3.174156,33.24,-0.75,1.27,9.85
50.038634,3.174156,33.24,-0.53,1.46,11.46
50.038345,3.174052,33.6,-0.66,0.99,8.67
50.038345,3.174052,33.6,-1.72,1.01,10.3
50.038052,3.173947,33.83,-0.63,0.8,9.09
50.038052,3.173947,33.83,-0.68,1.64,9.5
50.037755,3.173844,34.08,-0.67,0.4,10.86
50.037755,3.173844,34.08,-1.13,-0.6,9.89
50.037456,3.173749,33.84,-0.88,2.14,8.94
50.037456,3.173749,33.84,-0.78,0.7,10.45
50.037161,3.17365,33.41,0.17,1.81,10.7
50.037161,3.17365,33.41,-0.03,0.57,7.69
50.036871,3.173548,33.44,-1.17,1.08,10.88
50.036871,3.173548,33.44,0.79,1.17,8.01
50.036578,3.17345,33.49,-1.02,1.64,9.42
50.036578,3.17345,33.49,0.0,1.57,8.85
50.03628,3.173356,33.43,-0.95,0.89,10.83
50.035987,3.173258,33.38,-0.96,0.44,10.41
50.035987,3.173258,33.38,0.49,0.45,9.52
50.035697,3.173159,33.35,-1.52,1.81,9.5
50.035697,3.173159,33.35,-1.22,1.02,8.97
50.035407,3.173056,33.23,-0.77,0.89,11.42
50.035407,3.173056,33.23,-1.04,1.12,9.39
50.035118,3.172953,33.13,-0.99,0.54,9.93
50.035118,3.172953,33.13,-1.69,1.45,10.42
50.034828,3.172849,33.05,-0.89,0.45,10.14
50.034828,3.172849,33.05,0.06,-0.21,9.09
50.034539,3.172751,33.03,-1.39,1.41,10.09
50.034539,3.172751,33.03,0.51,1.71,9.65
50.034252,3.172653,32.98,0.65,1.04,9.71
50.034252,3.172653,32.98,-0.68,1.26,10.22
50.033963,3.172556,32.97,-1.97,1.03,8.32
50.033963,3.172556,32.97,-0.02,1.41,10.47
50.033674,3.172459,32.94,0.11,1.5,10.33
50.033674,3.172459,32.94,-1.61,1.73,10.73
50.033385,3.172361,32.96,-0.57,0.9,10.91
50.033385,3.172361,32.96,0.17,1.94,11.42
50.033099,3.172263,32.92,-0.56,1.47,9.59
50.033099,3.172263,32.92,0.19,0.79,10.88
50.032808,3.17217,32.95,-0.47,0.65,10.9
50.032808,3.17217,32.95,0.12,1.7,10.35
50.032517,3.172079,32.89,0.55,1.35,10.49
50.032517,3.172079,32.89,-0.74,1.52,11.25
50.032226,3.17199,32.92,0.53,1.92,8.59
50.032226,3.17199,32.92,0.27,0.63,10.42
50.031935,3.171905,32.92,0.02,0.39,11.23
50.031935,3.171905,32.92,-0.7,1.91,9.09
50.031648,3.171814,32.91,-0.1,0.62,9.22
50.031648,3.171814,32.91,-0.5,0.49,11.06
50.031357,3.171733,32.8,-1.5,0.83,9.7
50.031357,3.171733,32.8,-0.57,1.41,8.5
50.031069,3.171652,32.15,-0.82,1.33,9.89
50.031069,3.171652,32.15,-1.07,1.43,11.23
50.030786,3.171571,31.79,-0.39,0.9,9.84
50.030786,3.171571,31.79,0.92,1.7,9.64
50.030503,3.171505,31.48,-1.11,0.66,11.04
50.030503,3.171505,31.48,-0.91,0.66,10.37
50.030222,3.171439,31.45,-0.27,1.28,10.68
50.030222,3.171439,31.45,-1.76,0.47,9.6
50.029948,3.171361,31.41,-0.31,0.64,10.64
50.029671,3.17129,31.49,-0.13,1.32,9.9
50.029671,3.17129,31.49,-1.05,1.07,8.18
50.029389,3.171219,31.78,0.38,2.1,7.35
50.029389,3.171219,31.78,-0.52,2.73,8.72
50.029102,3.171156,32.17,-1.02,1.93,9.21
50.029102,3.171156,32.17,0.83,1.62,9.4
50.028812,3.171096,32.47,-0.53,1.72,11.62
50.028812,3.171096,32.47,-0.25,1.99,12.88
50.028522,3.17104,32.75,-0.66,1.4,10.34
50.028522,3.17104,32.75,0.32,1.21,8.46
50.028236,3.17098,32.78,0.37,1.56,8.07
50.028236,3.17098,32.78,-0.84,1.66,10.86
50.027946,3.170924,32.68,-1.34,1.09,10.95
50.027946,3.170924,32.68,-0.56,1.29,8.43
50.027654,3.170878,32.59,-0.54,1.16,10.2
50.027654,3.170878,32.59,-1.04,1.09,8.97
50.027363,3.170832,32.48,0.88,1.36,12.68
50.027363,3.170832,32.48,-1.13,1.52,8.98
50.027076,3.170794,32.26,-1.54,1.23,10.4
50.027076,3.170794,32.26,0.01,1.37,8.68
50.026787,3.170751,32.0,-0.68,1.7,9.8
50.026787,3.170751,32.0,0.16,1.25,9.6
50.026499,3.170714,31.79,-0.94,1.64,9.62
50.026499,3.170714,31.79,-1.79,1.13,5.83
50.026215,3.170686,31.6,-1.05,0.97,8.22
50.026215,3.170686,31.6,-0.35,2.67,11.16
50.025933,3.170654,31.67,-0.25,2.01,9.33
50.025933,3.170654,31.67,0.52,2.58,10.64
50.025648,3.170623,31.82,-0.5,2.35,9.94
50.025648,3.170623,31.82,-1.45,2.06,10.08
50.025361,3.170597,31.88,-2.04,1.02,9.65
50.025361,3.170597,31.88,0.41,2.85,10.42
50.025072,3.170577,31.97,-0.76,1.94,9.41
50.025072,3.170577,31.97,-0.57,1.57,9.61
50.024781,3.170564,32.13,-1.53,1.2,8.41
50.024781,3.170564,32.13,-0.54,0.82,10.29
50.024489,3.170548,32.23,-0.03,0.07,10.29
50.024489,3.170548,32.23,-2.47,1.51,11.09
50.024201,3.170531,32.28,-1.08,1.56,10.62
50.024201,3.170531,32.28,-0.6,2.05,9.92
50.023911,3.170517,32.3,-1.01,1.35,8.81
50.023911,3.170517,32.3,-0.84,1.66,9.05
50.023617,3.170509,32.44,-0.36,0.36,9.52
50.023324,3.1705,32.45,-1.5,1.53,9.12
50.023324,3.1705,32.45,-1.16,1.61,10.22
50.02303,3.170496,32.53,-1.03,2.09,9.32
50.02303,3.170496,32.53,-1.36,0.54,9.19
50.022737,3.170497,32.58,-1.39,1.0,9.79
50.022737,3.170497,32.58,1.95,0.33,12.59
50.022442,3.170509,32.56,0.76,0.68,10.89
50.022442,3.170509,32.56,-1.77,1.71,11.4
50.022143,3.170521,32.59,-1.0,1.43,9.56
50.022143,3.170521,32.59,-0.91,0.83,6.7
50.021847,3.170527,32.56,-0.22,1.24,11.02
50.021847,3.170527,32.56,-1.6,2.23,6.51
50.021552,3.170541,32.49,-1.49,2.6,8.8
50.021552,3.170541,32.49,-1.14,2.37,10.18
50.021266,3.170553,32.44,-1.02,0.42,10.06
50.021266,3.170553,32.44,-1.62,0.4,10.38
50.020975,3.170571,32.32,-0.19,0.84,10.56
50.020975,3.170571,32.32,-1.01,2.3,9.71
50.020687,3.170588,32.3,-1.65,1.77,10.62
50.020687,3.170588,32.3,-1.49,2.09,7.65
50.020396,3.170611,32.26,-1.05,2.76,9.66
50.020396,3.170611,32.26,-0.92,-0.11,10.44
50.020107,3.17064,32.22,-1.71,0.38,9.95
50.020107,3.17064,32.22,-0.16,1.71,10.78
50.019817,3.170672,32.27,-0.95,2.32,10.98
50.019817,3.170672,32.27,-0.47,1.3,9.47
50.019529,3.170711,32.29,-1.12,1.74,9.97
50.019529,3.170711,32.29,-0.99,0.88,8.44
50.019238,3.170754,32.27,-0.46,1.76,9.77
50.019238,3.170754,32.27,-0.6,0.56,9.63
50.018948,3.170797,32.28,0.19,0.6,10.05
50.018948,3.170797,32.28,-1.4,2.1,10.62
50.01866,3.170837,32.4,0.06,2.25,11.09
50.01866,3.170837,32.4,-1.05,2.18,8.61
50.018368,3.170879,32.53,-0.06,1.56,8.52
50.018368,3.170879,32.53,-0.14,1.24,8.02
50.018075,3.170918,32.64,-0.81,1.92,10.13
50.018075,3.170918,32.64,-1.02,1.58,8.16
50.017784,3.170955,32.79,-1.67,0.73,8.77
50.017784,3.170955,32.79,-1.35,2.47,12.34
50.01749,3.170999,33.16,-1.57,1.21,8.49
50.01749,3.170999,33.16,0.0,1.43,8.37
50.017196,3.171041,33.22,-0.61,1.47,9.43
50.016903,3.171088,33.45,-0.82,1.61,10.77
50.016903,3.171088,33.45,-0.06,0.54,8.47
50.016602,3.171151,33.64,-0.33,0.26,8.71
50.016602,3.171151,33.64,-1.06,1.74,9.14
50.016304,3.171214,33.67,-1.13,1.48,10.96
50.016304,3.171214,33.67,-1.24,1.46,8.88
50.016001,3.171279,33.69,-1.68,2.42,10.44
50.016001,3.171279,33.69,-1.27,0.91,10.43
50.015703,3.171361,33.72,-0.83,2.47,11.92
50.015703,3.171361,33.72,0.11,1.46,8.64
50.015404,3.171448,33.92,0.1,0.89,9.16
50.015404,3.171448,33.92,-0.79,2.58,11.84
50.015104,3.171534,34.07,-1.51,0.55,11.43
50.015104,3.171534,34.07,0.87,0.09,7.28
50.014804,3.171625,34.24,-1.25,2.43,12.51
50.014804,3.171625,34.24,-1.07,-0.65,9.42
50.014504,3.171718,33.93,-0.37,-0.01,11.27
50.014504,3.171718,33.93,-1.05,-0.11,9.33
50.014203,3.171818,33.44,-1.54,-0.12,9.05
50.014203,3.171818,33.44,-0.32,1.33,11.45
50.013909,3.171926,33.08,-1.99,1.77,10.26
50.013909,3.171926,33.08,0.81,0.71,8.94
50.013618,3.172029,33.22,-2.02,1.66,9.36
50.013618,3.172029,33.22,-1.02,0.76,10.01
50.013325,3.172128,33.35,-0.18,1.85,11.48
50.013325,3.172128,33.35,0.22,1.29,8.67
50.013035,3.172215,33.56,-1.12,2.07,10.58
50.013035,3.172215,33.56,-0.85,1.23,10.96
50.012743,3.172314,33.87,-1.51,1.58,8.94
50.012743,3.172314,33.87,0.84,1.7,11.51
50.012447,3.172417,34.08,-0.82,0.45,9.12
50.012447,3.172417,34.08,0.21,2.28,10.94
50.01215,3.172533,34.25,0.74,1.44,9.67
50.01215,3.172533,34.25,-1.61,0.86,9.52
50.011853,3.172648,34.34,-0.47,0.57,8.74
50.011853,3.172648,34.34,-0.87,1.81,9.55
50.011554,3.172768,34.46,-0.05,2.37,9.64
50.011554,3.172768,34.46,-1.19,1.01,8.92
50.011254,3.17289,34.59,-0.38,1.28,9.5
50.010952,3.173018,34.7,0.3,1.24,10.01
50.010952,3.173018,34.7,-1.45,0.64,9.2
50.010651,3.173149,34.75,-1.57,1.67,6.01
50.010651,3.173149,34.75,-0.48,0.79,10.04
50.010352,3.173285,34.7,0.05,1.47,12.42
50.010352,3.173285,34.7,-1.44,1.7,11.72
50.010055,3.173423,34.53,-0.44,1.7,12.05
50.010055,3.173423,34.53,-0.9,0.67,8.7
50.009757,3.173566,34.46,-2.28,1.72,8.18
50.009757,3.173566,34.46,-1.36,1.37,10.6
50.009458,3.173711,34.33,-0.05,2.23,9.14
50.009458,3.173711,34.33,0.39,1.54,10.53
50.009162,3.173858,34.12,-1.62,1.69,8.63
50.009162,3.173858,34.12,-0.83,2.34,11.53
50.008872,3.174004,33.85,-1.09,1.58,9.65
50.008872,3.174004,33.85,-0.11,1.45,9.21
50.008581,3.174155,33.74,-0.71,2.09,11.06
50.008581,3.174155,33.74,-1.0,1.06,8.53
50.008294,3.174308,33.54,-0.21,1.18,9.89
50.008294,3.174308,33.54,-0.67,1.64,9.19
50.008007,3.174464,33.33,-1.48,1.36,9.92
50.008007,3.174464,33.33,-0.9,1.98,10.25
50.007724,3.174618,33.12,-0.1,1.3,8.99
50.007724,3.174618,33.12,-1.51,1.48,11.69
50.007443,3.174773,32.94,-1.29,1.83,12.21
50.007443,3.174773,32.94,0.34,1.56,9.06
50.007164,3.174933,32.82,-1.26,1.54,11.14
50.007164,3.174933,32.82,-0.48,1.95,10.25
50.006886,3.175095,32.72,-0.73,1.66,7.45
50.006886,3.175095,32.72,-0.35,0.88,9.55
50.006613,3.175258,32.6,-0.89,1.75,10.52
50.006613,3.175258,32.6,-0.7,1.97,10.31
50.006336,3.175426,32.54,-0.95,1.52,9.09
50.006336,3.175426,32.54,-0.57,1.41,9.13
50.006063,3.175591,32.38,0.07,1.66,8.06
50.006063,3.175591,32.38,-0.76,1.39,10.36
50.005796,3.175767,32.35,-0.89,1.52,10.33
50.005796,3.175767,32.35,-0.62,2.01,8.95
50.005527,3.175947,32.32,-0.23,1.75,8.43
50.005527,3.175947,32.32,-0.34,1.69,8.61
50.005258,3.176126,32.38,-0.13,1.65,8.26
50.004992,3.176301,32.43,-0.8,0.99,9.62
50.004992,3.176301,32.43,-0.9,1.12,10.15
50.004726,3.176483,32.44,-0.45,1.64,9.86
50.004726,3.176483,32.44,-0.67,2.13,7.66
50.004461,3.176669,32.52,-2.0,1.84,8.12
50.004461,3.176669,32.52,0.54,1.26,8.39
50.004198,3.176852,32.64,-1.83,1.14,9.85
50.004198,3.176852,32.64,-0.51,1.68,9.9
50.003931,3.177035,32.72,-1.35,2.14,8.2
50.003931,3.177035,32.72,-0.11,1.52,10.53
50.003663,3.177228,32.85,-1.03,1.93,10.13
50.003663,3.177228,32.85,-0.99,1.56,9.6
50.003395,3.177421,32.97,0.33,1.29,8.98
50.003395,3.177421,32.97,-0.29,2.25,9.39
50.00313,3.177618,33.11,-1.1,1.76,8.03
50.00313,3.177618,33.11,-0.24,1.88,11.26
50.002864,3.177822,33.31,-0.99,1.78,8.45
50.002864,3.177822,33.31,0.51,1.57,9.57
50.002599,3.178029,33.47,-1.2,1.29,9.1
50.002599,3.178029,33.47,0.02,2.03,11.97
50.002331,3.178236,33.7,-0.16,0.76,8.7
50.002331,3.178236,33.7,0.51,1.51,10.8
50.002062,3.178461,33.72,-0.04,1.15,8.56
50.002062,3.178461,33.72,-0.39,1.19,8.71
50.001793,3.178681,33.78,1.18,0.89,10.16
50.001793,3.178681,33.78,-0.99,1.42,8.04
50.001521,3.178903,33.87,-0.63,2.04,11.93
50.001521,3.178903,33.87,-1.06,1.15,8.67
50.001253,3.179115,33.95,-1.35,1.19,9.41
50.001253,3.179115,33.95,-0.07,1.75,9.84
50.00098,3.17934,34.2,0.02,2.17,11.53
50.00098,3.17934,34.2,-0.96,1.46,9.65
50.000708,3.179564,34.23,-1.03,1.67,9.49
50.000708,3.179564,34.23,-0.36,2.29,9.96
50.00044,3.179789,34.35,-0.15,1.02,10.04
50.00044,3.179789,34.35,-0.7,0.3,9.21
50.000166,3.180014,34.49,-0.66,0.56,7.98
50.000166,3.180014,34.49,-0.74,1.56,11.88
49.99989,3.180245,34.42,-0.82,0.03,9.72
49.999621,3.18047,33.93,0.09,0.49,9.37
49.999621,3.18047,33.93,-0.84,1.88,10.83
49.999357,3.180689,33.82,0.2,0.51,9.83
49.999357,3.180689,33.82,-0.09,1.69,9.46
49.99909,3.180913,33.71,0.28,0.81,8.37
49.99909,3.180913,33.71,-1.2,1.62,9.46
49.998821,3.18114,33.69,-0.77,1.84,11.97
49.998821,3.18114,33.69,-0.24,1.49,9.14
49.998562,3.181364,33.68,-1.02,1.93,7.98
49.998562,3.181364,33.68,-0.54,1.82,8.12
49.998298,3.181591,33.85,-1.04,2.35,12.2
49.998298,3.181591,33.85,1.24,1.22,10.07
49.998036,3.181822,33.83,-0.75,2.18,10.77
49.998036,3.181822,33.83,0.69,0.73,8.99
49.99777,3.182052,33.88,-1.48,0.81,8.78
49.99777,3.182052,33.88,-0.48,1.03,10.2
49.997502,3.182276,33.86,0.61,0.99,8.74
49.997502,3.182276,33.86,-0.81,2.08,9.11
49.997229,3.182497,33.84,0.38,2.09,11.47
49.997229,3.182497,33.84,-0.15,2.39,9.29
49.996964,3.182715,33.68,-0.51,1.15,10.1
49.996964,3.182715,33.68,-0.91,1.22,7.62
49.996697,3.18294,33.66,-1.14,1.86,9.71
49.996697,3.18294,33.66,0.81,0.94,9.14
49.99643,3.183163,33.68,-0.62,2.09,10.18
49.99643,3.183163,33.68,-0.41,1.38,11.46
49.996154,3.183381,33.73,-0.6,2.22,10.56
49.996154,3.183381,33.73,0.38,1.22,8.59
49.995884,3.1836,33.7,-0.04,1.63,8.4
49.995884,3.1836,33.7,-0.52,1.11,10.97
49.995615,3.183813,33.72,-1.43,0.79,8.3
49.995615,3.183813,33.72,0.31,2.42,11.19
49.995343,3.184018,33.79,-1.17,0.81,9.02
49.995343,3.184018,33.79,-0.38,1.73,10.3
49.995071,3.184228,33.82,1.46,1.59,11.12
49.995071,3.184228,33.82,0.97,1.14,8.5
49.994797,3.184438,33.78,0.19,2.26,12.86
49.994797,3.184438,33.78,1.14,0.6,8.77
49.994521,3.184644,33.77,-0.25,1.69,9.44
49.994521,3.184644,33.77,1.58,0.59,9.69
49.994246,3.18485,33.8,-1.76,1.03,8.17
49.993975,3.185048,33.79,-1.04,2.21,11.13
49.993975,3.185048,33.79,-0.14,0.32,9.77
49.993695,3.185244,33.86,1.2,2.4,10.73
49.993695,3.185244,33.86,0.15,1.5,10.67
49.993423,3.185438,33.65,-1.55,0.55,8.88
49.993423,3.185438,33.65,-1.16,1.06,11.63
49.993145,3.185622,33.74,-1.82,1.13,8.46
49.993145,3.185622,33.74,0.16,2.94,12.24
49.992868,3.185812,33.77,-0.92,1.08,9.57
49.992868,3.185812,33.77,-0.95,1.78,10.31
49.99259,3.186001,33.66,-0.87,1.02,11.35
49.99259,3.186001,33.66,0.18,3.01,11.44
49.992312,3.186184,33.74,1.29,0.75,8.63
49.992312,3.186184,33.74,-0.78,1.14,9.63
49.992033,3.186344,33.76,-0.2,0.69,9.73
49.992033,3.186344,33.76,-0.61,1.33,8.36
49.991754,3.186519,33.61,-1.28,1.46,11.29
49.991754,3.186519,33.61,1.83,1.35,9.47
49.991477,3.186693,33.46,-0.94,1.17,9.89
49.991477,3.186693,33.46,1.65,2.02,9.7
49.99119,3.186859,33.61,-0.58,1.2,10.13
49.99119,3.186859,33.61,-1.71,0.93,8.56
49.990903,3.187029,33.54,-0.57,2.25,12.22
49.990903,3.187029,33.54,1.31,1.46,9.33
49.990621,3.187192,33.39,-0.11,1.2,9.65
49.990621,3.187192,33.39,-0.67,1.78,9.85
49.990346,3.187339,33.37,-0.44,1.2,10.04
49.990346,3.187339,33.37,-0.26,2.01,9.09
49.990065,3.187495,33.52,0.63,0.23,8.97
49.990065,3.187495,33.52,-0.01,1.95,11.68
49.989779,3.187655,33.54,0.56,0.96,9.21
49.989779,3.187655,33.54,-0.44,1.98,8.85
49.989496,3.187804,33.49,-0.84,0.53,10.31
49.989496,3.187804,33.49,-0.74,1.71,12.32
49.98921,3.187955,33.39,-1.66,1.68,8.37
49.98921,3.187955,33.39,-0.02,1.75,10.36
49.988927,3.188096,33.32,-0.03,1.38,9.38
49.988927,3.188096,33.32,-0.44,0.87,10.74
49.988635,3.188236,33.4,-0.38,2.02,7.61
49.988635,3.188236,33.4,1.01,1.13,7.81
49.988345,3.188372,33.48,-0.04,2.26,11.54
49.988061,3.188502,33.44,0.09,1.14,8.86
49.988061,3.188502,33.44,-1.34,2.19,11.86
49.987773,3.188628,33.49,0.29,0.37,8.56
49.987773,3.188628,33.49,-0.48,1.62,10.12
49.987483,3.188756,33.42,-0.2,0.64,8.37
49.987483,3.188756,33.42,0.17,1.25,10.74
49.987195,3.188882,33.42,-0.44,0.88,9.87
49.987195,3.188882,33.42,-0.51,1.98,10.79
49.986906,3.189007,33.39,-0.59,1.54,8.35
49.986906,3.189007,33.39,-0.04,1.36,11.65
49.986618,3.18913,33.31,-0.9,1.17,7.97
49.986618,3.18913,33.31,-0.23,2.59,10.94
49.986318,3.189269,33.37,0.08,2.37,8.32
49.986318,3.189269,33.37,-0.6,1.26,11.26
49.986026,3.189395,33.33,-1.14,1.47,9.08
49.986026,3.189395,33.33,1.24,1.15,8.33
49.985734,3.189514,33.33,-0.67,1.84,10.17
49.985734,3.189514,33.33,0.18,1.16,10.49
49.985445,3.189626,33.39,0.96,1.81,11.05
49.985445,3.189626,33.39,1.5,1.0,8.25
49.985154,3.189739,33.38,-0.38,2.69,12.59
49.985154,3.189739,33.38,-0.47,1.54,9.35
49.984862,3.189844,33.36,-0.75,1.45,10.7
49.984862,3.189844,33.36,-0.57,1.55,8.92
49.98457,3.189946,33.33,-0.94,2.26,10.6
49.98457,3.189946,33.33,0.01,1.89,9.47
49.98428,3.19004,33.34,-0.16,1.13,8.72
49.98428,3.19004,33.34,0.35,2.09,9.26
49.983989,3.190129,33.39,0.21,0.85,8.69
49.983989,3.190129,33.39,-0.74,1.91,9.35
49.983699,3.190229,33.38,-0.59,0.97,10.54
49.983699,3.190229,33.38,0.79,2.16,11.03
49.983405,3.190326,33.42,0.14,1.51,9.68
49.983405,3.190326,33.42,-0.61,2.27,10.88
49.983112,3.190429,33.44,-0.61,1.04,9.33
49.983112,3.190429,33.44,-0.98,1.85,10.75
49.982819,3.190525,33.51,-0.11,0.31,8.22
49.982527,3.190628,33.52,-0.5,1.61,9.53
49.982527,3.190628,33.52,0.15,1.26,8.77
49.982233,3.190723,33.67,-1.0,1.49,9.1
49.982233,3.190723,33.67,0.46,1.02,9.48
49.981935,3.190814,33.68,-0.58,1.97,9.93
49.981935,3.190814,33.68,-0.62,1.43,10.46
49.981639,3.190913,33.8,-0.15,2.69,10.59
49.981639,3.190913,33.8,-0.6,1.53,10.34
49.981341,3.191011,33.9,0.56,0.93,10.41
49.981341,3.191011,33.9,0.34,2.92,11.07
49.98104,3.191104,34.01,-0.47,1.18,10.8
49.98104,3.191104,34.01,0.82,0.51,7.47
49.980737,3.191203,34.14,-0.83,2.22,10.55
49.980737,3.191203,34.14,0.07,1.27,9.75
49.980436,3.191301,34.28,-0.76,1.04,10.18
49.980436,3.191301,34.28,-0.34,1.58,10.15
49.980136,3.191405,34.35,-0.21,2.64,11.54
49.980136,3.191405,34.35,-0.83,2.48,10.45
49.979834,3.19151,34.49,-0.98,0.99,9.18
49.979834,3.19151,34.49,-1.01,-0.03,10.13
49.979534,3.191617,34.14,-0.88,1.72,9.72
49.979534,3.191617,34.14,0.47,-0.55,9.15
49.979238,3.191714,33.38,-1.44,1.5,10.16
49.979238,3.191714,33.38,-0.6,0.03,10.53
49.978949,3.191804,32.54,-0.5,0.24,10.13
49.978949,3.191804,32.54,-0.74,-0.3,9.5
49.978664,3.191902,32.01,-0.08,0.58,11.04
49.978664,3.191902,32.01,0.34,1.28,9.84
49.978382,3.191994,31.92,-0.42,0.51,9.63
49.978382,3.191994,31.92,-0.2,1.1,10.6
49.978103,3.192087,31.93,-1.03,0.77,10.93
49.978103,3.192087,31.93,0.26,0.97,10.62
49.977824,3.192175,31.99,-1.55,0.52,10.22
49.977824,3.192175,31.99,0.23,1.8,10.38
49.977543,3.192267,32.06,-1.01,0.38,9.8
49.977543,3.192267,32.06,0.4,1.42,10.29
49.977258,3.192375,32.21,-0.46,1.43,8.1
49.977258,3.192375,32.21,-0.52,0.9,8.0
49.976972,3.192471,32.36,-0.06,1.44,9.54
49.976972,3.192471,32.36,-0.78,0.52,10.82
49.976695,3.192575,32.45,-0.16,1.81,9.86
49.976695,3.192575,32.45,-1.03,1.36,10.44
49.97641,3.192665,32.65,-1.06,2.03,9.47
49.976125,3.192762,32.79,-0.01,1.25,10.82
49.976125,3.192762,32.79,-1.45,0.67,11.42
49.975837,3.192857,32.99,-0.28,1.57,8.75
49.975837,3.192857,32.99,-1.33,1.25,9.89
49.975546,3.192952,33.11,0.21,1.92,10.85
49.975546,3.192952,33.11,0.47,0.98,9.22
49.975252,3.19304,33.46,-1.74,0.68,9.85
49.975252,3.19304,33.46,-1.49,1.78,9.94
49.974952,3.193146,33.65,-0.34,1.87,9.54
49.974952,3.193146,33.65,0.23,1.45,9.81
49.974651,3.193243,33.9,-0.15,2.38,10.33
49.974651,3.193243,33.9,-1.22,0.82,10.52
49.974353,3.193342,34.11,0.96,0.82,8.94
49.974353,3.193342,34.11,0.07,2.22,10.18
49.974053,3.19345,34.28,-0.24,1.38,10.45
49.974053,3.19345,34.28,0.02,1.92,10.66
49.973752,3.193553,34.52,-0.11,1.11,10.01
49.973752,3.193553,34.52,-0.75,1.59,9.87
49.973448,3.193651,33.91,-0.27,-0.44,9.7
49.973448,3.193651,33.91,-0.09,0.55,10.85
49.973147,3.193759,33.5,-0.16,-0.18,8.88
49.973147,3.193759,33.5,-1.12,1.19,9.33
49.972857,3.193861,33.08,-0.98,-0.55,10.16
49.972857,3.193861,33.08,-0.25,0.61,10.96
49.97257,3.193959,32.89,-0.41,1.7,9.83
49.97257,3.193959,32.89,0.45,0.32,8.85
49.972282,3.19406,32.83,-1.47,1.68,9.62
49.972282,3.19406,32.83,-0.23,1.55,9.0
49.971993,3.194163,32.82,0.03,0.68,9.58
49.971993,3.194163,32.82,-1.28,1.73,11.6
49.971706,3.194268,32.75,-1.12,1.66,11.34
49.971706,3.194268,32.75,-0.11,2.31,9.01
49.971423,3.19438,32.72,0.54,1.25,10.53
49.971423,3.19438,32.72,0.33,1.58,11.15
49.971142,3.194495,32.63,-0.72,1.81,8.09
49.971142,3.194495,32.63,-0.95,1.96,6.83
49.970859,3.194604,32.54,-0.9,1.66,9.95
49.970859,3.194604,32.54,0.19,1.24,9.58
49.970574,3.194713,32.49,0.08,2.18,11.68
49.970574,3.194713,32.49,-0.98,1.23,10.96
49.970291,3.19483,32.3,-1.84,1.26,11.05
49.970008,3.194945,32.1,-0.4,1.44,9.27
49.970008,3.194945,32.1,-0.67,1.55,10.09
49.969731,3.195057,31.93,-0.48,1.37,8.09
49.969731,3.195057,31.93,0.5,2.05,10.82
49.969455,3.195171,31.75,-1.08,1.51,10.96
49.969455,3.195171,31.75,-1.22,1.22,9.38
49.969179,3.195286,31.63,-1.14,1.33,10.23
49.969179,3.195286,31.63,-0.27,1.6,10.36
49.968906,3.195401,31.56,0.06,1.2,11.24
49.968906,3.195401,31.56,-1.3,0.9,11.34
49.968633,3.19552,31.34,0.33,1.58,8.85
49.968633,3.19552,31.34,-0.61,1.68,8.3
49.968364,3.195642,31.19,-0.66,2.02,9.08
49.968364,3.195642,31.19,-0.11,1.5,10.0
49.968096,3.195766,31.1,-1.81,0.78,10.59
49.968096,3.195766,31.1,0.94,1.22,9.71
49.96783,3.195891,31.01,-0.16,1.88,10.18
49.96783,3.195891,31.01,-0.73,1.06,11.01
49.967561,3.196019,30.8,0.43,0.64,10.18
49.967561,3.196019,30.8,-0.39,1.6,9.78
49.967294,3.196145,30.69,-0.92,1.39,11.59
49.967294,3.196145,30.69,0.05,0.94,7.93
49.967032,3.196268,30.54,-0.69,2.47,8.38
49.967032,3.196268,30.54,-0.03,1.15,10.15
49.966765,3.196395,30.47,-0.5,2.3,9.09
49.966765,3.196395,30.47,0.15,2.17,10.33
49.9665,3.196524,30.51,0.1,1.81,8.68
49.9665,3.196524,30.51,-1.01,1.24,9.69
49.966236,3.196654,30.53,-1.37,1.49,12.65
49.966236,3.196654,30.53,-1.24,1.8,8.62
49.965976,3.196785,30.6,-1.32,1.63,10.47
49.965976,3.196785,30.6,-0.09,2.04,9.88
49.965719,3.196915,30.63,-1.25,2.28,8.9
49.965719,3.196915,30.63,-1.52,1.65,11.61
49.965457,3.197051,30.73,0.2,0.92,9.13
49.965457,3.197051,30.73,-1.42,2.35,8.43
49.965195,3.197191,30.84,-1.7,0.92,11.09
49.965195,3.197191,30.84,-0.49,1.74,9.17
49.964929,3.197334,30.92,-0.73,2.47,8.18
49.964929,3.197334,30.92,-0.96,1.71,9.34
49.964668,3.197474,30.95,-2.06,1.05,11.85
49.964668,3.197474,30.95,-0.92,1.89,8.67
49.964407,3.197619,31.01,-0.36,2.06,9.53
49.964146,3.197765,31.09,-0.91,1.36,9.34
49.964146,3.197765,31.09,-0.94,1.5,12.25
49.963883,3.197909,31.3,-0.11,1.01,10.56
49.963883,3.197909,31.3,0.8,1.21,8.26
49.963618,3.198056,31.34,-0.95,2.09,9.16
49.963618,3.198056,31.34,-0.9,1.91,9.67
49.963355,3.198205,31.5,0.38,1.97,8.64
49.963355,3.198205,31.5,-0.84,1.55,10.43
49.96309,3.198355,31.7,-0.32,1.63,10.14
49.96309,3.198355,31.7,-0.76,0.76,10.12
49.962823,3.198504,31.94,-2.07,1.32,10.75
49.962823,3.198504,31.94,-0.98,1.45,10.33
49.962554,3.198659,32.24,-0.99,1.63,9.35
49.962554,3.198659,32.24,-0.96,2.42,9.89
49.962286,3.198812,32.12,-0.75,1.84,8.49
49.962286,3.198812,32.12,0.02,0.74,8.35
49.962019,3.198974,32.23,0.03,1.13,7.92
49.962019,3.198974,32.23,-0.77,1.8,11.32
49.961748,3.199142,32.31,0.03,2.17,9.33
49.961748,3.199142,32.31,-1.53,2.25,8.98
49.96148,3.19932,32.76,0.16,1.18,8.73
49.96148,3.19932,32.76,-0.67,1.88,10.91
49.961207,3.199487,32.98,-1.35,1.68,9.27
49.961207,3.199487,32.98,-0.68,1.58,9.13
49.960932,3.199675,32.95,-0.94,1.8,10.66
49.960932,3.199675,32.95,-1.49,1.53,9.77
49.960659,3.199844,32.99,-0.27,0.91,8.29
49.960659,3.199844,32.99,-0.36,2.34,10.29
49.960387,3.200037,33.17,0.43,1.35,8.71
49.960387,3.200037,33.17,-0.76,1.69,11.62
49.960112,3.200217,33.25,-1.27,1.07,8.14
49.960112,3.200217,33.25,-1.36,2.08,11.64
49.959834,3.200404,33.38,-0.61,1.56,8.83
49.959834,3.200404,33.38,-0.08,0.8,9.52
49.959556,3.200588,33.44,-0.29,1.87,9.3
49.959556,3.200588,33.44,-1.25,1.92,10.7
49.95928,3.200767,33.55,-1.2,1.58,8.48
49.95928,3.200767,33.55,-1.72,1.33,10.82
49.959001,3.200946,33.64,0.18,1.16,9.3
49.959001,3.200946,33.64,-0.86,0.84,9.81
49.958722,3.20113,33.68,-1.39,0.93,8.92
49.958722,3.20113,33.68,0.58,2.1,9.96
49.958444,3.201315,33.73,-0.23,1.25,9.05
49.958168,3.201499,33.81,-0.07,1.44,9.13
49.958168,3.201499,33.81,0.3,1.27,10.11
49.957887,3.201681,33.89,-0.02,1.7,9.93
49.957887,3.201681,33.89,-0.55,1.84,9.55
49.957605,3.201863,33.99,-1.32,0.82,8.99
49.957605,3.201863,33.99,-0.19,2.48,10.05
49.957322,3.202048,34.09,-0.93,2.35,11.3
49.957322,3.202048,34.09,-0.41,1.06,10.16
49.957038,3.202235,34.2,0.12,1.98,9.3
49.957038,3.202235,34.2,-0.96,2.29,11.26
49.956756,3.202417,34.27,-1.44,1.11,11.25
49.956756,3.202417,34.27,-1.23,1.56,10.25
49.95647,3.202606,34.38,-0.84,1.59,9.32
49.95647,3.202606,34.38,0.28,2.18,8.96
49.956183,3.202799,34.41,1.38,1.1,9.89
49.956183,3.202799,34.41,-0.21,0.49,8.2
49.955899,3.202986,34.49,-1.17,0.7,9.12
49.955899,3.202986,34.49,-0.97,2.41,10.87
49.955611,3.203172,34.58,-0.91,2.35,11.06
49.955611,3.203172,34.58,-2.04,2.51,12.11
49.955326,3.203353,34.6,-1.54,-0.07,7.31
49.955326,3.203353,34.6,-0.02,0.43,9.6
49.955041,3.203539,34.61,-0.98,1.02,8.9
49.955041,3.203539,34.61,-1.41,1.52,9.16
49.954757,3.203727,34.34,0.18,0.35,11.04
49.954757,3.203727,34.34,-0.19,-0.7,9.72
49.954475,3.203915,33.59,-0.3,2.01,10.78
49.954475,3.203915,33.59,0.7,1.92,9.91
49.954201,3.204099,33.15,1.07,1.17,10.62
49.954201,3.204099,33.15,-0.23,1.7,8.54
49.953928,3.204274,33.06,-0.12,1.61,10.0
49.953928,3.204274,33.06,-0.69,0.52,10.18
49.953652,3.204447,32.96,-1.33,0.99,9.47
49.953652,3.204447,32.96,0.36,1.02,8.56
49.953378,3.204619,32.83,-1.29,0.63,9.93
49.953378,3.204619,32.83,-1.52,1.13,10.84
49.953106,3.204793,32.77,-1.01,2.2,9.38
49.953106,3.204793,32.77,-0.69,1.43,8.75
49.952834,3.204972,32.75,-0.84,0.47,9.91
49.952834,3.204972,32.75,-0.5,1.4,10.97
49.952562,3.205151,32.75,-1.0,1.52,9.6
49.952291,3.205323,32.77,0.66,0.54,9.28
49.952291,3.205323,32.77,-1.3,0.5,9.93
49.95202,3.205503,32.75,-1.75,1.52,10.89
49.95202,3.205503,32.75,0.25,2.0,9.58
49.951748,3.205685,32.75,-0.1,1.78,10.22
49.951748,3.205685,32.75,-1.09,0.63,9.32
49.951477,3.205863,32.84,-0.02,1.31,9.56
49.951477,3.205863,32.84,-1.11,1.42,8.21
49.951204,3.20604,32.83,-1.31,0.31,9.04
49.951204,3.20604,32.83,0.24,1.61,10.3
49.950933,3.206214,32.85,-0.46,1.25,8.69
49.950933,3.206214,32.85,0.12,0.83,10.21
49.950661,3.206395,32.89,-0.89,2.04,11.89
49.950661,3.206395,32.89,-1.59,1.98,9.81
