Location-lat,Location-long,Speed,Accelerometer-X,Accelerometer-Y,Accelerometer-Z
49.455774,4.103315,13.48,-1.85,2.01,8.67
49.455774,4.103315,13.48,-0.92,1.78,9.35
49.45566,4.10325,13.59,-0.75,1.08,9.31
49.45566,4.10325,13.59,-2.09,1.6,9.95
49.455544,4.103188,13.59,-0.57,1.57,8.58
49.455544,4.103188,13.59,-1.51,1.44,9.73
49.455428,4.103132,13.67,-1.94,0.82,9.47
49.455428,4.103132,13.67,-1.2,2.35,8.76
49.45531,4.103081,13.58,-0.96,1.93,9.91
49.45531,4.103081,13.58,-1.24,1.69,9.55
49.455189,4.103032,13.59,-1.17,1.28,9.68
49.455189,4.103032,13.59,-2.32,1.57,11.12
49.455069,4.102986,13.54,-0.11,2.44,8.84
49.455069,4.102986,13.54,-1.1,2.92,10.24
49.45495,4.102948,13.71,0.57,2.48,8.6
49.454828,4.102917,13.82,0.37,0.86,10.0
49.454828,4.102917,13.82,-1.81,1.58,7.77
49.454704,4.102894,14.04,-1.2,0.96,8.65
49.454704,4.102894,14.04,-1.16,3.89,10.0
49.454578,4.102874,14.12,-1.37,3.02,10.55
49.454578,4.102874,14.12,0.44,0.92,9.34
49.454451,4.102858,14.33,-1.48,3.23,9.44
49.454451,4.102858,14.33,-0.06,1.26,9.32
49.454317,4.102845,14.81,-1.8,2.11,9.14
49.454317,4.102845,14.81,-0.95,2.74,12.57
49.45418,4.102833,15.48,-0.7,1.94,9.17
49.45418,4.102833,15.48,-1.39,2.34,8.78
49.454036,4.102819,15.82,-0.33,1.75,7.51
49.454036,4.102819,15.82,-1.54,1.01,10.54
49.453888,4.102806,16.31,-0.14,1.54,7.76
49.453888,4.102806,16.31,-1.83,2.51,9.77
49.453736,4.102791,16.89,0.58,2.37,8.68
49.453736,4.102791,16.89,-0.04,2.39,12.32
49.453581,4.102773,17.36,0.09,2.68,7.99
49.453581,4.102773,17.36,-1.2,1.55,9.29
49.453421,4.102754,17.7,-1.57,1.38,9.69
49.453421,4.102754,17.7,0.45,2.87,10.58
49.45326,4.102736,17.86,0.22,2.26,10.14
49.45326,4.102736,17.86,-1.78,1.48,10.01
49.453092,4.10271,17.96,-0.27,0.89,8.7
49.453092,4.10271,17.96,-0.88,2.4,10.12
49.452926,4.102689,18.16,-0.64,-0.26,8.36
49.452926,4.102689,18.16,-1.79,3.18,10.87
49.452762,4.102671,18.01,-0.49,2.05,9.36
49.452762,4.102671,18.01,-0.64,1.2,9.64
49.452602,4.102654,17.97,0.19,1.06,9.03
49.452602,4.102654,17.97,-1.67,1.69,8.87
49.452441,4.102637,18.0,-1.7,1.55,9.11
49.452441,4.102637,18.0,-0.05,1.98,10.21
49.452284,4.102625,18.08,1.05,1.99,8.88
49.452284,4.102625,18.08,0.09,2.05,8.88
49.452121,4.10261,18.23,0.23,2.67,9.33
49.451955,4.102586,18.37,-1.43,1.9,9.51
49.451955,4.102586,18.37,-0.23,3.11,10.16
49.451786,4.102557,18.62,-0.16,1.53,9.0
49.451786,4.102557,18.62,-1.02,2.55,9.4
49.45162,4.102526,18.99,-0.11,2.7,10.77
49.45162,4.102526,18.99,0.45,2.2,11.04
49.451456,4.102492,19.15,-1.42,1.84,10.6
49.451456,4.102492,19.15,-0.61,0.66,7.78
49.451292,4.102454,19.33,-0.02,1.37,9.74
49.451292,4.102454,19.33,-1.08,1.47,9.6
49.451126,4.102413,19.53,-1.56,1.14,9.43
49.451126,4.102413,19.53,-0.5,1.79,10.46
49.450953,4.102374,19.68,-0.23,1.77,9.91
49.450953,4.102374,19.68,-2.07,0.97,10.61
49.450776,4.102334,19.82,-1.32,1.62,8.14
49.450776,4.102334,19.82,-2.02,1.02,9.57
49.450598,4.102291,19.8,-1.05,1.18,8.95
49.450598,4.102291,19.8,-0.98,1.06,8.61
49.45042,4.102246,19.85,0.37,2.07,9.19
49.45042,4.102246,19.85,0.72,0.36,7.35
49.450242,4.102203,19.85,-1.87,1.1,9.47
49.450242,4.102203,19.85,-0.82,2.72,10.78
49.450069,4.102159,19.72,-0.64,0.73,10.26
49.450069,4.102159,19.72,-0.78,0.42,8.36
49.4499,4.102125,19.58,-0.34,1.73,10.05
49.4499,4.102125,19.58,0.11,1.16,9.46
49.44973,4.102092,19.31,-0.82,1.68,10.32
49.44973,4.102092,19.31,-2.23,0.85,8.76
49.449552,4.102062,19.18,-2.02,1.0,9.73
49.449552,4.102062,19.18,-1.25,3.01,8.27
49.449381,4.102052,18.67,-2.6,2.12,12.66
49.449381,4.102052,18.67,-2.34,0.28,8.67
49.449217,4.102067,18.31,-2.44,2.23,10.03
49.449217,4.102067,18.31,-2.65,3.17,10.93
49.449057,4.102116,18.14,-2.06,2.25,9.62
49.449057,4.102116,18.14,-2.84,2.07,8.72
49.448905,4.102186,17.85,-1.67,2.26,9.6
49.448905,4.102186,17.85,-0.98,2.63,10.1
49.448758,4.102289,17.98,-2.2,2.37,8.85
49.448611,4.102404,17.99,0.28,2.52,9.94
49.448611,4.102404,17.99,0.34,2.46,9.27
49.448462,4.102515,18.0,-2.73,2.69,7.83
49.448462,4.102515,18.0,-1.16,1.79,9.34
49.448313,4.102616,18.06,-0.98,2.52,11.53
49.448313,4.102616,18.06,0.53,3.14,10.57
49.448162,4.102717,18.18,-0.34,1.9,9.44
49.448162,4.102717,18.18,-1.5,3.52,9.99
49.448011,4.102813,18.13,-1.12,2.54,8.9
49.448011,4.102813,18.13,0.0,2.52,9.32
49.447859,4.10291,18.25,-0.81,1.9,9.8
49.447859,4.10291,18.25,-0.14,2.7,10.55
49.447708,4.103011,18.31,0.01,1.73,8.87
49.447708,4.103011,18.31,-0.86,2.26,8.41
49.447558,4.103115,18.38,-1.49,2.32,9.84
49.447558,4.103115,18.38,-0.01,3.26,9.91
49.447408,4.103222,18.49,-0.38,1.73,9.51
49.447408,4.103222,18.49,-1.57,1.98,9.95
49.447257,4.103329,18.68,-0.78,2.72,9.8
49.447257,4.103329,18.68,0.73,3.73,11.55
49.447104,4.103434,18.75,-2.56,2.15,8.24
49.447104,4.103434,18.75,-0.46,2.62,9.11
49.446949,4.103535,18.85,-0.88,1.87,9.35
49.446949,4.103535,18.85,-0.51,1.09,8.94
49.44679,4.103636,18.96,0.21,2.24,10.02
49.44679,4.103636,18.96,-0.86,2.51,8.67
49.446634,4.103742,18.86,0.7,2.92,8.58
49.446634,4.103742,18.86,0.66,1.01,7.58
49.446477,4.103831,18.62,-0.57,3.02,10.7
49.446477,4.103831,18.62,-0.73,2.14,9.52
49.446317,4.103913,18.36,0.06,1.57,9.98
49.446317,4.103913,18.36,1.43,1.52,10.11
49.446161,4.103987,17.7,0.33,2.21,9.94
49.446161,4.103987,17.7,0.23,2.87,10.4
49.446013,4.10404,17.2,0.53,2.84,8.09
49.446013,4.10404,17.2,0.91,1.61,7.85
49.445866,4.10406,17.21,1.37,2.07,10.46
49.445866,4.10406,17.21,-0.03,2.67,10.21
49.445717,4.104054,17.32,1.17,2.6,8.93
49.445717,4.104054,17.32,-0.23,2.49,8.6
49.445565,4.104033,17.63,-0.59,2.35,8.6
49.44541,4.104017,17.99,-0.6,1.55,7.17
49.44541,4.104017,17.99,-0.41,1.86,8.77
49.445248,4.103971,18.47,0.25,1.73,8.81
49.445248,4.103971,18.47,0.55,2.72,9.13
49.445084,4.103909,18.98,-0.65,2.73,9.77
49.445084,4.103909,18.98,1.33,0.91,8.96
49.444913,4.103837,19.43,-0.54,2.76,9.82
49.444913,4.103837,19.43,-0.21,2.94,10.02
49.444741,4.103763,19.69,-0.98,2.26,11.28
49.444741,4.103763,19.69,-0.74,2.87,9.99
49.444566,4.103691,19.99,-0.26,2.94,10.09
49.444566,4.103691,19.99,-1.74,1.95,10.45
49.444394,4.103615,20.24,0.98,2.06,11.3
49.444394,4.103615,20.24,-1.15,1.29,9.81
49.444214,4.10354,20.53,-0.95,1.53,10.53
49.444214,4.10354,20.53,-1.24,3.84,10.08
49.444031,4.103467,20.74,-1.63,2.83,8.88
49.444031,4.103467,20.74,-0.1,1.47,8.79
49.443847,4.10339,21.0,-1.56,2.7,9.36
49.443847,4.10339,21.0,0.3,2.89,12.38
49.443659,4.103312,21.2,-1.05,1.82,9.39
49.443659,4.103312,21.2,-1.34,1.04,9.03
49.443472,4.103239,21.49,0.31,3.09,10.33
49.443472,4.103239,21.49,-0.74,1.13,8.08
49.443285,4.103168,21.73,-1.21,2.03,10.21
49.443285,4.103168,21.73,-2.27,2.63,8.85
49.443097,4.103089,21.91,-0.08,1.42,7.16
49.443097,4.103089,21.91,-0.44,2.53,10.24
49.442905,4.10301,21.96,-1.08,0.61,9.83
49.442905,4.10301,21.96,-1.54,2.03,9.8
49.442712,4.102933,22.22,-0.26,1.59,8.4
49.442712,4.102933,22.22,-1.72,1.75,10.53
49.442517,4.102859,22.22,-2.69,0.81,9.51
49.442517,4.102859,22.22,0.35,1.58,8.82
49.442324,4.102784,22.15,-0.82,1.41,10.06
49.442324,4.102784,22.15,0.32,2.0,8.91
49.44213,4.102707,22.1,0.38,2.18,8.94
49.44213,4.102707,22.1,-1.2,2.81,10.93
49.44194,4.102631,21.98,-0.04,2.15,8.61
49.44194,4.102631,21.98,-1.58,2.0,9.72
49.44175,4.102553,21.92,1.32,2.63,11.36
49.441559,4.102473,21.66,-0.68,1.86,10.37
49.441559,4.102473,21.66,-0.91,1.83,10.37
49.441367,4.102393,21.32,-0.23,2.03,9.67
49.441367,4.102393,21.32,-1.09,1.13,9.38
49.441182,4.102319,20.69,-1.44,1.86,8.68
49.441182,4.102319,20.69,-0.29,0.11,8.44
49.441003,4.102249,20.12,0.04,1.99,10.14
49.441003,4.102249,20.12,-0.64,-0.07,9.56
49.440833,4.102184,18.85,-0.78,0.48,8.35
49.440833,4.102184,18.85,-0.37,0.64,9.78
49.440676,4.102124,17.59,-0.9,0.16,10.05
49.440676,4.102124,17.59,-0.23,0.34,10.27
49.440533,4.102069,15.65,0.31,-0.33,8.6
49.440533,4.102069,15.65,-1.11,0.07,10.65
49.440405,4.10202,13.79,-1.02,0.24,10.17
49.440405,4.10202,13.79,-0.16,-0.19,9.24
49.440302,4.101976,11.6,0.49,-0.57,10.41
49.440302,4.101976,11.6,-0.01,0.23,9.71
49.440211,4.101941,9.26,-1.58,-1.4,9.42
49.440211,4.101941,9.26,-0.42,-1.23,10.52
49.440141,4.101917,6.34,0.01,-0.9,10.35
49.440141,4.101917,6.34,-0.26,-0.16,10.09
49.440096,4.101898,3.27,-0.57,0.28,10.49
49.440096,4.101898,3.27,-0.71,1.09,9.9
49.440096,4.101898,0.0,-0.7,1.44,9.82
49.440096,4.101898,0.0,-1.04,1.72,9.63
49.440096,4.101898,0.0,-0.84,1.8,9.65
49.440096,4.101898,0.0,-1.04,1.86,9.37
49.440096,4.101898,0.0,-0.79,2.36,9.49
49.440096,4.101898,0.0,-0.75,2.19,9.62
49.440096,4.101898,0.0,-0.85,2.17,9.65
49.440096,4.101898,0.0,-0.9,2.17,9.62
49.440096,4.101898,0.0,-0.91,2.21,9.62
49.440096,4.101898,0.0,-0.91,2.19,9.6
49.440096,4.101898,0.0,-0.91,2.19,9.56
49.440096,4.101898,0.0,-0.91,2.17,9.58
49.440096,4.101898,0.0,-0.92,2.15,9.52
49.440096,4.101898,0.0,-0.91,2.16,9.57
49.440096,4.101898,0.0,-0.86,2.17,9.58
49.440096,4.101898,0.0,-0.86,2.16,9.58
49.440096,4.101898,0.0,-0.95,2.2,9.6
49.440096,4.101898,0.0,-0.86,2.52,9.53
49.440096,4.101898,0.0,-1.05,2.5,9.45
49.440096,4.101898,0.0,-1.13,3.1,9.41
49.440096,4.101898,0.0,-1.18,3.06,9.28
49.440096,4.101898,0.0,-1.03,2.94,9.41
49.440096,4.101898,0.0,-1.03,2.99,9.21
49.440096,4.101898,0.0,-1.69,3.1,9.7
49.440096,4.101898,0.0,-2.41,3.55,8.84
49.440037,4.101871,3.1,-1.95,3.07,9.74
49.440037,4.101871,3.1,-1.85,3.34,9.18
49.439996,4.10187,4.37,-1.62,3.34,9.28
49.439996,4.10187,4.37,-1.41,2.77,9.09
49.439952,4.101878,5.42,-1.87,3.17,10.18
49.439952,4.101878,5.42,-0.73,2.87,9.04
49.4399,4.101905,6.86,0.22,3.59,9.76
49.4399,4.101905,6.86,0.11,2.97,9.34
49.439835,4.101932,7.75,-0.23,3.51,9.56
49.439835,4.101932,7.75,-0.97,3.05,10.03
49.439762,4.101956,8.83,-1.33,2.84,8.55
49.439762,4.101956,8.83,-1.14,3.41,9.43
49.439683,4.101981,9.65,0.15,3.78,10.26
49.439683,4.101981,9.65,-0.77,4.08,8.14
49.439596,4.102003,10.43,-0.72,3.05,10.33
49.439596,4.102003,10.43,-1.76,2.58,8.48
49.439494,4.102021,11.35,0.8,2.49,8.04
49.439494,4.102021,11.35,-0.02,1.99,10.06
49.439391,4.102038,12.0,-1.15,2.65,9.06
49.439391,4.102038,12.0,-0.66,4.57,9.07
49.439278,4.102045,12.36,-0.48,3.35,11.29
49.439278,4.102045,12.36,-2.4,2.0,9.57
49.439158,4.102042,12.93,-2.13,1.88,9.32
49.439158,4.102042,12.93,-0.4,1.17,8.7
49.439036,4.102039,13.47,-1.12,2.42,9.72
49.439036,4.102039,13.47,0.74,2.46,9.73
49.438911,4.102039,14.05,-0.54,2.45,8.42
49.438911,4.102039,14.05,-0.04,2.54,11.0
49.438784,4.102036,14.82,-0.59,2.04,9.91
49.438784,4.102036,14.82,-1.2,2.27,8.52
49.43865,4.102025,15.28,-1.37,1.74,11.17
49.43865,4.102025,15.28,-0.49,1.89,8.93
49.43851,4.102012,15.79,-1.39,3.51,9.91
49.438367,4.101996,16.33,-2.39,1.57,8.17
49.438367,4.101996,16.33,-2.34,3.27,10.58
49.438222,4.101982,16.66,-2.33,1.81,8.21
49.438222,4.101982,16.66,-1.8,3.64,10.03
49.438068,4.101973,17.28,-2.72,1.95,8.83
49.438068,4.101973,17.28,-1.65,2.23,10.79
49.437911,4.101972,17.68,0.69,1.23,8.53
49.437911,4.101972,17.68,-1.12,2.08,10.38
49.43775,4.101975,18.12,0.28,1.77,11.81
49.43775,4.101975,18.12,-1.04,1.03,8.21
49.437587,4.101979,18.38,0.37,2.68,10.67
49.437587,4.101979,18.38,0.2,2.5,8.9
49.437421,4.101979,18.41,0.26,2.21,10.08
49.437421,4.101979,18.41,-1.31,1.34,7.06
49.437252,4.101967,18.72,-1.03,1.2,8.08
49.437252,4.101967,18.72,-1.48,1.84,10.61
49.437081,4.10195,18.89,-0.56,1.16,9.7
49.437081,4.10195,18.89,0.0,1.82,10.18
49.436913,4.101924,18.96,-0.5,2.54,9.99
49.436913,4.101924,18.96,-1.75,0.83,9.11
49.43674,4.101896,19.22,0.63,1.78,8.81
49.43674,4.101896,19.22,-2.32,2.38,10.53
49.436566,4.101862,19.58,-2.07,1.06,8.31
49.436566,4.101862,19.58,-0.81,1.95,9.51
49.436392,4.101836,19.74,-2.2,0.62,8.39
49.436392,4.101836,19.74,0.09,1.63,9.3
49.436209,4.101809,19.94,-0.36,1.81,9.02
49.436209,4.101809,19.94,0.66,1.7,9.5
49.436032,4.101777,20.01,-1.24,2.01,11.92
49.436032,4.101777,20.01,-0.89,1.81,10.32
49.435847,4.101743,20.06,-1.14,1.12,9.91
49.435847,4.101743,20.06,-0.66,1.61,10.08
49.435663,4.101708,20.01,-0.16,1.27,10.26
49.435663,4.101708,20.01,-0.92,1.68,9.99
49.435486,4.101671,20.0,-0.93,0.91,9.87
49.435486,4.101671,20.0,-2.19,1.58,9.93
49.43531,4.101632,19.69,-0.32,2.19,11.63
49.43531,4.101632,19.69,-0.89,1.38,11.05
49.435134,4.101594,19.62,-0.51,1.85,12.89
49.435134,4.101594,19.62,-0.76,1.47,10.44
49.434961,4.101559,19.36,-0.79,2.61,11.0
49.434791,4.101523,19.19,-1.11,1.34,9.6
49.434791,4.101523,19.19,-0.64,1.05,9.78
49.43462,4.101486,18.96,1.16,2.04,9.17
49.43462,4.101486,18.96,-1.06,1.57,9.35
49.434453,4.101452,18.7,-0.75,2.51,11.42
49.434453,4.101452,18.7,-1.37,0.23,9.42
49.434286,4.101415,18.56,-0.63,0.03,11.29
49.434286,4.101415,18.56,-0.91,1.67,12.03
49.434123,4.101374,18.49,-1.47,1.38,9.55
49.434123,4.101374,18.49,-0.68,1.58,8.19
49.43396,4.10133,18.49,0.11,0.64,8.71
49.43396,4.10133,18.49,-1.2,1.33,7.4
49.433794,4.101282,18.5,-1.51,1.12,9.31
49.433794,4.101282,18.5,-0.27,1.74,9.35
49.433629,4.101233,18.64,0.01,1.16,9.5
49.433629,4.101233,18.64,-0.45,0.73,9.85
49.433464,4.101189,18.75,0.3,0.93,7.49
49.433464,4.101189,18.75,0.0,2.26,9.66
49.433296,4.10114,18.9,-2.31,1.22,10.69
49.433296,4.10114,18.9,-1.57,1.92,10.69
49.433127,4.10109,18.88,-1.9,1.13,10.63
49.433127,4.10109,18.88,-0.25,1.57,9.9
49.432956,4.101042,18.96,-0.09,1.6,10.75
49.432956,4.101042,18.96,-0.79,0.94,8.66
49.432788,4.100994,19.01,-0.81,1.97,9.83
49.432788,4.100994,19.01,0.01,1.98,10.59
49.432619,4.100947,19.09,0.1,2.63,9.53
49.432619,4.100947,19.09,-0.48,0.7,10.43
49.432449,4.100901,19.09,-0.5,1.25,8.92
49.432449,4.100901,19.09,-2.14,0.01,7.41
49.432277,4.100852,19.12,-0.96,2.99,12.1
49.432277,4.100852,19.12,-0.97,0.79,10.05
49.432106,4.100804,19.14,-0.75,0.48,10.51
49.432106,4.100804,19.14,-1.99,1.06,9.61
49.431937,4.100757,19.1,-0.14,1.37,9.34
49.431937,4.100757,19.1,0.0,1.03,8.94
49.431767,4.100708,19.31,1.23,0.31,9.11
49.431767,4.100708,19.31,-0.86,1.77,8.24
49.431595,4.100657,19.52,-2.03,2.3,10.35
49.431595,4.100657,19.52,-0.86,2.22,10.45
49.431421,4.100599,19.68,0.36,1.43,8.79
49.431245,4.100539,19.72,-0.65,2.29,9.53
49.431245,4.100539,19.72,0.05,1.49,7.44
49.431071,4.100481,19.72,0.49,1.9,9.36
49.431071,4.100481,19.72,0.29,1.23,9.03
49.430899,4.100422,19.78,0.84,0.34,9.23
49.430899,4.100422,19.78,-1.15,-0.09,10.02
49.430724,4.100365,19.68,-1.71,1.5,10.08
49.430724,4.100365,19.68,-0.19,1.46,10.53
49.43055,4.100308,19.62,0.74,0.68,7.77
49.43055,4.100308,19.62,-0.07,0.87,8.14
49.430378,4.100253,19.51,-0.98,1.8,9.09
49.430378,4.100253,19.51,0.29,-0.35,8.15
49.43021,4.100197,18.88,0.39,0.73,8.39
49.43021,4.100197,18.88,-0.51,1.07,10.43
49.430049,4.100146,18.32,-0.94,0.65,9.61
49.430049,4.100146,18.32,-0.38,1.55,8.86
49.429892,4.100094,17.69,-2.18,0.32,9.66
49.429892,4.100094,17.69,-0.42,0.6,8.1
49.429739,4.100044,17.28,-0.34,1.55,9.03
49.429739,4.100044,17.28,-1.07,1.81,9.94
49.429587,4.099994,17.36,-0.98,0.64,9.27
49.429587,4.099994,17.36,-0.62,2.49,9.86
49.429433,4.099942,17.46,-0.43,2.12,9.46
49.429433,4.099942,17.46,-1.26,0.55,8.69
49.429276,4.099889,17.6,-0.89,2.41,10.97
49.429276,4.099889,17.6,-1.96,1.71,10.97
49.429119,4.099839,17.62,-0.77,1.64,10.33
49.429119,4.099839,17.62,-1.24,1.97,9.54
49.428959,4.099786,17.9,-0.75,2.29,11.01
49.428959,4.099786,17.9,-1.7,0.92,7.83
49.428798,4.099731,18.28,-1.05,2.53,9.82
49.428798,4.099731,18.28,0.43,0.11,7.86
49.428635,4.099676,18.57,-0.69,1.97,11.33
49.428635,4.099676,18.57,-1.61,1.34,10.06
49.428469,4.099619,18.94,-1.12,2.52,7.95
49.428469,4.099619,18.94,-1.24,0.9,8.67
49.428302,4.099559,19.44,-1.04,2.3,8.81
49.428302,4.099559,19.44,-0.99,2.04,8.29
49.42813,4.099499,19.53,-0.22,1.94,9.71
49.42813,4.099499,19.53,-1.07,1.87,10.98
49.427959,4.09944,19.85,-1.45,2.33,11.29
49.427959,4.09944,19.85,-1.79,0.77,9.0
49.427784,4.099382,19.99,-2.22,1.26,9.85
49.427784,4.099382,19.99,-0.96,2.32,10.82
49.427608,4.099326,20.17,-1.36,0.64,9.4
49.427608,4.099326,20.17,-0.22,1.57,8.79
49.427429,4.09927,20.27,-0.54,1.43,9.6
49.427251,4.099213,20.11,-0.2,2.69,9.71
49.427251,4.099213,20.11,-0.29,1.44,10.17
49.427076,4.099156,19.74,-0.75,1.48,9.9
49.427076,4.099156,19.74,-0.75,0.66,9.18
49.426901,4.099101,19.45,-1.71,0.68,8.49
49.426901,4.099101,19.45,-0.8,0.06,9.76
49.42673,4.099046,19.1,-1.04,1.43,11.47
49.42673,4.099046,19.1,-1.02,1.12,9.96
49.426565,4.098996,18.87,-1.36,0.8,8.33
49.426565,4.098996,18.87,-1.15,0.64,9.72
49.426402,4.098949,18.5,-0.56,0.72,10.19
49.426402,4.098949,18.5,-0.47,1.63,9.74
49.42624,4.098905,18.42,-0.5,0.17,8.92
49.42624,4.098905,18.42,-1.51,1.92,9.65
49.426078,4.098857,18.12,-0.31,0.96,9.37
49.426078,4.098857,18.12,-0.29,1.53,10.12
49.425919,4.098814,17.94,-1.82,2.53,11.04
49.425919,4.098814,17.94,-1.47,1.22,9.13
49.425762,4.098775,17.66,-0.82,1.12,8.83
49.425762,4.098775,17.66,-1.49,0.32,8.9
49.425609,4.098735,16.71,-0.02,1.74,10.07
49.425609,4.098735,16.71,-1.76,0.7,11.89
49.425464,4.098697,16.19,-1.44,0.63,9.52
49.425464,4.098697,16.19,-0.22,0.18,8.37
49.425329,4.09866,15.58,-1.67,0.66,11.13
49.425329,4.09866,15.58,-1.14,0.51,10.07
49.425197,4.098621,14.97,-0.38,0.88,7.77
49.425197,4.098621,14.97,-0.04,-0.85,9.01
49.425069,4.098584,14.18,-2.31,0.29,9.04
49.425069,4.098584,14.18,-0.75,0.53,9.31
49.424946,4.098551,13.31,-0.44,0.76,10.15
49.424946,4.098551,13.31,-0.69,0.32,9.13
49.424826,4.098515,12.7,-0.22,1.23,8.68
49.424826,4.098515,12.7,-0.79,1.19,10.3
49.424715,4.098484,12.09,0.21,0.19,11.17
49.424715,4.098484,12.09,-0.68,0.84,8.94
49.424611,4.098455,11.54,-0.71,1.54,9.54
49.424611,4.098455,11.54,-0.75,1.16,9.19
49.424511,4.098427,11.03,-1.5,0.74,9.48
49.424511,4.098427,11.03,-0.5,2.26,9.92
49.424414,4.098399,11.01,-0.93,0.45,9.66
49.424414,4.098399,11.01,-1.36,1.19,9.11
49.424318,4.098371,10.78,-1.14,1.04,9.61
49.424224,4.098346,10.38,-0.2,1.19,10.68
49.424224,4.098346,10.38,-1.74,-0.27,9.77
49.424137,4.098323,9.8,-1.13,0.64,9.23
49.424137,4.098323,9.8,-0.51,1.22,9.2
49.424055,4.098302,9.13,-1.33,0.51,10.06
49.424055,4.098302,9.13,-0.59,0.22,10.18
49.423977,4.098279,8.55,-0.86,0.39,9.48
49.423977,4.098279,8.55,-1.56,1.32,10.49
49.423904,4.098256,7.82,-1.78,0.23,7.76
49.423904,4.098256,7.82,-0.45,0.34,10.64
49.423842,4.098239,6.77,0.35,0.45,10.21
49.423842,4.098239,6.77,-0.43,-0.23,9.82
49.423788,4.098219,5.28,0.32,0.29,10.68
49.423788,4.098219,5.28,-0.13,-0.27,9.55
49.423748,4.098205,3.97,-0.1,0.38,10.34
49.423748,4.098205,3.97,-0.6,0.13,10.5
49.423748,4.098205,0.0,-0.36,0.63,10.0
49.423748,4.098205,0.0,-1.06,1.61,9.66
49.423748,4.098205,0.0,-0.73,2.25,9.57
49.423748,4.098205,0.0,-0.81,1.58,9.64
49.423686,4.098185,2.54,-0.73,0.48,9.96
49.423686,4.098185,2.54,-0.41,0.32,9.84
49.423686,4.098185,0.0,-0.78,2.0,9.56
49.423686,4.098185,0.0,-0.67,2.44,9.48
49.423686,4.098185,0.0,-0.52,3.14,9.3
49.423686,4.098185,0.0,-0.33,3.11,9.6
49.423637,4.098155,2.91,0.31,2.83,8.35
49.423637,4.098155,2.91,-1.59,3.38,10.72
49.423604,4.098143,4.25,-0.39,3.1,10.14
49.423604,4.098143,4.25,0.44,2.51,9.01
49.423562,4.098123,5.42,-0.88,1.81,9.04
49.423562,4.098123,5.42,-0.46,1.67,10.89
49.42352,4.098106,5.58,-0.09,1.7,10.43
49.42352,4.098106,5.58,-1.23,1.03,9.76
49.423478,4.098084,5.28,-0.98,1.55,10.15
49.423478,4.098084,5.28,-2.62,1.02,9.56
49.423435,4.098064,5.01,-2.81,0.79,9.79
49.423435,4.098064,5.01,-2.5,0.86,9.65
49.42339,4.09805,5.02,-1.97,0.91,9.76
49.42339,4.09805,5.02,-2.33,0.72,9.67
49.42335,4.098056,4.59,-1.93,1.04,10.19
49.42335,4.098056,4.59,-2.47,0.86,10.28
49.423319,4.098091,3.97,-1.42,1.55,10.5
49.423319,4.098091,3.97,-0.26,1.09,8.41
49.423301,4.098143,3.98,-1.56,1.28,8.37
49.423304,4.098199,4.04,-0.86,1.01,9.01
49.423304,4.098199,4.04,-0.23,1.54,7.55
49.423309,4.09827,4.06,-0.23,1.23,7.5
49.423309,4.09827,4.06,-0.68,2.49,10.77
49.423297,4.098338,4.29,-0.8,2.15,9.47
49.423297,4.098338,4.29,-0.54,2.31,9.79
49.42328,4.098407,5.02,-0.47,2.31,9.64
49.42328,4.098407,5.02,-1.34,2.26,9.33
49.423261,4.098471,5.87,-1.55,1.66,9.19
49.423261,4.098471,5.87,-0.86,2.26,10.88
49.423237,4.098542,6.45,-0.5,2.17,9.95
49.423237,4.098542,6.45,-0.91,2.52,9.61
49.423213,4.09862,6.88,-0.18,2.11,9.13
49.423213,4.09862,6.88,-0.68,1.83,8.75
49.423192,4.098696,7.37,-0.88,2.7,10.16
49.423192,4.098696,7.37,-1.35,3.16,9.86
49.423167,4.098796,7.71,0.08,2.56,10.8
49.423167,4.098796,7.71,-1.06,1.63,9.53
49.423131,4.098894,7.83,-1.0,1.98,9.8
49.423131,4.098894,7.83,-1.76,1.65,10.28
49.423093,4.098989,7.56,-0.28,2.28,10.73
49.423093,4.098989,7.56,-1.01,1.03,9.18
49.423055,4.099087,7.25,-0.81,2.17,9.7
49.423055,4.099087,7.25,-0.9,1.96,9.28
49.423026,4.099168,7.15,-0.41,1.43,10.57
49.423026,4.099168,7.15,-2.31,0.95,8.75
49.422994,4.099256,7.06,-0.55,2.23,9.82
49.422994,4.099256,7.06,-1.23,2.09,8.01
49.422965,4.09934,7.04,-0.96,1.1,8.59
49.422965,4.09934,7.04,-0.48,1.67,9.94
49.422936,4.09943,6.83,-0.58,1.79,9.85
49.422936,4.09943,6.83,-0.54,1.92,8.72
49.422909,4.099507,6.64,-1.26,1.0,9.93
49.422909,4.099507,6.64,-1.02,1.22,9.88
49.422882,4.099585,6.29,-1.17,0.92,9.98
49.422882,4.099585,6.29,-0.86,0.9,9.98
49.422859,4.099661,5.87,-0.84,1.73,9.44
49.422859,4.099661,5.87,-1.49,1.56,9.75
49.422839,4.099733,5.37,-0.97,0.9,10.12
49.422839,4.099733,5.37,-0.63,1.67,9.98
49.422822,4.099797,4.91,-0.53,1.36,9.78
49.422822,4.099797,4.91,-1.33,1.82,10.55
49.422808,4.099864,4.59,-0.03,0.84,8.8
49.422808,4.099864,4.59,-0.02,1.71,10.24
49.422789,4.099924,4.18,0.16,1.85,9.95
49.422772,4.099983,3.98,-0.64,1.62,10.11
49.422772,4.099983,3.98,-0.22,1.68,9.01
49.422759,4.100039,3.76,-0.07,2.25,10.02
49.422759,4.100039,3.76,0.1,1.24,12.12
49.422746,4.100087,3.36,-0.62,2.06,9.82
49.422746,4.100087,3.36,-0.15,0.92,6.83
49.422737,4.100139,3.1,-0.58,2.22,10.27
49.422737,4.100139,3.1,-0.3,2.73,9.37
49.422728,4.100186,3.79,-1.24,2.4,9.2
49.422728,4.100186,3.79,-0.08,2.51,9.42
49.422713,4.10024,5.03,-0.78,2.34,8.92
49.422713,4.10024,5.03,-0.41,2.32,9.57
49.422691,4.100311,6.03,0.01,2.19,9.35
49.422691,4.100311,6.03,-0.16,1.56,8.68
49.422668,4.100387,6.32,-1.02,0.49,10.18
49.422668,4.100387,6.32,0.09,1.41,10.82
49.422649,4.100465,5.8,-0.39,0.49,9.59
49.422649,4.100465,5.8,0.1,0.29,10.27
49.422633,4.100534,4.58,-0.81,0.43,9.83
49.422633,4.100534,4.58,-1.02,1.55,9.96
49.42262,4.100591,3.4,-1.98,1.72,9.73
49.42262,4.100591,3.4,-0.53,1.65,7.55
49.422612,4.100626,3.0,-0.42,3.17,9.74
49.422612,4.100626,3.0,-0.63,3.32,9.66
49.422605,4.100669,3.87,-1.08,3.37,9.11
49.422605,4.100669,3.87,-1.6,3.34,8.81
49.422592,4.100731,5.61,-1.49,2.84,8.94
49.422592,4.100731,5.61,-1.3,2.31,8.88
49.42258,4.100813,6.89,-1.38,3.29,8.74
49.42258,4.100813,6.89,-0.46,2.69,9.92
49.422567,4.100912,7.92,0.19,1.74,9.42
49.422567,4.100912,7.92,-0.79,0.61,10.48
49.422554,4.101023,7.93,0.15,1.77,10.1
49.422554,4.101023,7.93,-0.38,0.46,9.46
49.422538,4.101129,6.98,-0.27,0.5,10.01
49.422538,4.101129,6.98,-0.2,-0.01,10.34
49.422527,4.101214,5.55,-0.41,0.51,9.31
49.422527,4.101214,5.55,-0.69,1.0,9.29
49.422516,4.101281,4.33,-0.54,1.22,9.43
49.422516,4.101281,4.33,-0.63,1.62,7.46
49.422509,4.101345,3.77,-0.52,1.21,6.39
49.422509,4.101345,3.77,-0.39,2.61,10.72
49.422501,4.101401,3.69,-0.01,3.43,9.61
49.422489,4.101459,5.08,-0.33,3.26,9.62
49.422489,4.101459,5.08,-0.48,2.94,9.05
49.422465,4.101523,6.1,0.64,3.22,9.7
49.422465,4.101523,6.1,0.67,3.79,10.49
49.422428,4.101597,7.5,-0.06,2.53,9.61
49.422428,4.101597,7.5,0.82,3.18,9.11
49.422373,4.101668,8.42,-0.35,2.29,8.87
49.422373,4.101668,8.42,0.3,2.99,8.8
49.422301,4.101731,9.54,0.59,2.61,9.62
49.422301,4.101731,9.54,-1.31,3.51,9.85
49.42221,4.101774,10.61,0.51,2.46,9.05
49.42221,4.101774,10.61,-0.26,3.55,10.1
49.422108,4.101794,11.25,0.1,2.86,10.67
49.422108,4.101794,11.25,0.04,2.26,10.01
49.421998,4.101787,12.02,0.35,2.6,9.23
49.421998,4.101787,12.02,-0.02,2.68,9.95
49.421885,4.101754,12.4,-0.59,2.68,10.9
49.421885,4.101754,12.4,-1.11,2.3,8.1
49.421775,4.101703,12.9,-1.4,2.46,9.05
49.421775,4.101703,12.9,-0.58,2.81,10.4
49.421661,4.10164,13.44,-1.19,1.7,10.2
49.421661,4.10164,13.44,0.21,0.99,9.73
49.421545,4.101582,13.64,-1.2,1.14,9.09
49.421545,4.101582,13.64,-0.83,1.11,8.81
49.421428,4.101519,13.55,-0.88,1.38,10.54
49.421428,4.101519,13.55,-1.52,1.71,9.67
49.421311,4.101455,13.15,-0.26,1.69,10.08
49.421311,4.101455,13.15,-0.97,0.87,8.76
49.421201,4.101396,12.72,-0.79,1.5,10.48
49.421201,4.101396,12.72,-0.14,1.1,9.08
49.421096,4.10134,12.63,-1.36,1.62,10.57
49.421096,4.10134,12.63,-0.78,1.99,9.9
49.42099,4.101284,12.49,-0.68,0.88,8.75
49.42099,4.101284,12.49,-0.33,2.37,9.79
49.420883,4.101226,12.72,-0.54,1.84,9.13
49.420883,4.101226,12.72,-1.58,1.58,8.88
49.420775,4.101162,12.95,-0.86,1.63,8.45
49.420775,4.101162,12.95,-0.78,1.92,8.69
49.42066,4.101104,13.36,-0.73,1.71,8.62
49.420546,4.101045,13.46,-0.39,2.01,9.5
49.420546,4.101045,13.46,-0.37,2.09,9.91
49.420428,4.100983,13.68,-0.52,1.85,9.41
49.420428,4.100983,13.68,-0.43,2.24,9.32
49.420306,4.100923,13.93,-0.6,2.42,10.02
49.420306,4.100923,13.93,-1.03,2.6,10.19
49.420182,4.100869,14.65,-0.72,1.62,8.53
49.420182,4.100869,14.65,-0.48,2.72,10.27
49.420058,4.100812,14.95,0.14,2.17,8.87
49.420058,4.100812,14.95,-0.4,2.73,10.17
49.419926,4.100749,15.42,-0.07,2.27,11.11
49.419926,4.100749,15.42,-0.75,1.88,10.29
49.419789,4.100683,15.59,0.37,1.5,9.77
49.419789,4.100683,15.59,-1.43,1.47,10.61
49.419648,4.100613,15.84,-0.46,1.63,9.56
49.419648,4.100613,15.84,-0.22,1.61,9.85
49.419513,4.100545,15.12,0.18,1.88,11.4
49.419513,4.100545,15.12,-0.37,1.47,9.35
49.419383,4.100481,15.01,-0.94,1.01,9.76
49.419383,4.100481,15.01,-1.11,0.02,9.36
49.419256,4.100419,14.55,-0.14,0.96,10.99
49.419256,4.100419,14.55,1.58,1.94,10.35
49.41913,4.100365,13.96,1.79,1.97,9.96
49.41913,4.100365,13.96,1.64,1.98,9.35
49.419016,4.100311,12.87,1.79,1.23,8.67
49.419016,4.100311,12.87,4.27,1.2,13.53
49.418917,4.100238,12.37,2.49,2.47,9.24
49.418917,4.100238,12.37,3.66,2.27,10.11
49.418838,4.100126,11.75,2.37,2.81,9.15
49.418838,4.100126,11.75,1.58,2.85,9.22
49.418794,4.099968,12.5,1.47,3.59,8.31
49.418794,4.099968,12.5,-0.41,2.49,9.11
49.418771,4.099784,12.66,-0.48,2.65,9.11
49.418771,4.099784,12.66,-0.95,1.3,9.97
49.418762,4.099591,13.41,0.31,1.95,9.28
49.418762,4.099591,13.41,-0.28,1.7,10.21
49.418747,4.099399,13.61,-0.78,2.2,10.05
49.418747,4.099399,13.61,0.78,2.5,7.95
49.418728,4.099211,13.44,-0.86,1.26,7.85
49.418728,4.099211,13.44,-0.66,1.55,9.65
49.418711,4.099026,13.33,-0.45,1.84,8.09
49.418692,4.098832,13.71,-1.97,1.92,8.93
49.418692,4.098832,13.71,-2.16,1.28,9.16
49.418668,4.098639,13.01,-1.94,1.04,9.07
49.418668,4.098639,13.01,-2.45,1.4,10.88
49.418642,4.098463,12.51,-3.38,0.52,9.9
49.418642,4.098463,12.51,-3.04,1.25,9.88
49.4186,4.098301,11.93,-3.06,1.25,10.13
49.4186,4.098301,11.93,-3.51,0.65,8.38
49.418533,4.098158,12.04,-4.0,1.24,10.41
49.418533,4.098158,12.04,-3.69,1.61,10.26
49.418443,4.098064,11.86,-4.5,1.63,9.99
49.418443,4.098064,11.86,-2.18,1.81,8.1
49.418332,4.098025,12.5,-1.74,2.42,8.75
49.418332,4.098025,12.5,-1.14,2.23,9.83
49.418216,4.098018,13.24,-0.83,2.0,10.06
49.418216,4.098018,13.24,-0.55,2.61,9.09
49.418093,4.09802,13.91,-1.24,2.44,9.83
49.418093,4.09802,13.91,-1.32,2.53,10.0
49.417963,4.098014,14.54,-0.77,2.72,8.92
49.417963,4.098014,14.54,-0.32,2.28,9.65
49.417827,4.098008,15.38,-1.21,2.1,10.01
49.417827,4.098008,15.38,0.27,2.44,10.31
49.417684,4.098001,15.95,-1.42,2.97,8.32
49.417684,4.098001,15.95,-1.13,2.6,10.19
49.417532,4.097993,16.69,-0.2,2.03,12.72
49.417532,4.097993,16.69,-0.26,2.44,8.26
49.417375,4.097982,17.22,-1.56,2.57,9.17
49.417375,4.097982,17.22,-0.68,3.07,11.54
49.417213,4.09797,17.96,-1.32,2.78,10.45
49.417213,4.09797,17.96,-0.03,2.12,9.35
49.417044,4.097955,18.69,0.14,3.05,10.97
49.417044,4.097955,18.69,-0.23,3.27,10.24
49.41687,4.097943,19.22,-0.83,2.56,8.36
49.41687,4.097943,19.22,-1.33,1.84,8.16
49.416693,4.097931,19.65,0.02,2.14,10.34
49.416693,4.097931,19.65,-0.87,1.47,10.97
49.416511,4.097919,20.14,0.17,2.45,9.25
49.416511,4.097919,20.14,-0.07,2.75,9.26
49.416327,4.097907,20.51,0.42,1.92,8.84
49.416327,4.097907,20.51,0.09,1.81,10.12
49.416137,4.09789,20.85,-0.28,2.37,9.39
49.415947,4.097873,20.97,-0.28,1.68,9.41
49.415947,4.097873,20.97,-1.94,1.45,10.23
49.415756,4.097856,21.01,-1.33,2.1,8.72
49.415756,4.097856,21.01,-0.16,2.35,9.46
49.415566,4.097841,21.1,-0.22,2.3,9.81
49.415566,4.097841,21.1,0.63,3.46,13.44
49.415375,4.097822,21.17,0.07,2.81,10.76
49.415375,4.097822,21.17,0.79,3.06,9.62
49.415183,4.097804,21.33,0.03,2.39,10.21
49.415183,4.097804,21.33,0.26,2.21,10.3
49.414991,4.097781,21.46,-0.29,2.56,10.93
49.414991,4.097781,21.46,0.06,2.66,9.95
49.414799,4.097757,21.57,-1.25,1.44,9.49
49.414799,4.097757,21.57,-0.11,1.57,10.47
49.414606,4.097731,21.68,-1.42,1.58,7.62
49.414606,4.097731,21.68,-0.92,1.56,9.79
49.414411,4.097708,21.78,0.09,1.45,9.2
49.414411,4.097708,21.78,0.97,2.18,10.76
49.414217,4.097689,21.84,-0.13,2.2,11.18
49.414217,4.097689,21.84,0.33,1.77,9.22
49.414023,4.097669,21.91,-0.12,2.5,8.97
49.414023,4.097669,21.91,0.16,2.72,9.29
49.413829,4.097648,21.82,-0.46,0.91,7.01
49.413829,4.097648,21.82,-0.77,1.72,11.53
49.413634,4.097624,21.52,0.74,1.27,8.59
49.413634,4.097624,21.52,-0.36,1.39,9.54
49.41344,4.097599,21.39,-0.24,1.92,9.61
49.41344,4.097599,21.39,-0.26,2.11,11.1
49.413252,4.097573,21.13,-1.09,1.15,8.33
49.413252,4.097573,21.13,-0.71,2.12,7.83
49.41306,4.097555,20.91,-0.37,0.59,10.26
49.41306,4.097555,20.91,-1.0,1.04,11.49
49.412872,4.097541,20.79,-0.3,0.92,11.06
49.412872,4.097541,20.79,-0.82,1.37,8.34
49.412685,4.097524,20.69,-1.57,1.15,7.96
49.412685,4.097524,20.69,0.37,1.81,9.02
49.4125,4.097507,20.66,-0.62,1.71,7.81
49.4125,4.097507,20.66,1.07,1.41,9.27
49.412318,4.097489,20.69,-0.33,1.56,8.75
49.412318,4.097489,20.69,-1.32,2.85,10.92
49.41213,4.097474,20.86,-1.56,1.44,10.11
49.411944,4.097456,20.91,-0.76,1.38,9.86
49.411944,4.097456,20.91,0.21,1.21,10.28
49.411755,4.097438,21.15,0.03,1.76,8.96
49.411755,4.097438,21.15,-0.61,2.67,7.77
49.411561,4.097416,21.32,0.57,2.97,10.38
49.411561,4.097416,21.32,-0.19,2.37,9.84
49.411365,4.097386,21.63,0.36,1.61,9.54
49.411365,4.097386,21.63,-0.74,0.99,8.42
49.411173,4.097353,21.7,0.16,1.67,10.35
49.411173,4.097353,21.7,-0.47,1.58,8.43
49.410979,4.097322,21.81,0.04,1.94,10.8
49.410979,4.097322,21.81,-0.91,2.23,8.67
49.410783,4.097293,21.9,-1.06,1.8,10.37
49.410783,4.097293,21.9,-0.98,1.42,7.61
49.410589,4.097262,22.04,-1.02,1.83,10.03
49.410589,4.097262,22.04,-0.48,1.12,8.98
49.41039,4.097232,22.25,-0.48,2.87,10.62
49.41039,4.097232,22.25,0.52,2.26,9.98
49.41019,4.097201,22.4,-1.35,2.56,10.9
49.41019,4.097201,22.4,-1.76,1.7,9.89
49.409988,4.09717,22.7,-0.26,1.54,12.77
49.409988,4.09717,22.7,-1.72,2.22,10.03
49.409785,4.097139,22.77,-1.24,1.58,8.7
49.409785,4.097139,22.77,-0.15,1.55,8.66
49.409582,4.097105,22.98,-0.42,1.21,10.24
49.409582,4.097105,22.98,-1.4,1.58,9.66
49.409376,4.097069,22.95,-0.13,1.84,9.87
49.409376,4.097069,22.95,0.79,2.38,11.13
49.40917,4.097038,23.07,-0.71,1.49,8.7
49.40917,4.097038,23.07,1.15,2.42,11.02
49.408965,4.097009,23.07,-0.76,1.78,10.67
49.408965,4.097009,23.07,-0.47,1.46,11.25
49.408758,4.096969,22.94,-3.4,0.57,9.91
49.408758,4.096969,22.94,-0.69,2.13,9.69
49.408553,4.096936,22.8,0.17,1.76,8.4
49.408553,4.096936,22.8,-0.91,0.89,8.23
49.408346,4.096895,22.77,0.65,0.38,8.18
49.408346,4.096895,22.77,-0.07,1.17,10.79
49.408144,4.096858,21.99,0.18,2.0,8.77
49.408144,4.096858,21.99,-1.34,0.8,9.88
49.407954,4.096821,21.59,-0.47,1.59,9.12
49.407954,4.096821,21.59,-0.04,1.0,8.78
49.407766,4.096791,21.05,0.03,1.81,9.65
49.40758,4.096762,20.82,-0.12,1.61,10.43
49.40758,4.096762,20.82,-0.09,2.0,8.76
49.407391,4.096729,20.88,-0.93,1.85,9.34
49.407391,4.096729,20.88,-0.82,3.01,11.14
49.407205,4.096699,20.93,-0.9,1.28,7.3
49.407205,4.096699,20.93,-0.49,1.78,11.12
49.407021,4.096667,20.97,-0.07,2.25,8.65
49.407021,4.096667,20.97,-0.64,2.37,8.61
49.406828,4.096633,21.1,1.48,3.21,10.45
49.406828,4.096633,21.1,0.02,1.68,9.01
49.406647,4.096605,21.08,0.12,2.71,10.41
49.406647,4.096605,21.08,-1.28,0.95,11.36
49.406458,4.096576,21.09,1.27,1.87,9.78
49.406458,4.096576,21.09,-0.93,2.74,9.85
49.40627,4.096546,21.18,-0.63,1.4,8.9
49.40627,4.096546,21.18,0.69,1.71,9.77
49.406087,4.096517,20.93,-1.02,1.9,8.99
49.406087,4.096517,20.93,-0.91,2.19,9.55
49.405904,4.096486,20.8,-0.67,1.93,10.09
49.405904,4.096486,20.8,-1.76,0.96,9.71
49.405718,4.096456,20.54,-1.57,1.51,9.39
49.405718,4.096456,20.54,-1.24,1.26,8.25
49.405536,4.096426,20.16,-0.38,1.85,9.63
49.405536,4.096426,20.16,-0.51,2.08,11.94
49.40536,4.096392,19.98,1.68,1.16,7.6
49.40536,4.096392,19.98,0.3,2.16,9.79
49.405186,4.096361,19.84,-0.57,1.55,10.11
49.405186,4.096361,19.84,-1.33,2.8,11.01
49.405009,4.096337,19.71,-0.5,1.67,10.99
49.405009,4.096337,19.71,-0.69,1.45,9.4
49.404833,4.096314,19.67,-0.12,2.26,10.06
49.404833,4.096314,19.67,-0.41,2.36,9.61
49.404658,4.096288,19.54,-0.8,1.21,7.07
49.404658,4.096288,19.54,-0.84,2.55,10.07
49.404484,4.09626,19.36,0.45,2.16,10.0
49.404484,4.09626,19.36,-0.2,1.97,8.4
49.404311,4.096232,19.27,-1.7,2.58,10.36
49.404311,4.096232,19.27,0.39,1.67,9.89
49.404138,4.096201,19.31,0.31,2.05,10.3
49.404138,4.096201,19.31,0.52,2.32,8.99
49.403967,4.096173,19.4,-0.8,3.38,11.48
49.403967,4.096173,19.4,-0.58,2.69,9.75
49.403794,4.096145,19.45,-0.15,1.25,10.52
49.40362,4.096116,19.66,0.13,1.41,7.35
49.40362,4.096116,19.66,0.13,3.4,10.03
49.403448,4.096087,19.89,0.09,2.11,12.37
49.403448,4.096087,19.89,0.52,1.66,8.59
49.403269,4.096054,20.27,-0.47,2.14,9.44
49.403269,4.096054,20.27,-1.27,1.76,9.61
49.403088,4.096015,20.41,-1.48,2.04,8.92
49.403088,4.096015,20.41,-0.23,2.49,10.62
49.4029,4.095986,20.56,-0.51,2.4,8.79
49.4029,4.095986,20.56,0.88,3.28,8.1
49.40272,4.095964,20.98,-0.36,1.82,10.01
49.40272,4.095964,20.98,-1.03,1.95,12.08
49.402531,4.095927,21.12,-0.86,2.76,9.7
49.402531,4.095927,21.12,-1.06,1.72,9.95
49.402338,4.095896,21.32,0.96,1.96,9.59
49.402338,4.095896,21.32,-2.12,2.48,10.99
49.402141,4.095858,21.45,0.39,1.62,8.33
49.402141,4.095858,21.45,0.69,2.04,10.1
49.401949,4.095823,21.48,-0.53,1.81,12.9
49.401949,4.095823,21.48,-0.86,1.54,10.35
49.401761,4.095778,21.51,-0.34,1.65,8.3
49.401761,4.095778,21.51,-0.48,1.04,7.23
49.401573,4.095731,21.53,-0.19,1.8,12.42
49.401573,4.095731,21.53,-1.61,0.67,7.63
49.401374,4.09568,21.71,0.9,1.7,8.61
49.401374,4.09568,21.71,-2.78,0.13,8.72
49.401178,4.095625,21.76,0.91,1.32,13.15
49.401178,4.095625,21.76,-0.34,1.21,9.82
49.400983,4.095591,21.83,-0.12,1.73,10.98
49.400983,4.095591,21.83,-0.81,0.72,10.05
49.400783,4.095563,21.67,-1.81,1.3,8.02
49.400783,4.095563,21.67,-0.49,0.81,10.09
49.400589,4.095544,21.51,-0.48,2.44,7.36
49.400589,4.095544,21.51,-1.08,1.02,9.93
49.400395,4.095528,21.42,0.15,2.95,11.79
49.400395,4.095528,21.42,-0.75,0.52,6.11
49.400202,4.095516,21.3,-0.52,1.1,9.58
49.400202,4.095516,21.3,-2.73,2.18,10.25
49.400009,4.0955,21.02,-0.65,2.08,11.21
49.400009,4.0955,21.02,-1.86,1.92,10.77
49.399821,4.09549,20.82,-1.75,1.83,7.84
49.399633,4.095481,20.69,0.54,2.01,10.98
49.399633,4.095481,20.69,0.35,2.26,8.18
49.39945,4.095479,20.43,-1.38,1.0,10.41
49.39945,4.095479,20.43,-0.75,2.7,10.27
49.399269,4.095476,20.42,-1.32,0.11,8.39
49.399269,4.095476,20.42,0.13,-0.7,7.78
49.399091,4.095479,20.29,-1.62,1.92,8.72
49.399091,4.095479,20.29,-0.66,0.38,8.53
49.398913,4.095485,20.31,-0.63,3.02,10.76
49.398913,4.095485,20.31,0.04,0.55,8.64
49.398731,4.095491,20.23,-0.83,0.18,10.74
49.398731,4.095491,20.23,-0.33,2.23,9.31
49.398554,4.095501,20.12,-0.68,0.57,7.32
49.398554,4.095501,20.12,0.44,2.94,9.34
49.398368,4.095505,20.42,-0.79,2.47,8.3
49.398368,4.095505,20.42,-0.84,2.42,12.92
49.398178,4.095499,20.44,-0.08,2.17,9.83
49.398178,4.095499,20.44,-2.01,2.36,10.03
49.39799,4.095501,20.43,0.09,0.15,8.67
49.39799,4.095501,20.43,1.33,2.71,9.91
49.397803,4.095507,20.44,-0.81,1.82,9.97
49.397803,4.095507,20.44,-1.92,2.18,10.81
49.397616,4.095515,20.43,-1.41,-0.34,12.0
49.397616,4.095515,20.43,-1.76,1.89,8.6
49.397437,4.09552,20.51,-1.18,3.4,11.56
49.397437,4.09552,20.51,0.34,1.54,10.82
49.397253,4.095526,20.53,-0.42,1.23,9.74
49.397253,4.095526,20.53,-0.95,1.89,9.38
49.397071,4.095533,20.53,-1.36,1.07,7.04
49.397071,4.095533,20.53,-1.45,0.29,8.2
49.396878,4.095539,20.56,-0.21,2.45,10.17
49.396878,4.095539,20.56,-3.11,0.35,11.37
49.396695,4.095545,20.43,-1.81,2.44,9.81
49.396695,4.095545,20.43,0.58,1.32,11.47
49.396504,4.095551,20.59,-0.97,1.77,11.15
49.396504,4.095551,20.59,-0.62,1.27,8.33
49.396319,4.095551,20.58,0.35,1.74,9.68
49.396319,4.095551,20.58,-1.15,1.88,9.87
49.396132,4.095555,20.54,-1.11,1.16,9.43
49.396132,4.095555,20.54,0.25,1.32,10.83
49.395945,4.095557,20.72,-0.83,1.24,10.86
49.395945,4.095557,20.72,-0.65,2.28,8.09
49.395769,4.095559,20.73,0.35,0.93,9.86
49.395592,4.095566,20.75,-1.76,1.16,9.25
49.395592,4.095566,20.75,0.52,2.23,10.3
49.395404,4.095573,20.66,0.78,2.5,7.49
49.395404,4.095573,20.66,-0.26,1.93,9.2
49.395212,4.095579,20.77,-0.27,1.42,10.17
49.395212,4.095579,20.77,-1.55,1.45,8.05
49.395027,4.095582,20.75,0.49,3.67,10.79
49.395027,4.095582,20.75,-1.67,0.58,10.22
49.394838,4.095589,20.69,0.07,2.09,11.2
49.394838,4.095589,20.69,-0.36,1.34,11.84
49.39465,4.095598,20.69,-1.66,0.69,9.56
49.39465,4.095598,20.69,0.67,1.58,10.51
49.394463,4.095602,20.68,-1.6,2.72,8.32
49.394463,4.095602,20.68,-2.27,1.66,10.77
49.394276,4.095605,20.68,0.19,1.69,10.04
49.394276,4.095605,20.68,0.08,2.09,7.89
49.394091,4.095612,20.69,1.92,0.56,11.78
49.394091,4.095612,20.69,0.93,0.79,10.41
49.393902,4.095618,20.87,0.37,1.89,8.14
49.393902,4.095618,20.87,1.09,1.81,10.77
49.393711,4.095618,20.67,1.36,2.32,8.32
49.393711,4.095618,20.67,1.14,0.85,8.63
49.393526,4.095627,20.69,-2.06,1.66,8.76
49.393526,4.095627,20.69,-2.04,1.02,11.88
49.393335,4.095631,20.65,-2.65,2.6,12.99
49.393335,4.095631,20.65,0.23,3.38,9.95
49.393144,4.095636,20.71,0.21,3.18,11.11
49.393144,4.095636,20.71,0.17,1.32,10.54
49.392959,4.095641,20.57,-1.5,1.44,9.15
49.392959,4.095641,20.57,1.65,0.59,7.64
49.392771,4.095646,20.48,0.06,1.11,9.64
49.392771,4.095646,20.48,-1.3,0.45,5.61
49.392595,4.09566,20.27,-1.08,0.93,9.57
49.392595,4.09566,20.27,-1.11,1.37,9.43
49.392427,4.095667,19.7,1.08,1.63,11.63
49.392427,4.095667,19.7,-0.06,0.7,10.49
49.392256,4.095671,19.42,1.02,0.37,7.77
49.392256,4.095671,19.42,-1.76,1.56,9.51
49.392093,4.095676,19.06,-0.73,1.46,11.63
49.391918,4.095681,18.78,-1.51,1.62,8.6
49.391918,4.095681,18.78,-1.05,1.12,10.37
49.391753,4.095685,18.41,-0.87,2.26,8.95
49.391753,4.095685,18.41,-1.62,0.8,11.46
49.391589,4.095689,18.04,-1.21,2.17,11.37
49.391589,4.095689,18.04,0.52,2.18,10.58
49.391434,4.095697,17.85,-1.86,0.92,10.42
49.391434,4.095697,17.85,-0.8,2.26,8.73
49.391274,4.095705,17.74,-1.79,0.42,12.51
49.391274,4.095705,17.74,0.15,1.86,12.94
49.391125,4.09571,17.36,-1.83,1.36,10.2
49.391125,4.09571,17.36,-0.5,1.85,10.47
49.390969,4.095712,17.04,0.32,1.53,10.37
49.390969,4.095712,17.04,-0.95,2.58,8.63
49.390812,4.095712,16.98,-1.6,0.26,8.07
49.390812,4.095712,16.98,0.88,0.94,10.31
49.390662,4.095716,16.17,-1.11,1.28,9.15
49.390662,4.095716,16.17,-1.88,1.7,10.98
49.390516,4.09572,15.42,-0.13,1.7,12.33
49.390516,4.09572,15.42,-1.61,0.59,10.83
49.390377,4.095726,14.84,-1.5,0.36,6.32
49.390377,4.095726,14.84,1.58,0.36,7.16
49.390249,4.095732,14.14,-1.81,0.45,7.96
49.390249,4.095732,14.14,-0.84,0.17,11.3
49.390132,4.095739,13.16,-1.73,1.86,12.47
49.390132,4.095739,13.16,-0.57,0.24,7.71
49.390009,4.095747,12.78,-1.53,0.89,10.63
49.390009,4.095747,12.78,-0.96,1.58,9.47
49.389903,4.095751,12.01,-0.51,1.7,8.12
49.389903,4.095751,12.01,-0.12,0.92,10.16
49.389789,4.095757,11.95,0.18,1.76,9.04
49.389789,4.095757,11.95,-0.56,1.52,9.44
49.389691,4.09576,11.82,-0.41,0.74,7.05
49.389691,4.09576,11.82,0.56,2.04,10.29
49.389592,4.095761,11.68,0.13,2.3,10.27
49.389592,4.095761,11.68,-0.2,1.69,8.63
49.389489,4.095765,11.62,-1.01,1.93,10.23
49.389489,4.095765,11.62,-1.0,1.08,11.4
49.389385,4.095768,11.32,0.21,2.66,9.85
49.389385,4.095768,11.32,-0.57,0.76,9.32
49.389285,4.095774,10.92,0.21,2.55,10.58
49.389285,4.095774,10.92,-0.45,1.55,10.39
49.389185,4.09578,10.49,-0.46,1.64,9.7
49.389091,4.095779,10.42,-1.48,1.3,10.05
49.389091,4.095779,10.42,-0.23,1.09,8.88
49.388995,4.095783,10.27,-0.33,0.28,10.37
49.388995,4.095783,10.27,-0.47,1.24,8.88
49.388902,4.095789,9.75,-0.3,3.38,10.45
49.388902,4.095789,9.75,-0.98,1.41,11.33
49.388815,4.095796,9.66,-1.52,0.49,8.26
49.388815,4.095796,9.66,-1.2,-0.01,9.76
49.388731,4.095802,8.68,-0.55,0.42,10.84
49.388731,4.095802,8.68,0.45,1.21,9.44
49.388654,4.095806,8.18,-0.57,0.79,8.58
49.388654,4.095806,8.18,-0.41,0.92,9.03
49.388586,4.095807,7.3,-1.13,0.8,10.31
49.388586,4.095807,7.3,-1.35,1.18,10.81
49.388526,4.095805,6.58,-0.79,0.43,9.96
49.388526,4.095805,6.58,-0.52,0.0,10.26
49.388471,4.095807,5.58,-0.81,1.15,9.11
49.388471,4.095807,5.58,-0.14,0.68,8.94
49.38842,4.095807,4.96,-1.0,2.48,10.42
49.38842,4.095807,4.96,-0.85,2.28,9.55
49.38837,4.095808,5.35,-1.58,1.79,9.67
49.38837,4.095808,5.35,-0.71,2.19,9.84
49.388322,4.095813,5.86,-0.94,2.08,9.78
49.388322,4.095813,5.86,-0.56,1.98,9.89
49.388269,4.095818,6.4,-0.22,2.03,8.96
49.388269,4.095818,6.4,-0.12,2.2,9.43
49.388209,4.095821,7.04,-1.45,1.59,11.15
49.388209,4.095821,7.04,-0.92,2.09,10.47
49.388136,4.095819,7.54,-0.57,2.58,10.34
49.388136,4.095819,7.54,-0.44,1.69,9.67
49.388065,4.095824,8.14,-0.48,1.52,9.16
49.388065,4.095824,8.14,-0.37,2.86,10.91
49.387991,4.095835,8.59,-1.01,1.19,8.32
49.387991,4.095835,8.59,-0.78,1.71,10.42
49.387913,4.095849,9.26,-0.16,1.72,7.43
49.387913,4.095849,9.26,-0.06,1.04,8.26
49.387832,4.095861,9.57,-0.67,1.95,8.8
49.387832,4.095861,9.57,-0.8,0.58,8.57
49.387752,4.095878,9.84,-0.21,0.22,9.21
49.387752,4.095878,9.84,-0.57,2.15,9.13
49.387666,4.095884,9.8,-1.14,1.15,9.31
49.38758,4.095887,9.69,0.14,1.58,10.06
49.38758,4.095887,9.69,0.03,3.94,9.6
49.387491,4.095886,9.52,-0.57,0.56,8.88
49.387491,4.095886,9.52,-0.54,1.85,7.61
49.387404,4.095887,9.42,-0.12,1.29,11.05
49.387404,4.095887,9.42,-1.77,0.98,8.39
49.387316,4.09589,9.29,0.57,-0.01,11.19
49.387316,4.09589,9.29,-0.05,0.4,10.81
49.387231,4.095899,8.75,-0.53,2.11,9.77
49.387231,4.095899,8.75,-1.09,0.77,10.52
49.387155,4.095906,8.27,-1.38,0.16,9.62
49.387155,4.095906,8.27,1.27,1.51,9.73
49.387091,4.095915,7.9,0.6,1.58,9.5
49.387091,4.095915,7.9,0.63,0.83,9.95
49.387026,4.09592,7.4,-0.69,0.88,10.69
49.387026,4.09592,7.4,0.34,0.9,9.42
49.386965,4.095928,6.81,0.46,1.3,10.52
49.386965,4.095928,6.81,0.22,1.02,8.54
49.386912,4.09593,6.48,-0.01,1.67,9.82
49.386912,4.09593,6.48,0.13,1.25,9.87
49.386857,4.095931,5.77,-0.54,0.59,9.23
49.386857,4.095931,5.77,0.43,0.78,9.31
49.386798,4.095929,4.79,0.37,0.34,9.89
49.386798,4.095929,4.79,-0.27,0.39,9.82
49.386749,4.09593,4.04,-0.19,0.72,9.59
49.386749,4.09593,4.04,-0.42,0.06,9.48
49.386709,4.095931,2.96,-0.76,0.36,10.39
49.386709,4.095931,2.96,-0.36,0.31,10.12
49.386709,4.095931,0.0,-0.34,0.56,10.15
49.386709,4.095931,0.0,-0.36,0.69,9.88
49.386709,4.095931,0.0,-0.61,2.0,9.7
49.386709,4.095931,0.0,-0.5,1.72,9.72
49.386709,4.095931,0.0,-0.47,1.72,9.62
49.386709,4.095931,0.0,-0.47,1.74,9.69
49.386709,4.095931,0.0,-0.49,1.74,9.68
49.386709,4.095931,0.0,-0.48,1.73,9.71
49.386709,4.095931,0.0,-0.48,1.73,9.69
49.386709,4.095931,0.0,-0.47,1.76,9.73
49.386709,4.095931,0.0,-0.47,1.74,9.67
49.386709,4.095931,0.0,-0.46,1.76,9.71
49.386709,4.095931,0.0,-0.49,1.69,9.68
49.386709,4.095931,0.0,-0.48,1.74,9.73
49.386709,4.095931,0.0,-0.49,1.7,9.7
49.386709,4.095931,0.0,-0.45,1.76,9.68
49.386709,4.095931,0.0,-0.47,2.2,9.56
49.386709,4.095931,0.0,-0.47,2.22,9.7
49.386709,4.095931,0.0,-0.49,1.96,9.6
49.386709,4.095931,0.0,-0.51,1.7,9.74
49.386709,4.095931,0.0,-0.53,1.67,9.71
49.386709,4.095931,0.0,-0.5,2.16,9.66
49.386709,4.095931,0.0,-0.5,2.83,9.42
49.386709,4.095931,0.0,-0.65,2.6,9.55
49.386709,4.095931,0.0,-0.46,1.84,9.69
49.386709,4.095931,0.0,-0.78,1.9,9.61
49.386709,4.095931,0.0,-0.65,1.68,9.64
49.386709,4.095931,0.0,-0.43,1.04,9.89
49.386709,4.095931,0.0,-0.88,2.6,9.47
49.38663,4.09591,0.0,-0.98,3.04,9.47
49.38663,4.09591,0.0,-1.36,2.96,9.51
49.386607,4.095915,2.98,-0.4,2.9,9.16
49.386607,4.095915,2.98,-1.43,2.74,9.35
49.386576,4.095923,4.37,-1.23,1.92,9.79
49.386576,4.095923,4.37,-0.94,2.78,10.9
49.386534,4.095946,5.61,-1.02,2.95,11.06
49.386534,4.095946,5.61,-0.96,2.95,10.88
49.386485,4.095976,6.35,-1.31,1.9,9.31
49.386485,4.095976,6.35,-0.74,2.67,9.06
49.386425,4.096015,7.54,-0.1,3.48,9.65
49.386425,4.096015,7.54,-1.58,2.81,9.4
49.386355,4.096049,8.66,-0.4,2.11,8.67
49.386355,4.096049,8.66,0.15,2.99,8.81
49.386279,4.09608,9.76,-0.37,2.36,9.75
49.386279,4.09608,9.76,-0.66,2.45,11.36
49.386193,4.096111,10.41,-0.09,2.58,9.22
49.386193,4.096111,10.41,-0.58,2.83,9.67
49.386101,4.096146,11.02,-0.09,2.13,9.42
49.386101,4.096146,11.02,0.1,2.58,8.15
49.386001,4.096187,11.73,-2.52,2.46,8.44
49.386001,4.096187,11.73,-0.92,2.2,8.55
49.385902,4.096235,12.08,-1.34,1.88,9.9
49.385902,4.096235,12.08,-0.89,2.04,9.39
49.385796,4.09631,12.44,-1.92,2.12,10.14
49.385697,4.096399,12.63,-1.85,1.17,9.59
49.385697,4.096399,12.63,-0.33,1.4,9.95
49.385603,4.096511,12.52,-0.37,1.93,11.77
49.385603,4.096511,12.52,-0.52,0.91,8.79
49.385515,4.096623,12.15,-0.19,1.47,9.34
49.385515,4.096623,12.15,-0.59,1.51,9.34
49.385435,4.09673,11.92,-0.52,1.28,10.05
49.385435,4.09673,11.92,-0.33,1.41,10.23
49.385356,4.096837,11.51,-0.56,1.02,11.15
49.385356,4.096837,11.51,-0.85,1.43,11.24
49.385281,4.09694,10.93,-1.26,1.48,9.15
49.385281,4.09694,10.93,-0.1,0.59,9.04
49.385212,4.097033,10.46,-0.2,1.77,10.91
49.385212,4.097033,10.46,-0.15,0.63,9.74
49.385149,4.09713,10.09,0.35,2.12,10.27
49.385149,4.09713,10.09,-0.33,1.98,10.22
49.385082,4.097223,9.89,-0.28,1.86,10.54
49.385082,4.097223,9.89,-0.81,2.18,10.14
49.385014,4.097323,9.93,-0.84,1.34,10.89
49.385014,4.097323,9.93,-0.08,1.0,8.56
49.384946,4.097425,10.08,-0.62,2.18,10.48
49.384946,4.097425,10.08,-0.46,1.62,9.74
49.384878,4.097521,10.15,-0.22,1.81,10.58
49.384878,4.097521,10.15,-0.68,0.82,7.3
49.38481,4.097615,10.24,-0.13,1.15,8.53
49.38481,4.097615,10.24,-1.21,1.65,8.86
49.384743,4.097704,9.71,-0.06,2.26,8.69
49.384743,4.097704,9.71,0.09,2.56,9.93
49.384676,4.097791,9.69,-0.53,1.58,8.07
49.384676,4.097791,9.69,-2.81,0.3,10.9
49.384611,4.097875,9.87,-1.45,1.94,8.13
49.384611,4.097875,9.87,-1.34,1.52,10.45
49.384543,4.097958,9.83,-0.35,1.9,8.36
49.384543,4.097958,9.83,0.26,1.79,9.62
49.384474,4.098043,9.85,-0.56,2.08,8.27
49.384474,4.098043,9.85,-0.7,2.68,11.11
49.384402,4.098129,10.02,-0.14,2.26,9.5
49.384402,4.098129,10.02,0.1,2.42,8.46
49.384328,4.098221,10.61,-0.11,1.88,9.35
49.384328,4.098221,10.61,-0.56,2.56,10.97
49.384251,4.098305,11.08,0.4,2.84,9.42
49.384251,4.098305,11.08,-0.81,2.82,10.59
49.384164,4.098385,11.64,-0.01,2.32,9.47
49.384072,4.098466,12.19,-1.21,2.44,9.43
49.384072,4.098466,12.19,-1.11,2.68,10.33
49.383974,4.098546,12.69,-0.74,2.04,10.12
49.383974,4.098546,12.69,-1.4,2.5,9.44
49.383869,4.09863,13.17,-1.03,2.63,9.32
49.383869,4.09863,13.17,0.13,2.21,9.19
49.38376,4.098714,13.62,-0.71,2.46,11.09
49.38376,4.098714,13.62,0.06,1.65,10.71
49.383644,4.098808,13.9,-0.83,1.69,9.46
49.383644,4.098808,13.9,-0.92,-0.43,8.72
49.38353,4.098898,13.89,1.0,2.56,9.66
49.38353,4.098898,13.89,-1.24,0.93,7.94
49.383418,4.098985,13.79,-0.83,0.76,9.28
49.383418,4.098985,13.79,0.15,0.66,9.04
49.383303,4.099068,13.34,-0.34,1.34,11.33
49.383303,4.099068,13.34,-1.1,0.44,10.06
49.383193,4.099151,12.71,-0.79,0.97,9.35
49.383193,4.099151,12.71,1.14,2.1,10.75
49.383094,4.099229,12.06,-0.67,2.66,10.46
49.383094,4.099229,12.06,0.65,1.78,11.5
49.383001,4.099296,11.47,0.55,2.01,11.2
49.383001,4.099296,11.47,0.21,1.62,8.2
49.382911,4.099354,11.34,-0.28,1.29,9.07
49.382911,4.099354,11.34,0.46,1.98,10.14
49.38281,4.099393,11.3,-0.07,2.29,10.11
49.38281,4.099393,11.3,-0.29,1.79,10.07
49.382711,4.099426,11.56,0.37,1.29,10.98
49.382711,4.099426,11.56,0.43,0.95,7.9
49.382616,4.099453,11.63,-0.28,0.96,8.51
49.382616,4.099453,11.63,-0.06,1.62,9.0
49.382519,4.099473,11.38,-2.39,0.74,10.3
49.382519,4.099473,11.38,-1.28,1.0,9.36
49.382414,4.09949,11.12,-2.1,0.47,9.12
49.382414,4.09949,11.12,-0.17,0.52,8.95
49.382312,4.099505,10.69,-0.31,1.19,8.84
49.382312,4.099505,10.69,-0.74,1.32,9.94
49.382214,4.099515,10.21,-0.01,2.04,13.44
49.382214,4.099515,10.21,-1.15,1.36,9.68
49.382118,4.09953,10.34,-0.67,1.79,9.43
49.382118,4.09953,10.34,-0.33,1.88,9.04
49.382018,4.099546,10.47,-1.4,1.58,8.16
49.381919,4.099562,10.69,0.57,2.15,8.95
49.381919,4.099562,10.69,-1.27,2.3,10.47
49.381818,4.099579,11.31,-0.1,2.43,8.85
49.381818,4.099579,11.31,-0.01,2.88,10.85
49.381714,4.099596,11.67,1.58,2.17,10.19
49.381714,4.099596,11.67,-0.5,2.11,11.13
49.381609,4.09959,11.79,-0.48,1.58,9.82
49.381609,4.09959,11.79,0.62,2.51,8.8
49.381499,4.099564,12.34,0.98,1.91,10.03
49.381499,4.099564,12.34,0.47,3.2,11.89
49.381389,4.099522,12.63,0.16,2.06,8.92
49.381389,4.099522,12.63,0.85,3.36,9.72
49.381278,4.099464,13.23,0.68,2.55,10.17
49.381278,4.099464,13.23,0.49,1.5,7.75
49.381166,4.099385,13.47,0.69,1.92,8.79
49.381166,4.099385,13.47,2.04,2.11,9.37
49.381058,4.099279,13.94,-0.83,2.31,8.92
49.381058,4.099279,13.94,0.9,3.17,8.89
49.380956,4.099158,14.5,-1.17,2.55,10.55
49.380956,4.099158,14.5,-0.92,1.76,9.35
49.380852,4.099032,15.07,0.35,3.03,9.86
49.380852,4.099032,15.07,-1.47,2.28,9.95
49.380745,4.098902,15.6,-0.73,3.02,11.26
49.380745,4.098902,15.6,0.45,1.55,9.8
49.380634,4.098769,16.02,-0.43,0.93,9.55
49.380634,4.098769,16.02,-1.25,1.75,9.05
49.38052,4.09863,16.68,-0.9,2.12,8.22
49.38052,4.09863,16.68,0.1,3.81,7.93
49.380404,4.098487,17.23,0.96,3.78,10.83
49.380404,4.098487,17.23,-1.11,1.78,9.37
49.38028,4.098337,17.8,-0.4,1.29,9.37
49.38028,4.098337,17.8,-0.55,3.08,9.78
49.38015,4.098181,18.53,-1.98,3.37,10.75
49.38015,4.098181,18.53,1.65,2.12,8.75
49.380022,4.098026,19.12,-0.26,2.46,9.91
49.380022,4.098026,19.12,0.81,0.91,9.29
49.379888,4.097863,19.6,-0.12,2.69,8.25
49.379888,4.097863,19.6,-0.99,2.03,7.73
49.379752,4.0977,19.96,-1.22,2.53,7.67
49.379752,4.0977,19.96,-0.65,0.89,11.46
49.379609,4.097531,20.6,-1.21,2.29,8.5
49.379463,4.097359,20.91,-0.49,0.33,10.43
49.379463,4.097359,20.91,-1.52,3.4,12.14
49.379314,4.097185,21.11,0.16,1.66,9.32
49.379314,4.097185,21.11,-0.92,2.51,10.46
49.379161,4.097008,21.38,-0.2,1.79,10.34
49.379161,4.097008,21.38,-0.42,2.7,10.78
49.379006,4.096827,21.59,1.19,3.0,8.53
49.379006,4.096827,21.59,-0.53,0.73,9.71
49.378855,4.09665,21.59,-0.54,2.28,10.27
49.378855,4.09665,21.59,0.04,2.42,11.96
49.3787,4.096468,21.52,-1.84,1.97,10.19
49.3787,4.096468,21.52,-0.35,3.89,9.97
49.378547,4.096292,21.32,-1.05,0.74,10.27
49.378547,4.096292,21.32,0.68,2.38,10.81
49.378397,4.09612,21.26,1.32,1.92,9.26
49.378397,4.09612,21.26,-0.23,2.38,9.09
49.378243,4.095942,21.25,-0.13,2.77,12.45
49.378243,4.095942,21.25,-0.67,1.76,11.17
49.378092,4.095769,20.91,-0.83,2.48,8.47
49.378092,4.095769,20.91,-0.28,0.19,7.6
49.377943,4.0956,20.66,-0.54,2.45,10.25
49.377943,4.0956,20.66,-1.16,3.16,9.08
49.377796,4.095436,20.2,-0.31,-0.22,9.12
49.377796,4.095436,20.2,-0.23,1.63,12.47
49.377654,4.095271,19.88,-0.62,1.71,9.29
49.377654,4.095271,19.88,-1.07,3.13,9.73
49.377512,4.095111,19.55,-0.96,2.19,9.3
49.377512,4.095111,19.55,-1.33,2.9,10.9
49.37737,4.094957,19.3,-0.29,2.38,12.66
49.37737,4.094957,19.3,-0.87,0.8,9.39
49.377228,4.0948,19.1,-0.89,3.3,8.02
49.377228,4.0948,19.1,-2.09,1.76,10.2
49.377089,4.094644,18.99,0.41,2.8,9.79
49.377089,4.094644,18.99,-0.26,2.01,8.76
49.37695,4.094488,18.76,-0.34,1.02,10.45
49.37695,4.094488,18.76,0.06,1.76,10.47
49.37681,4.094331,18.76,0.45,2.56,10.64
49.37681,4.094331,18.76,-1.59,1.92,9.77
49.376674,4.094174,18.83,-1.7,3.51,10.25
49.376538,4.09402,19.0,-0.24,1.46,6.98
49.376538,4.09402,19.0,-1.75,2.27,10.22
49.376404,4.093864,19.35,-1.14,1.06,9.54
49.376404,4.093864,19.35,-0.65,2.36,9.4
49.37627,4.0937,19.52,-0.91,3.03,9.53
49.37627,4.0937,19.52,-0.71,4.22,11.07
49.376133,4.09354,19.76,-0.89,2.33,10.81
49.376133,4.09354,19.76,-0.34,2.25,10.16
49.375994,4.093375,20.15,-0.55,2.54,12.24
49.375994,4.093375,20.15,-1.39,1.81,7.61
49.375849,4.093202,20.4,-1.0,1.49,8.52
49.375849,4.093202,20.4,-1.32,1.8,10.86
49.375702,4.093032,20.67,-2.72,2.88,8.36
49.375702,4.093032,20.67,-2.17,0.04,7.92
49.375553,4.092859,20.84,-1.44,1.22,10.52
49.375553,4.092859,20.84,-0.2,2.89,9.52
49.375401,4.092682,20.96,-0.16,2.22,9.33
49.375401,4.092682,20.96,-1.52,2.36,9.23
49.375253,4.092509,21.05,-1.11,3.15,9.99
49.375253,4.092509,21.05,-1.53,2.93,10.41
49.375099,4.092336,20.97,0.19,3.26,9.32
49.375099,4.092336,20.97,-1.7,2.18,8.7
49.374947,4.092163,20.98,0.38,2.4,9.59
49.374947,4.092163,20.98,-0.7,2.49,9.84
49.374795,4.091987,21.04,-1.02,1.7,8.1
49.374795,4.091987,21.04,-1.44,1.48,11.5
49.374643,4.091808,21.12,-1.26,1.39,10.18
49.374643,4.091808,21.12,-1.59,2.48,9.02
49.374494,4.091633,21.18,-2.79,3.57,10.95
49.374494,4.091633,21.18,0.34,2.52,8.73
49.374344,4.091461,21.21,-2.12,2.44,11.66
49.374344,4.091461,21.21,-0.16,1.94,11.15
49.374192,4.091285,21.31,-1.45,1.81,8.58
49.374192,4.091285,21.31,0.64,1.02,8.75
49.374038,4.091107,21.47,-0.42,2.58,11.32
49.374038,4.091107,21.47,0.3,1.39,9.94
49.373882,4.090931,21.51,-1.24,1.58,10.48
49.373882,4.090931,21.51,-0.12,2.55,10.12
49.373723,4.09075,21.55,-2.1,1.92,10.53
49.373723,4.09075,21.55,-0.25,1.87,9.22
49.373566,4.09057,21.6,0.64,2.62,8.49
49.373418,4.090396,21.6,-0.32,1.82,10.72
49.373418,4.090396,21.6,0.52,2.46,11.5
49.373266,4.090212,21.57,-0.96,2.23,11.26
49.373266,4.090212,21.57,1.04,1.82,10.81
49.373113,4.090029,21.39,-0.35,2.34,9.15
49.373113,4.090029,21.39,0.34,2.33,10.87
49.372961,4.089855,21.09,0.18,2.65,11.09
49.372961,4.089855,21.09,-0.03,1.8,7.74
49.37281,4.089678,20.96,0.35,2.05,8.82
49.37281,4.089678,20.96,-1.28,2.94,10.71
49.372663,4.089506,20.88,0.45,2.31,10.35
49.372663,4.089506,20.88,0.08,1.97,9.99
49.372515,4.08933,20.91,0.39,0.93,8.1
49.372515,4.08933,20.91,0.44,2.57,9.26
49.372367,4.089158,20.85,0.41,2.71,10.0
49.372367,4.089158,20.85,0.62,1.09,10.87
49.372216,4.088987,20.86,-1.13,1.25,8.94
49.372216,4.088987,20.86,0.12,2.89,10.32
49.372066,4.088815,20.87,-0.89,2.18,9.59
49.372066,4.088815,20.87,0.84,3.01,10.55
49.371916,4.088643,20.84,-1.56,3.06,9.22
49.371916,4.088643,20.84,-2.2,2.9,10.58
49.371765,4.088469,20.83,-1.19,1.37,8.73
49.371765,4.088469,20.83,-0.63,2.42,9.09
49.371618,4.088298,20.83,-0.99,1.81,10.16
49.371618,4.088298,20.83,-1.15,1.93,11.67
49.371471,4.088126,20.74,-1.26,1.6,8.67
49.371471,4.088126,20.74,0.24,3.07,10.54
49.371323,4.087958,20.79,0.16,2.52,10.44
49.371323,4.087958,20.79,-0.04,1.05,10.15
49.371172,4.087786,20.72,-0.56,0.76,7.56
49.371172,4.087786,20.72,0.67,2.28,8.26
49.371019,4.087613,20.73,-1.31,0.09,8.95
49.371019,4.087613,20.73,-0.25,0.9,6.73
49.370871,4.087446,20.44,0.57,0.07,8.04
49.370871,4.087446,20.44,-0.38,2.21,9.44
49.37072,4.087277,20.28,-0.41,2.7,9.47
49.37072,4.087277,20.28,-0.01,2.52,10.44
49.37058,4.087111,20.13,1.82,2.68,10.47
49.37058,4.087111,20.13,0.06,1.59,9.99
49.370426,4.086956,20.17,-1.22,1.25,8.97
49.370267,4.086811,20.1,-3.16,0.69,9.5
49.370267,4.086811,20.1,-0.56,2.18,9.65
49.370104,4.086682,20.0,-0.93,0.72,10.05
49.370104,4.086682,20.0,-2.5,1.04,11.47
49.369938,4.086563,20.01,0.3,1.19,9.24
49.369938,4.086563,20.01,-0.79,2.13,12.24
49.369772,4.086453,20.14,-1.32,1.28,7.04
49.369772,4.086453,20.14,-0.21,2.81,14.16
49.369607,4.08634,20.14,-1.34,1.19,12.82
49.369607,4.08634,20.14,-0.32,1.58,8.22
49.369438,4.086231,20.18,-0.95,2.98,12.71
49.369438,4.086231,20.18,-0.12,2.65,8.34
49.369268,4.08612,20.19,-1.22,2.0,7.83
49.369268,4.08612,20.19,-2.14,0.83,10.15
49.369099,4.086009,20.34,-1.38,1.29,11.04
49.369099,4.086009,20.34,-1.9,0.85,8.13
49.36893,4.085896,20.51,-0.71,3.45,11.33
49.36893,4.085896,20.51,-2.29,0.88,10.37
49.36876,4.085783,20.52,-0.87,0.52,8.95
49.36876,4.085783,20.52,-0.03,1.64,7.18
49.368589,4.085674,20.71,-1.18,1.64,11.13
49.368589,4.085674,20.71,0.01,3.13,10.49
49.368417,4.085555,20.77,-0.77,2.17,9.1
49.368417,4.085555,20.77,0.37,1.75,8.18
49.368245,4.085437,20.68,0.33,0.5,9.62
49.368245,4.085437,20.68,-0.55,0.78,8.42
49.368073,4.08532,20.65,-1.49,0.71,7.92
49.368073,4.08532,20.65,0.44,1.3,10.72
49.367903,4.085206,20.55,-0.89,2.49,11.12
49.367903,4.085206,20.55,-0.62,1.24,9.84
49.367731,4.085096,20.67,0.3,3.28,10.52
49.367731,4.085096,20.67,-2.04,0.95,9.08
49.367557,4.084971,20.5,-1.04,1.76,8.69
49.367557,4.084971,20.5,-1.19,1.56,10.86
49.367388,4.084849,20.61,-2.7,2.76,13.78
49.367388,4.084849,20.61,-0.64,2.42,10.27
49.367218,4.084732,20.58,-1.44,1.21,10.73
49.367218,4.084732,20.58,0.94,2.63,8.86
49.367047,4.084611,20.56,0.4,1.84,9.01
49.367047,4.084611,20.56,1.84,1.3,7.81
49.366881,4.084497,20.42,-0.82,0.4,7.75
49.366715,4.084385,20.32,-0.23,-0.99,8.91
49.366715,4.084385,20.32,-1.36,1.69,10.07
49.366549,4.084269,20.2,-1.32,2.56,10.86
49.366549,4.084269,20.2,-0.7,1.11,10.13
49.366382,4.084152,20.12,-1.66,0.87,9.17
49.366382,4.084152,20.12,0.51,2.52,9.07
49.36622,4.084042,20.03,-0.59,0.68,10.54
49.36622,4.084042,20.03,-0.99,2.01,13.56
49.366058,4.083924,19.87,-1.25,0.7,9.42
49.366058,4.083924,19.87,-1.66,0.87,10.39
49.365896,4.083812,19.57,-2.03,1.7,11.18
49.365896,4.083812,19.57,1.27,1.55,8.76
49.365734,4.083703,19.76,-0.44,2.88,8.39
49.365734,4.083703,19.76,0.31,1.86,9.76
49.365569,4.08359,20.41,-1.83,-0.62,9.73
49.365569,4.08359,20.41,-0.47,2.6,8.29
49.365395,4.083472,20.65,-1.42,1.66,10.86
49.365395,4.083472,20.65,0.02,1.71,9.05
49.365221,4.083354,20.95,-0.45,2.68,10.66
49.365221,4.083354,20.95,-0.82,0.89,11.88
49.365043,4.083229,21.2,-0.13,2.1,10.14
49.365043,4.083229,21.2,-0.17,2.34,11.02
49.364866,4.083111,21.2,0.18,1.19,8.77
49.364866,4.083111,21.2,-1.88,1.72,10.14
49.364697,4.082988,21.47,-0.5,1.78,8.43
49.364697,4.082988,21.47,-0.65,1.49,9.96
49.364529,4.082868,21.63,0.81,2.44,9.52
49.364529,4.082868,21.63,-0.67,1.98,7.42
49.364354,4.082748,21.85,-0.06,1.48,9.34
49.364354,4.082748,21.85,-1.11,2.29,12.01
49.364174,4.08263,21.9,-1.57,1.12,8.66
49.364174,4.08263,21.9,-1.45,1.28,10.11
49.363992,4.082509,22.07,-1.64,1.11,11.45
49.363992,4.082509,22.07,-0.61,0.77,7.73
49.363805,4.082382,21.86,-0.54,2.22,6.24
49.363805,4.082382,21.86,-0.45,2.14,8.14
49.363619,4.082254,21.59,-0.72,2.39,8.95
49.363619,4.082254,21.59,0.66,3.51,10.98
49.363439,4.082134,21.62,-2.26,2.87,11.66
49.363439,4.082134,21.62,-1.23,1.6,8.19
49.363264,4.082007,21.74,-0.19,0.61,8.94
49.363088,4.081883,21.55,0.01,0.97,11.85
49.363088,4.081883,21.55,1.01,0.33,9.65
49.362914,4.081756,21.69,-1.11,2.33,9.68
49.362914,4.081756,21.69,-1.69,2.2,11.61
49.362741,4.081637,21.58,-1.12,1.85,7.37
49.362741,4.081637,21.58,-1.3,1.12,9.15
49.36257,4.081516,21.4,-1.48,1.66,11.17
49.36257,4.081516,21.4,0.6,2.35,6.9
49.362401,4.081399,21.37,-0.43,1.23,8.76
49.362401,4.081399,21.37,-0.05,2.38,10.94
49.362234,4.081281,21.35,-0.92,2.58,8.39
49.362234,4.081281,21.35,-1.45,0.95,8.4
49.362064,4.081162,21.33,-2.63,2.52,12.67
49.362064,4.081162,21.33,0.02,0.35,10.11
49.361896,4.081039,21.36,-1.01,1.34,8.55
49.361896,4.081039,21.36,0.39,3.28,8.77
49.361722,4.08092,21.0,-0.3,1.15,10.05
49.361722,4.08092,21.0,-2.12,2.94,8.69
49.361551,4.080805,21.03,-0.78,1.15,6.7
49.361551,4.080805,21.03,-0.59,2.44,10.16
49.361378,4.080687,20.93,0.45,3.1,7.98
49.361378,4.080687,20.93,-0.05,-0.12,7.9
49.361205,4.080567,20.77,0.09,2.17,10.84
49.361205,4.080567,20.77,0.67,1.64,7.92
49.361034,4.080456,20.86,-2.28,2.45,13.45
49.361034,4.080456,20.86,-0.93,1.39,11.73
49.360864,4.080341,20.6,0.32,2.45,10.34
49.360864,4.080341,20.6,-0.03,1.52,7.66
49.360697,4.080231,20.66,1.31,1.76,8.87
49.360697,4.080231,20.66,-1.76,4.21,12.11
49.360531,4.08011,20.71,0.1,1.2,9.75
49.360531,4.08011,20.71,-0.2,1.6,9.09
49.360365,4.079995,20.67,-1.51,1.92,9.71
49.360365,4.079995,20.67,-0.99,2.11,11.45
49.360193,4.079876,20.89,-0.75,1.24,9.39
49.360193,4.079876,20.89,-1.05,0.66,7.17
49.360016,4.079764,21.04,0.24,2.47,8.32
49.360016,4.079764,21.04,-0.44,1.46,11.94
49.359845,4.079642,20.98,-1.22,1.77,10.95
49.359845,4.079642,20.98,-1.64,1.35,7.64
49.359672,4.07952,21.11,-1.38,1.04,11.58
49.359499,4.079403,21.05,-1.43,2.03,8.94
49.359499,4.079403,21.05,-0.16,2.74,7.05
49.359323,4.079285,21.04,-0.22,1.7,13.91
49.359323,4.079285,21.04,-1.01,0.8,8.65
49.359146,4.079161,20.88,-1.3,2.53,8.96
49.359146,4.079161,20.88,-1.51,1.47,8.68
49.358972,4.079048,20.81,-3.23,0.73,11.02
49.358972,4.079048,20.81,-0.43,1.2,7.9
49.358807,4.07893,20.63,0.61,0.57,9.51
49.358807,4.07893,20.63,-1.77,0.4,10.55
49.358639,4.078817,20.31,0.13,2.05,7.05
49.358639,4.078817,20.31,1.86,1.26,10.64
49.358464,4.078704,20.21,0.46,1.66,6.3
49.358464,4.078704,20.21,-3.65,2.76,12.98
49.358298,4.078596,20.28,1.54,0.59,8.82
49.358298,4.078596,20.28,-1.59,1.16,7.04
49.358136,4.078479,20.18,-0.5,2.83,8.49
49.358136,4.078479,20.18,0.35,2.2,8.29
49.357969,4.078369,19.98,-1.59,1.73,7.0
49.357969,4.078369,19.98,0.1,2.33,7.14
49.357805,4.078262,19.91,-1.43,2.99,9.03
49.357805,4.078262,19.91,-0.83,2.4,10.38
49.357645,4.078149,19.8,0.18,3.65,9.46
49.357645,4.078149,19.8,-0.31,2.14,11.64
49.357484,4.078035,19.74,-0.81,2.88,9.47
49.357484,4.078035,19.74,0.25,1.82,8.69
49.357319,4.07793,19.67,0.02,2.15,6.92
49.357319,4.07793,19.67,-2.0,1.86,8.68
49.357153,4.077823,19.42,-0.4,2.25,10.33
49.357153,4.077823,19.42,-1.13,1.52,8.57
49.35699,4.077711,19.38,-1.0,0.81,11.39
49.35699,4.077711,19.38,-2.19,2.37,9.19
49.356832,4.077603,19.3,-3.27,3.06,11.49
49.356832,4.077603,19.3,-0.42,0.74,12.17
49.356678,4.077498,18.91,0.92,1.81,10.83
49.356678,4.077498,18.91,0.5,2.91,7.54
49.356535,4.077393,19.06,-1.23,1.13,9.83
49.356535,4.077393,19.06,-1.04,2.59,9.15
49.356387,4.077283,19.29,0.88,2.03,8.69
49.356387,4.077283,19.29,0.5,1.93,8.0
49.356232,4.077164,19.46,-1.32,1.64,13.28
49.356232,4.077164,19.46,-0.53,0.58,7.97
49.356081,4.077049,19.55,-1.31,1.24,8.61
49.355928,4.076934,19.54,-0.07,0.57,11.54
49.355928,4.076934,19.54,-0.2,2.56,9.83
49.355768,4.076822,19.45,-2.15,0.41,10.51
49.355768,4.076822,19.45,0.15,2.02,9.1
49.355609,4.076721,18.86,-0.69,2.0,9.04
49.355609,4.076721,18.86,-1.08,1.12,10.46
49.355454,4.076618,18.71,0.63,1.34,8.16
49.355454,4.076618,18.71,0.53,2.89,10.8
49.355302,4.076513,18.39,0.01,0.69,11.0
49.355302,4.076513,18.39,-0.22,0.64,10.24
49.355153,4.076411,17.5,0.08,0.33,9.88
49.355153,4.076411,17.5,-2.28,1.3,12.26
49.355023,4.07631,16.56,-0.48,0.88,9.98
49.355023,4.07631,16.56,-1.86,0.23,10.55
49.354895,4.076216,15.81,-0.45,1.13,9.13
49.354895,4.076216,15.81,-1.14,0.01,11.02
49.354771,4.076129,14.51,-1.19,-0.18,11.01
49.354771,4.076129,14.51,-0.99,-0.09,11.66
49.354658,4.076052,13.53,-0.9,0.78,8.41
49.354658,4.076052,13.53,-1.0,2.3,11.26
49.354545,4.075981,12.77,-0.85,1.6,11.68
49.354545,4.075981,12.77,-0.27,0.88,10.49
49.35444,4.075908,12.63,-0.79,0.59,9.83
49.35444,4.075908,12.63,0.24,0.9,10.06
49.354333,4.075842,12.41,-1.62,1.26,9.61
49.354333,4.075842,12.41,0.45,1.91,9.37
49.354228,4.075776,12.0,-0.45,2.94,9.76
49.354228,4.075776,12.0,-1.21,0.64,10.94
49.354126,4.075709,11.66,-1.92,1.14,9.73
49.354126,4.075709,11.66,-2.04,0.77,9.58
49.354034,4.075657,11.35,0.65,1.52,7.88
49.354034,4.075657,11.35,0.39,2.04,9.32
49.353945,4.075584,11.28,-1.16,2.63,10.37
49.353945,4.075584,11.28,-1.71,2.7,10.52
49.353851,4.075516,11.09,0.37,1.29,9.59
49.353851,4.075516,11.09,-0.11,1.65,12.19
49.353761,4.075457,10.63,1.12,-0.27,7.58
49.353761,4.075457,10.63,0.68,1.37,11.12
49.353674,4.075399,10.4,1.08,1.83,11.03
49.353674,4.075399,10.4,-1.05,1.37,11.09
49.353604,4.075328,10.11,0.35,-0.67,11.1
49.353604,4.075328,10.11,-0.96,1.33,9.19
49.353542,4.075243,9.83,-0.73,1.42,10.24
49.35348,4.075158,9.79,0.09,1.72,10.38
49.35348,4.075158,9.79,0.07,1.22,10.07
49.353411,4.075068,9.68,-0.23,2.66,10.12
49.353411,4.075068,9.68,-0.59,1.59,10.43
49.353346,4.07497,9.81,-2.09,3.44,9.86
49.353346,4.07497,9.81,-1.45,1.3,10.03
49.35328,4.074871,10.03,-2.35,1.6,8.6
49.35328,4.074871,10.03,-0.99,2.68,9.08
49.353207,4.074781,10.29,-0.51,1.94,9.87
49.353207,4.074781,10.29,-0.29,2.1,10.07
49.35313,4.074702,10.55,0.84,1.5,9.88
49.35313,4.074702,10.55,1.29,2.9,11.16
49.35305,4.074614,10.78,0.6,1.95,11.5
49.35305,4.074614,10.78,0.72,2.55,9.41
49.352979,4.074522,11.03,1.24,1.43,8.08
49.352979,4.074522,11.03,-0.15,3.35,10.65
49.352899,4.074423,11.05,0.38,3.71,10.55
49.352899,4.074423,11.05,1.42,2.41,9.61
49.352811,4.074329,11.02,0.08,1.3,9.1
49.352811,4.074329,11.02,0.02,2.07,9.1
49.352727,4.074233,11.09,-0.23,2.09,8.97
49.352727,4.074233,11.09,-0.32,2.35,11.19
49.352651,4.074144,11.06,-1.89,1.13,9.13
49.352651,4.074144,11.06,-0.77,0.56,9.44
49.352578,4.07404,11.28,-0.69,1.91,9.53
49.352578,4.07404,11.28,-1.57,1.87,9.09
49.352503,4.073938,11.36,-0.66,2.81,9.67
49.352503,4.073938,11.36,-0.76,3.4,11.31
49.352428,4.073835,11.61,-1.98,1.13,8.55
49.352428,4.073835,11.61,0.41,0.0,12.34
49.352341,4.073732,11.58,-0.03,2.15,11.37
49.352341,4.073732,11.58,-0.41,-0.15,11.14
49.352258,4.07363,11.14,0.85,1.11,10.53
49.352258,4.07363,11.14,0.62,-0.06,10.12
49.352185,4.073536,10.17,0.14,-0.62,8.63
49.352185,4.073536,10.17,-0.13,1.33,10.19
49.352118,4.073452,9.01,-0.01,0.48,9.73
49.352118,4.073452,9.01,-0.78,-0.57,9.65
49.352059,4.073385,7.29,-0.6,-0.58,10.59
49.352059,4.073385,7.29,0.57,0.08,9.3
49.352015,4.073336,4.83,0.46,0.19,9.11
49.352015,4.073336,4.83,0.09,0.36,10.34
49.351987,4.073303,3.41,-0.5,1.0,9.1
49.351987,4.073303,0.0,-0.33,1.47,10.18
49.351987,4.073303,0.0,-0.4,1.93,10.02
49.351987,4.073303,0.0,-1.0,2.67,9.26
49.351987,4.073303,0.0,-1.13,3.05,9.17
49.351944,4.073255,2.8,-1.0,2.94,10.05
49.351944,4.073255,2.8,-0.54,2.66,9.13
49.351917,4.073232,4.01,0.15,2.9,9.35
49.351917,4.073232,4.01,-0.05,2.91,8.03
49.35188,4.073198,4.97,0.58,3.05,9.14
49.35188,4.073198,4.97,1.58,2.32,10.3
49.351837,4.073157,6.46,0.71,2.3,8.98
49.351837,4.073157,6.46,0.08,2.85,8.83
49.351782,4.073095,7.69,-1.03,2.27,10.71
49.351782,4.073095,7.69,-1.03,4.27,11.25
49.351729,4.073016,8.48,-0.89,2.2,8.95
49.351729,4.073016,8.48,0.39,1.24,11.03
49.351681,4.072935,9.39,-0.68,2.85,10.37
49.351681,4.072935,9.39,-0.52,1.18,10.1
49.351617,4.072847,9.84,0.07,1.7,8.47
49.351617,4.072847,9.84,-1.45,1.52,9.26
49.351553,4.072758,9.73,-0.45,0.36,9.87
49.351553,4.072758,9.73,-0.76,0.39,11.1
49.35148,4.072665,9.1,-0.34,0.48,9.39
49.35148,4.072665,9.1,0.45,0.71,10.07
49.351418,4.072584,8.29,-0.32,0.67,9.9
49.351418,4.072584,8.29,-0.17,0.67,10.2
49.351362,4.072511,7.56,-0.36,0.74,9.55
49.351362,4.072511,7.56,-0.66,0.49,9.14
49.351318,4.072454,6.7,-0.26,1.18,10.07
49.351318,4.072454,6.7,-0.48,1.22,9.81
49.351276,4.072408,6.07,-0.61,1.4,9.74
49.351276,4.072408,6.07,-1.56,0.72,9.6
49.351238,4.072363,6.04,-1.04,0.56,10.26
49.351238,4.072363,6.04,-1.07,-0.07,8.5
49.351197,4.07233,5.34,-2.75,0.46,10.5
49.351197,4.07233,5.34,-1.92,1.19,9.95
49.351146,4.072316,4.84,-2.08,0.89,10.55
49.351146,4.072316,4.84,-1.08,0.78,10.12
49.351108,4.072324,4.24,-1.09,1.19,9.89
49.351108,4.072324,4.24,-0.58,0.58,9.23
49.351076,4.072354,3.39,0.92,1.41,9.83
49.35105,4.072388,2.74,0.9,1.41,9.73
49.35105,4.072388,2.74,0.36,1.32,9.27
49.351023,4.072405,2.73,-0.34,1.28,8.42
49.351023,4.072405,2.73,-0.62,1.26,9.31
49.350996,4.072413,2.67,-0.47,0.99,9.76
49.350996,4.072413,2.67,0.08,1.24,9.19
49.350996,4.072413,0.0,-0.16,1.0,9.6
49.350996,4.072413,0.0,-0.22,1.1,9.78
49.350996,4.072413,0.0,0.27,1.13,9.59
49.350996,4.072413,0.0,-0.04,0.82,9.69
49.350996,4.072413,0.0,-0.26,0.82,9.6
49.350996,4.072413,0.0,-0.23,1.51,9.64
49.350921,4.072412,0.0,-0.21,1.29,9.52
49.350921,4.072412,0.0,-0.16,1.2,9.76
49.350921,4.072412,0.0,-0.23,1.69,9.6
49.350921,4.072412,0.0,-0.23,2.31,9.7
49.350921,4.072412,0.0,-0.45,2.92,9.47
49.350921,4.072412,0.0,-0.6,2.74,9.35
49.350921,4.072412,0.0,-0.33,2.77,9.42
49.350921,4.072412,0.0,-0.61,2.67,9.58
49.350921,4.072412,0.0,-0.67,2.63,8.93
49.350921,4.072412,0.0,-0.39,2.49,9.42
49.350872,4.07244,3.17,-0.58,2.35,8.78
49.350872,4.07244,3.17,-0.84,2.21,10.55
49.350841,4.072468,3.32,-0.65,1.76,10.31
49.350841,4.072468,3.32,-0.42,2.22,9.74
49.3508,4.0725,3.87,-0.04,2.53,9.97
49.3508,4.0725,3.87,0.01,2.19,9.35
49.350756,4.072533,4.83,0.27,2.16,9.77
49.350756,4.072533,4.83,0.54,2.44,8.69
49.350709,4.07256,5.8,-0.32,1.98,10.1
49.350709,4.07256,5.8,0.27,2.1,9.85
49.350657,4.072581,6.43,0.36,2.51,8.47
49.350657,4.072581,6.43,-0.31,1.14,10.03
49.350592,4.072602,6.63,-1.29,1.86,9.42
49.350592,4.072602,6.63,-0.5,1.48,12.0
49.350527,4.072626,7.07,1.54,1.74,10.27
49.350527,4.072626,7.07,-1.7,1.3,9.1
49.350462,4.072659,7.61,-2.27,1.13,8.75
49.350462,4.072659,7.61,-0.72,0.67,9.62
49.350393,4.072689,7.88,-1.2,1.39,9.16
49.350328,4.072715,7.29,-2.83,0.82,10.03
49.350328,4.072715,7.29,-2.08,0.57,8.99
49.350264,4.072742,7.07,-0.69,1.45,10.93
49.350264,4.072742,7.07,-0.54,0.57,9.15
49.350192,4.072767,6.9,-1.78,1.58,11.37
49.350192,4.072767,6.9,-1.43,1.54,10.49
49.35012,4.072799,7.16,-1.42,2.2,7.2
49.35012,4.072799,7.16,-0.31,1.25,9.03
49.350049,4.072831,8.26,0.37,2.03,9.43
49.350049,4.072831,8.26,-1.2,0.99,10.65
49.349992,4.072857,8.29,-0.13,1.57,10.66
49.349992,4.072857,8.29,0.61,1.5,7.85
49.349917,4.072887,8.35,0.11,1.07,8.93
49.349917,4.072887,8.35,0.15,1.08,7.39
49.34985,4.072908,7.71,-0.92,1.36,10.35
49.34985,4.072908,7.71,-0.2,1.13,8.91
49.349786,4.072925,7.43,-0.23,1.55,8.93
49.349786,4.072925,7.43,-0.91,0.67,9.73
49.349717,4.072954,7.24,-2.1,0.79,11.5
49.349717,4.072954,7.24,-0.81,0.93,10.23
49.349655,4.072967,7.17,0.5,1.54,7.8
49.349655,4.072967,7.17,-0.39,0.18,10.08
49.349592,4.072996,6.62,0.54,0.07,9.09
49.349592,4.072996,6.62,0.01,1.3,10.02
49.349531,4.073015,6.46,-1.31,0.91,10.07
49.349531,4.073015,6.46,0.2,0.9,8.55
49.349476,4.073025,5.7,-0.2,1.24,8.73
49.349476,4.073025,5.7,-0.35,1.08,8.82
49.349426,4.073037,5.36,-0.06,1.03,9.58
49.349426,4.073037,5.36,0.12,1.58,9.1
49.349377,4.073044,5.1,0.07,1.15,9.73
49.349377,4.073044,5.1,-0.5,1.22,9.7
49.349327,4.07305,4.8,-0.4,1.29,9.44
49.349327,4.07305,4.8,-0.4,0.94,10.19
49.349282,4.073057,4.29,-0.5,1.59,9.13
49.349282,4.073057,4.29,-0.15,0.67,8.48
49.349245,4.073066,3.93,-0.41,0.36,10.2
49.349245,4.073066,3.93,-0.52,-0.34,10.57
49.349221,4.073076,2.75,-0.26,-0.51,10.25
49.349221,4.073076,2.75,-0.15,0.2,10.01
49.349221,4.073076,0.0,-0.23,1.9,9.82
49.349221,4.073076,0.0,-0.81,3.64,9.31
49.349221,4.073076,0.0,-1.24,3.62,9.08
49.349185,4.073086,2.6,-1.25,3.97,8.96
49.349185,4.073086,2.6,-2.67,3.18,9.61
49.349159,4.073121,4.49,-3.37,2.3,9.01
49.349159,4.073121,4.49,-3.56,2.72,9.35
49.34914,4.073177,5.77,-2.17,2.37,9.56
49.34914,4.073177,5.77,-3.01,3.2,9.83
49.349126,4.07327,7.04,-1.63,3.06,9.53
49.349126,4.07327,7.04,-1.26,1.89,9.72
49.349133,4.073371,7.82,-0.33,2.66,11.77
49.349133,4.073371,7.82,-0.24,2.11,11.13
49.349149,4.073481,8.57,0.19,2.67,8.54
49.349149,4.073481,8.57,0.07,1.96,9.56
49.349154,4.073599,9.24,0.54,2.49,9.97
49.349154,4.073599,9.24,0.52,1.28,10.56
49.349158,4.073732,9.5,-1.06,-0.62,8.07
49.349158,4.073732,9.5,-0.44,1.28,9.82
49.349162,4.073876,9.59,0.53,1.97,9.8
49.349162,4.073876,9.59,-0.61,1.95,9.97
49.349162,4.074014,9.71,-0.32,0.92,9.16
49.349162,4.074014,9.71,-0.62,0.71,8.57
49.349164,4.074148,9.1,-0.93,0.72,8.7
49.349164,4.074148,9.1,-0.08,0.06,12.31
49.349164,4.074266,8.22,-1.08,0.76,9.89
49.349164,4.074266,8.22,0.02,-0.31,9.73
49.349164,4.074367,7.41,-0.28,0.23,8.93
49.349164,4.074367,7.41,-0.25,-0.14,9.75
49.349166,4.074454,5.94,-1.06,0.11,11.2
49.349166,4.074454,5.94,-0.22,0.77,10.48
49.349169,4.07452,4.48,-0.86,1.21,9.28
49.349169,4.07452,4.48,-0.01,0.85,10.28
49.349171,4.074576,3.98,0.3,1.84,10.71
49.349171,4.074576,3.98,-0.86,1.84,9.37
49.349176,4.074627,3.7,-1.3,2.72,8.99
49.349176,4.074627,3.7,-1.37,2.9,7.84
49.349177,4.074683,4.43,-1.1,2.67,9.67
49.349177,4.074683,4.43,-1.84,2.69,8.8
49.34918,4.074747,5.34,-0.63,2.85,9.92
49.34918,4.074747,5.34,-2.04,2.43,10.72
49.349184,4.074831,6.69,0.34,3.05,8.25
49.349184,4.074831,6.69,-1.69,3.03,10.13
49.349188,4.074932,7.62,-0.03,3.09,9.28
49.34919,4.075047,8.68,0.27,1.21,7.3
49.34919,4.075047,8.68,-0.18,2.43,10.35
49.349192,4.075179,9.7,-0.01,1.7,10.49
49.349192,4.075179,9.7,0.02,3.07,8.69
49.349192,4.075323,10.76,-0.9,1.92,9.16
49.349192,4.075323,10.76,0.28,1.79,10.55
49.349193,4.07548,11.33,-1.02,2.21,9.66
49.349193,4.07548,11.33,-0.12,1.03,9.2
49.349196,4.07564,11.6,0.91,2.04,7.9
49.349196,4.07564,11.6,1.56,1.05,8.13
49.349199,4.075802,11.81,-0.73,1.1,9.04
49.349199,4.075802,11.81,-0.12,2.2,8.78
49.349198,4.075965,11.91,-0.28,1.35,10.79
49.349198,4.075965,11.91,-0.7,1.48,11.18
49.349204,4.07613,11.77,-0.93,1.86,12.38
49.349204,4.07613,11.77,0.0,2.31,9.34
49.349208,4.076291,11.8,0.29,2.65,10.4
49.349208,4.076291,11.8,-0.78,2.09,9.4
49.34921,4.076453,11.92,0.41,1.98,9.56
49.34921,4.076453,11.92,0.23,2.16,10.91
49.349212,4.076614,12.05,0.23,1.86,8.99
49.349212,4.076614,12.05,0.04,1.4,8.86
49.349212,4.07678,12.13,-1.18,1.36,9.22
49.349212,4.07678,12.13,0.72,2.19,8.76
49.34921,4.07695,12.44,0.37,2.31,9.51
49.34921,4.07695,12.44,-0.15,2.23,11.49
49.349203,4.077126,12.63,0.65,1.26,7.03
49.349203,4.077126,12.63,0.11,3.46,9.81
49.349194,4.0773,12.69,1.81,2.38,9.35
49.349194,4.0773,12.69,-0.58,1.83,8.87
49.34918,4.077475,12.53,0.72,2.88,9.88
49.34918,4.077475,12.53,0.1,2.57,10.3
49.349143,4.077648,13.12,-0.12,1.7,11.71
49.349143,4.077648,13.12,0.62,1.52,5.09
49.349081,4.07782,14.06,-0.13,2.94,8.21
49.349081,4.07782,14.06,1.03,3.0,9.91
49.349005,4.077987,14.66,-0.6,2.69,11.46
49.349005,4.077987,14.66,-1.02,2.18,10.75
49.34892,4.078148,15.36,-0.37,2.04,8.32
49.34892,4.078148,15.36,-0.39,1.96,10.2
49.348828,4.078307,15.91,-0.9,1.43,8.48
49.348828,4.078307,15.91,-1.59,2.39,8.36
49.348732,4.078471,16.68,1.48,2.24,9.41
49.348628,4.078644,17.31,0.4,3.63,9.03
49.348628,4.078644,17.31,-2.72,1.78,14.02
49.348522,4.078823,18.06,-0.74,2.12,8.36
49.348522,4.078823,18.06,-2.4,2.98,9.29
49.348413,4.07901,18.76,-0.69,3.28,13.42
49.348413,4.07901,18.76,0.22,2.87,10.96
49.348301,4.079203,19.39,0.88,2.98,11.12
49.348301,4.079203,19.39,-1.08,1.59,7.75
49.348185,4.079402,20.07,-0.05,2.68,11.38
49.348185,4.079402,20.07,-1.89,-0.39,10.34
49.348066,4.079609,20.54,0.24,2.57,12.42
49.348066,4.079609,20.54,0.13,0.9,8.56
49.347943,4.079826,20.95,-0.24,2.03,8.56
49.347943,4.079826,20.95,-3.56,1.05,12.87
49.347818,4.080043,21.15,-2.23,-0.11,11.24
49.347818,4.080043,21.15,-0.57,2.08,11.12
49.347694,4.080259,21.39,-1.39,2.65,9.66
49.347694,4.080259,21.39,-2.02,2.63,9.76
49.347567,4.080478,21.69,-0.32,1.56,12.0
49.347567,4.080478,21.69,-0.22,2.39,9.58
49.34744,4.0807,21.84,-2.5,-0.48,9.61
49.34744,4.0807,21.84,0.63,3.05,7.13
49.347309,4.080926,22.03,1.13,1.22,11.86
49.347309,4.080926,22.03,-0.71,2.07,9.7
49.347179,4.081155,22.12,-2.02,1.05,7.95
49.347179,4.081155,22.12,-0.33,2.94,11.52
49.347045,4.081385,22.32,1.46,2.09,10.17
49.347045,4.081385,22.32,-1.12,2.97,7.04
49.346913,4.081618,22.39,0.35,1.24,10.76
49.346913,4.081618,22.39,-0.05,2.69,11.65
49.346778,4.081857,22.54,-1.16,2.75,9.52
49.346778,4.081857,22.54,-0.46,1.51,10.64
49.346643,4.082091,22.66,0.01,2.5,9.92
49.346643,4.082091,22.66,-0.97,0.78,9.75
49.346507,4.082325,22.8,-0.06,2.53,10.94
49.346507,4.082325,22.8,-0.53,1.31,9.04
49.346369,4.082558,22.85,0.21,1.87,8.21
49.346369,4.082558,22.85,0.41,3.93,8.22
49.346235,4.082791,23.0,0.4,1.32,8.27
49.346235,4.082791,23.0,0.36,1.9,9.49
49.346097,4.083032,23.06,0.46,0.81,12.53
49.346097,4.083032,23.06,-1.5,0.76,10.46
49.345963,4.083263,22.94,-2.1,1.63,13.18
49.345963,4.083263,22.94,-0.26,1.58,11.19
49.345825,4.083503,22.89,-0.45,1.82,8.99
49.345688,4.083746,22.85,0.31,1.95,8.82
49.345688,4.083746,22.85,-1.64,1.79,13.44
49.345552,4.08398,22.87,-1.55,-0.66,7.34
49.345552,4.08398,22.87,-0.16,1.04,7.63
49.345415,4.084217,22.8,-0.79,2.89,10.94
49.345415,4.084217,22.8,0.47,2.79,8.57
49.34528,4.084452,22.79,-0.06,2.07,8.77
49.34528,4.084452,22.79,-0.39,2.48,9.75
49.345144,4.084688,22.81,-1.07,0.11,10.84
49.345144,4.084688,22.81,-1.62,1.88,8.5
49.345008,4.084926,22.84,-1.6,0.93,10.22
49.345008,4.084926,22.84,-2.82,0.45,7.42
49.344872,4.085164,22.89,0.21,0.75,10.51
49.344872,4.085164,22.89,-0.19,3.57,14.54
49.344737,4.085402,22.88,0.13,3.02,9.37
49.344737,4.085402,22.88,2.22,3.42,10.08
49.344602,4.085635,22.81,-0.11,0.99,6.17
49.344602,4.085635,22.81,-0.93,0.76,9.29
49.344464,4.085872,22.83,0.48,3.28,11.78
49.344464,4.085872,22.83,0.66,2.49,11.16
49.34433,4.086109,22.86,-0.65,1.57,9.94
49.34433,4.086109,22.86,0.28,1.32,8.89
49.344191,4.086351,22.57,-3.05,0.65,12.48
49.344191,4.086351,22.57,-1.24,3.48,9.74
49.34406,4.086577,22.41,-2.59,-0.28,9.4
49.34406,4.086577,22.41,0.07,0.83,9.05
49.343932,4.086803,22.01,0.25,2.66,8.78
49.343932,4.086803,22.01,-0.11,1.74,9.88
49.343804,4.08703,21.76,1.46,2.1,9.92
49.343804,4.08703,21.76,-1.82,1.11,9.05
49.343673,4.087255,21.65,-0.4,3.4,9.1
49.343673,4.087255,21.65,-2.26,0.49,9.42
49.343544,4.087478,21.51,-0.57,1.05,9.29
49.343544,4.087478,21.51,-0.94,1.12,9.74
49.343417,4.087695,21.43,0.44,0.95,9.59
49.343417,4.087695,21.43,-1.92,1.63,9.41
49.34329,4.087913,21.33,0.02,4.06,10.19
49.34329,4.087913,21.33,-1.37,0.76,10.2
49.343162,4.088134,21.21,-0.54,0.91,9.07
49.343162,4.088134,21.21,0.56,1.02,8.58
49.343038,4.088351,20.98,-1.83,1.09,10.53
49.342915,4.088566,20.51,-1.14,1.64,8.94
49.342915,4.088566,20.51,0.12,0.97,9.76
49.342797,4.088779,19.96,-2.3,1.22,10.62
49.342797,4.088779,19.96,-1.51,2.1,9.5
49.342679,4.088981,19.44,-1.68,1.82,8.83
49.342679,4.088981,19.44,-1.0,1.4,9.75
49.342564,4.089178,18.88,-1.09,0.86,9.3
49.342564,4.089178,18.88,-0.36,0.99,8.97
49.342456,4.089367,18.39,-0.02,0.94,8.22
49.342456,4.089367,18.39,-0.68,0.11,10.04
49.342351,4.089553,17.89,-0.65,-0.66,8.65
49.342351,4.089553,17.89,-2.32,-0.41,10.29
49.342251,4.089727,16.04,-0.86,0.91,11.38
49.342251,4.089727,16.04,-0.63,0.31,10.18
49.342159,4.0899,15.39,0.5,1.21,6.85
49.342159,4.0899,15.39,1.27,2.99,11.88
49.342072,4.090066,15.42,2.28,2.39,10.71
49.342072,4.090066,15.42,1.24,2.06,10.32
49.341988,4.090236,15.73,1.27,2.34,10.42
49.341988,4.090236,15.73,-0.44,3.21,8.23
49.341894,4.090393,16.34,-1.82,1.92,9.34
49.341894,4.090393,16.34,-0.22,2.86,9.12
49.34179,4.090553,16.45,-0.84,0.43,9.33
49.34179,4.090553,16.45,-0.11,1.4,10.51
49.341695,4.090717,15.56,-1.16,-0.63,9.91
49.341695,4.090717,15.56,-0.92,0.23,10.47
49.341609,4.09087,13.71,0.91,-0.91,9.65
49.341609,4.09087,13.71,-0.74,0.91,10.71
49.341533,4.091,12.32,-1.39,0.19,9.77
49.341533,4.091,12.32,-1.21,0.02,9.19
49.341458,4.091128,11.61,-1.14,1.19,9.93
49.341458,4.091128,11.61,-1.02,1.45,10.51
49.341391,4.091247,10.6,-0.27,0.87,9.65
49.341391,4.091247,10.6,1.37,1.58,9.36
49.341339,4.091367,10.23,2.56,1.5,8.72
49.341339,4.091367,10.23,0.65,2.56,10.84
49.341292,4.091485,10.05,0.33,1.93,10.0
49.341292,4.091485,10.05,0.24,1.87,9.71
49.341233,4.09159,10.44,-0.51,1.98,9.23
49.341233,4.09159,10.44,-0.45,1.77,9.68
49.341161,4.091692,10.43,-1.13,1.46,8.64
49.341091,4.091793,10.32,-1.24,1.68,9.41
49.341091,4.091793,10.32,-0.92,1.99,9.92
49.341027,4.091894,10.2,-2.29,1.44,10.61
49.341027,4.091894,10.2,0.06,1.53,10.28
49.340967,4.091999,10.14,-0.82,1.52,8.55
49.340967,4.091999,10.14,0.25,1.94,8.93
49.340905,4.092104,10.19,-0.26,3.32,12.17
49.340905,4.092104,10.19,-1.29,2.27,10.91
49.340841,4.092207,10.23,-0.75,2.26,10.3
49.340841,4.092207,10.23,0.59,1.8,9.41
49.340781,4.092307,10.6,-1.62,2.0,10.17
49.340781,4.092307,10.6,-1.27,2.43,10.84
49.340714,4.092419,10.95,-0.55,-0.16,8.69
49.340714,4.092419,10.95,-1.13,3.09,9.91
49.340645,4.092535,11.3,-0.63,2.87,11.31
49.340645,4.092535,11.3,0.02,2.3,8.31
49.340578,4.092648,11.64,-1.61,2.61,11.06
49.340578,4.092648,11.64,0.16,1.75,8.98
49.340508,4.092771,12.22,-0.33,2.36,9.1
49.340508,4.092771,12.22,-0.17,1.94,9.82
49.340441,4.092889,12.2,-0.83,1.19,10.17
49.340441,4.092889,12.2,-0.74,-0.05,10.17
49.340371,4.093009,11.57,-1.09,0.68,10.3
49.340371,4.093009,11.57,0.2,0.43,10.39
49.340306,4.093123,10.78,-2.0,0.82,10.49
49.340306,4.093123,10.78,-0.63,1.57,9.46
49.340245,4.093232,10.33,-1.58,0.98,8.9
49.340245,4.093232,10.33,-1.42,0.99,9.76
49.340189,4.093336,9.69,-0.74,0.58,10.13
49.340189,4.093336,9.69,-0.7,0.79,9.73
49.340136,4.093432,8.83,-0.35,0.35,9.4
49.340136,4.093432,8.83,-0.09,0.86,10.83
49.340087,4.09352,7.55,-0.84,0.45,10.14
49.340087,4.09352,7.55,-0.79,1.0,9.51
49.340046,4.093593,6.58,-0.63,2.31,9.44
49.340046,4.093593,6.58,0.25,2.26,9.89
49.340004,4.093664,6.83,-0.69,2.27,9.97
49.340004,4.093664,6.83,-0.81,2.83,8.26
49.339968,4.093743,7.27,-0.57,2.61,9.0
49.339968,4.093743,7.27,-0.15,3.39,9.86
49.33993,4.09383,8.37,-1.05,2.11,9.7
49.33993,4.09383,8.37,0.04,2.16,10.54
49.339888,4.093925,9.25,0.93,2.72,9.86
49.339888,4.093925,9.25,2.34,2.73,9.85
49.339834,4.094025,9.01,-1.11,1.39,10.21
49.339771,4.094121,9.32,0.38,1.79,8.97
49.339771,4.094121,9.32,0.24,1.36,9.12
49.339705,4.094212,9.46,-0.54,2.73,9.45
49.339705,4.094212,9.46,-0.49,2.04,9.48
49.339633,4.094307,9.67,-1.49,2.21,9.8
49.339633,4.094307,9.67,0.59,1.91,9.53
49.339563,4.094403,9.74,0.16,3.2,9.8
49.339563,4.094403,9.74,0.15,2.5,9.61
49.3395,4.094507,10.1,0.12,1.83,9.24
49.3395,4.094507,10.1,-0.59,1.55,9.12
49.33944,4.094616,10.08,-1.55,2.0,10.36
49.33944,4.094616,10.08,-0.67,1.27,8.7
49.339383,4.094721,9.78,-1.44,2.68,11.55
49.339383,4.094721,9.78,0.87,1.58,8.05
49.339328,4.094824,9.44,-0.33,2.52,10.1
49.339328,4.094824,9.44,-1.23,1.21,9.21
49.339273,4.094913,9.28,-0.46,1.24,8.31
49.339273,4.094913,9.28,-0.57,2.36,10.15
49.339214,4.09501,9.07,-2.19,1.93,9.26
49.339214,4.09501,9.07,-0.66,1.26,8.29
49.339152,4.095094,9.15,-1.8,1.75,8.53
49.339152,4.095094,9.15,-1.95,1.77,9.84
49.339096,4.095183,9.04,-1.94,1.34,9.61
49.339096,4.095183,9.04,-2.43,2.04,9.85
49.33904,4.095283,9.07,-2.63,1.92,10.15
49.33904,4.095283,9.07,-3.79,2.55,9.02
49.338995,4.095396,9.6,-2.45,2.3,8.62
49.338995,4.095396,9.6,-1.69,2.36,9.55
49.338964,4.095534,10.32,-1.11,2.3,10.01
49.338964,4.095534,10.32,-0.55,1.88,10.72
49.338949,4.095683,10.89,-0.47,1.43,10.82
49.338949,4.095683,10.89,0.25,0.6,7.47
49.338936,4.095831,10.15,-0.22,0.94,10.43
49.338936,4.095831,10.15,-0.91,0.58,9.91
49.338925,4.095964,8.79,-0.43,0.12,9.9
49.338925,4.095964,8.79,-0.1,0.58,9.28
49.33891,4.096071,7.18,-0.74,-0.17,10.35
49.33891,4.096071,7.18,0.21,-0.27,10.34
49.338902,4.096157,5.43,0.93,-0.12,10.14
49.338902,4.096157,5.43,0.22,1.25,10.17
49.338894,4.09622,3.03,0.26,1.35,9.12
49.338894,4.09622,3.03,0.55,2.09,9.53
49.338886,4.096247,2.68,1.04,2.7,9.47
49.338868,4.096272,3.19,1.63,3.0,10.44
49.338868,4.096272,3.19,1.37,3.6,9.72
49.338842,4.096295,4.19,1.03,3.12,9.11
49.338842,4.096295,4.19,0.3,3.09,9.62
49.338801,4.09631,5.19,-0.15,3.37,9.46
49.338801,4.09631,5.19,-0.57,3.27,9.4
49.338748,4.096321,6.27,-0.23,2.76,9.8
49.338748,4.096321,6.27,-1.68,1.53,11.13
49.33869,4.096335,6.76,-0.01,1.82,10.76
49.33869,4.096335,6.76,0.98,2.64,10.16
49.338633,4.096352,6.72,1.19,1.86,9.23
49.338633,4.096352,6.72,2.68,1.49,9.47
49.338577,4.096355,5.85,1.27,2.18,9.74
49.338577,4.096355,5.85,1.33,2.71,9.42
49.338527,4.096339,5.99,0.34,2.68,9.05
49.338527,4.096339,5.99,0.07,3.2,9.99
49.338485,4.0963,6.79,-0.95,2.27,10.53
49.338485,4.0963,6.79,-0.68,1.24,10.03
49.338417,4.096235,7.69,-0.9,1.58,8.66
49.338417,4.096235,7.69,-2.48,1.68,9.76
49.338349,4.096175,7.68,-2.65,2.24,9.98
49.338349,4.096175,7.68,-3.04,1.57,9.43
49.338298,4.096138,7.17,-2.81,2.34,9.77
49.338298,4.096138,7.17,-2.28,2.35,9.27
49.338226,4.096125,7.85,-1.11,2.56,9.44
49.338226,4.096125,7.85,-0.88,2.91,8.03
49.338132,4.096147,8.91,-0.37,4.0,9.99
49.338132,4.096147,8.91,0.07,2.14,10.96
49.33804,4.096188,9.31,-0.86,1.01,9.38
49.33804,4.096188,9.31,-1.5,1.21,10.45
49.337955,4.096233,9.65,-0.74,1.36,10.86
49.337955,4.096233,9.65,-0.14,1.43,10.74
49.337871,4.096274,9.33,-0.62,0.91,12.2
49.337871,4.096274,9.33,0.01,1.22,10.26
49.337798,4.09631,8.28,-0.77,0.4,9.16
49.337798,4.09631,8.28,-0.45,-0.14,8.88
49.337735,4.096341,7.07,-0.23,0.16,9.93
49.337735,4.096341,7.07,-0.39,0.54,9.97
49.337694,4.096378,5.18,-0.34,-0.04,10.56
49.337694,4.096378,5.18,-0.36,0.1,9.91
49.337668,4.096394,2.91,-0.31,-0.09,10.22
49.337668,4.096394,0.0,-0.24,2.04,9.91
49.337668,4.096394,0.0,-0.62,1.96,9.39
49.337668,4.096394,0.0,-0.11,0.14,9.84
49.337668,4.096394,0.0,-0.45,2.04,9.23
49.337668,4.096394,0.0,-0.37,2.31,9.5
49.337668,4.096394,0.0,-0.46,4.19,9.3
49.337668,4.096394,0.0,-0.78,4.32,9.28
49.337668,4.096394,0.0,0.0,3.68,8.36
49.337626,4.09642,2.54,-0.32,4.52,8.9
49.337626,4.09642,2.54,-1.15,4.48,7.47
49.337593,4.096449,4.7,0.93,3.01,9.43
49.337593,4.096449,4.7,-0.87,2.95,10.16
49.337543,4.096481,6.12,-0.4,2.41,10.0
49.337543,4.096481,6.12,-1.26,2.31,9.67
49.337483,4.096518,6.53,-0.46,2.46,9.6
49.337483,4.096518,6.53,-1.81,2.1,9.28
49.337423,4.096557,7.02,1.17,2.5,9.24
49.337423,4.096557,7.02,-0.34,2.92,8.07
49.337361,4.096603,7.7,1.37,2.87,7.6
49.337361,4.096603,7.7,0.19,2.64,9.3
49.337306,4.096648,8.76,-0.36,2.44,9.2
49.337306,4.096648,8.76,-0.67,1.95,10.15
49.337237,4.09669,8.6,-2.12,1.79,10.3
49.337237,4.09669,8.6,-2.49,1.57,9.35
49.33716,4.09674,8.6,-0.47,1.89,10.4
49.33716,4.09674,8.6,0.43,3.39,9.19
49.3371,4.096813,8.57,1.7,2.9,8.73
49.3371,4.096813,8.57,-1.18,3.53,8.88
49.337035,4.096878,9.55,-0.53,3.73,9.77
49.337035,4.096878,9.55,0.63,3.76,9.47
49.336953,4.096932,10.57,0.46,2.92,9.18
49.336953,4.096932,10.57,-0.21,2.73,9.81
49.336856,4.096984,11.62,-0.49,1.93,8.04
49.336856,4.096984,11.62,-1.14,2.38,9.26
49.336751,4.097031,12.59,-0.99,3.35,9.89
49.336751,4.097031,12.59,-0.35,2.83,8.89
49.336639,4.097084,13.72,-0.41,3.4,9.72
49.336639,4.097084,13.72,-0.05,2.08,9.72
49.336508,4.097137,14.88,-0.05,3.26,9.78
49.336508,4.097137,14.88,-0.99,2.24,11.34
49.336367,4.097197,15.77,-1.01,2.51,8.96
49.336367,4.097197,15.77,-0.27,2.46,9.59
49.336215,4.097259,16.77,-0.17,1.91,9.87
49.336061,4.097331,17.47,-1.9,2.9,9.07
49.336061,4.097331,17.47,-0.35,2.71,10.32
49.335909,4.097404,18.04,-0.95,2.19,7.75
49.335909,4.097404,18.04,0.46,3.42,10.75
49.335755,4.097478,18.65,-1.33,1.64,11.07
49.335755,4.097478,18.65,1.54,0.65,8.91
49.335591,4.097562,19.45,-0.88,2.71,8.57
49.335591,4.097562,19.45,-0.8,3.69,9.7
49.335421,4.097648,20.02,0.53,2.03,7.97
49.335421,4.097648,20.02,-0.92,2.18,10.53
49.335244,4.097732,20.7,-0.75,1.79,9.96
49.335244,4.097732,20.7,-1.07,2.82,10.81
49.335059,4.097815,21.45,-0.39,2.72,10.63
49.335059,4.097815,21.45,0.19,2.58,12.02
49.334883,4.097902,21.81,-1.28,1.99,9.91
49.334883,4.097902,21.81,0.7,2.77,9.86
49.334699,4.097994,22.24,-0.3,2.6,11.3
49.334699,4.097994,22.24,-2.49,1.61,11.45
49.334506,4.098093,22.46,-2.62,2.64,10.88
49.334506,4.098093,22.46,-0.1,2.65,10.17
49.33431,4.098193,22.52,-0.02,0.95,9.46
49.33431,4.098193,22.52,-0.46,1.57,10.03
49.334121,4.098289,22.54,-2.95,2.69,10.39
49.334121,4.098289,22.54,-0.13,1.09,7.59
49.333933,4.098381,22.62,-0.38,3.04,9.04
49.333933,4.098381,22.62,-1.67,0.96,9.48
49.333742,4.098483,22.66,-0.2,2.66,7.72
49.333742,4.098483,22.66,0.0,2.78,8.02
49.333549,4.09858,22.9,-1.99,2.22,9.75
49.333549,4.09858,22.9,0.67,1.66,7.05
49.333353,4.098674,23.16,-1.8,0.72,9.19
49.333353,4.098674,23.16,-0.96,2.87,10.14
49.333156,4.09877,23.52,0.21,1.47,10.31
49.333156,4.09877,23.52,-1.15,2.3,8.62
49.332952,4.098883,24.02,-1.24,1.64,9.1
49.332952,4.098883,24.02,0.19,3.09,7.32
49.332746,4.099006,24.51,-1.94,1.62,8.49
49.332746,4.099006,24.51,-0.32,1.7,10.43
49.332538,4.09913,24.75,0.55,1.96,12.02
49.332538,4.09913,24.75,-0.21,0.79,7.72
49.332327,4.099251,24.99,-0.84,1.16,8.3
49.332327,4.099251,24.99,-0.96,0.72,10.46
49.332117,4.099377,25.08,0.72,1.68,8.25
49.331908,4.099505,25.14,-0.3,2.15,10.88
49.331908,4.099505,25.14,0.35,2.26,9.64
49.331694,4.099632,25.24,1.58,2.39,10.06
49.331694,4.099632,25.24,-1.22,2.49,9.5
49.331479,4.099752,25.32,-2.07,3.61,11.65
49.331479,4.099752,25.32,-2.28,2.13,11.67
49.331259,4.099877,25.28,-1.14,1.87,10.49
49.331259,4.099877,25.28,-0.48,1.9,9.15
49.33105,4.099997,25.25,-0.3,2.18,9.05
49.33105,4.099997,25.25,-0.2,2.41,9.28
49.330833,4.100123,25.15,-0.23,2.62,9.45
49.330833,4.100123,25.15,-0.64,2.49,8.62
49.330615,4.100245,25.13,-0.47,4.6,7.62
49.330615,4.100245,25.13,0.23,-0.41,9.19
49.330404,4.10037,24.99,-1.01,0.94,9.32
49.330404,4.10037,24.99,-0.65,1.58,8.37
49.330196,4.100491,24.97,-2.02,0.85,10.94
49.330196,4.100491,24.97,-0.54,1.71,8.83
49.329987,4.100615,24.87,-0.08,2.69,8.65
49.329987,4.100615,24.87,0.61,0.83,9.79
49.32978,4.100734,24.68,-1.67,3.59,10.63
49.32978,4.100734,24.68,-0.13,1.47,9.05
49.329573,4.100854,24.59,-1.34,2.5,8.96
49.329573,4.100854,24.59,-1.16,1.81,9.04
49.329372,4.10098,24.51,-1.05,0.59,8.15
49.329372,4.10098,24.51,-1.33,2.42,9.28
49.329168,4.101111,24.42,-1.11,1.63,9.15
49.329168,4.101111,24.42,0.27,1.87,10.23
49.328962,4.101236,24.45,0.12,1.82,9.12
49.328962,4.101236,24.45,-1.59,0.96,7.64
49.328756,4.101359,24.31,-1.72,1.32,10.01
49.328756,4.101359,24.31,-1.5,1.21,10.51
49.328546,4.101485,24.28,-0.85,1.35,11.25
49.328546,4.101485,24.28,-1.06,1.9,9.26
49.328341,4.101607,24.21,0.41,1.81,9.52
49.328341,4.101607,24.21,-0.58,2.09,11.08
49.328141,4.101726,24.24,-0.37,2.36,10.29
49.328141,4.101726,24.24,-0.99,3.82,11.57
49.327941,4.101848,24.16,-2.15,3.46,9.78
49.327941,4.101848,24.16,-1.81,-0.68,10.64
49.327736,4.101972,24.17,-0.69,3.69,10.52
49.327535,4.102091,24.12,-0.34,1.11,8.74
49.327535,4.102091,24.12,0.06,2.34,10.47
49.327331,4.102215,24.04,-1.24,1.65,10.65
49.327331,4.102215,24.04,0.35,1.92,8.92
49.32713,4.102345,23.97,-0.38,1.24,9.17
49.32713,4.102345,23.97,0.05,2.3,10.27
49.326927,4.102475,23.91,-0.33,2.07,7.28
49.326927,4.102475,23.91,-0.04,3.4,11.98
49.326727,4.102606,23.85,-0.02,1.85,8.79
49.326727,4.102606,23.85,0.31,2.41,10.58
49.326528,4.10273,23.87,-0.24,3.34,9.93
49.326528,4.10273,23.87,-1.05,1.46,9.49
49.326329,4.102853,23.85,0.06,1.51,7.28
49.326329,4.102853,23.85,0.42,1.69,7.33
49.326131,4.102973,23.92,-1.62,1.7,9.96
49.326131,4.102973,23.92,-0.26,2.58,12.35
49.325929,4.103096,23.99,-1.12,2.48,9.46
49.325929,4.103096,23.99,-0.3,2.1,9.18
49.325728,4.103217,24.13,-0.17,2.17,9.07
49.325728,4.103217,24.13,0.0,3.17,12.25
49.325526,4.103347,24.18,0.0,2.55,8.7
49.325526,4.103347,24.18,-0.09,2.92,8.67
49.325324,4.103484,24.22,0.15,1.78,11.95
49.325324,4.103484,24.22,0.88,1.71,10.02
49.325126,4.103617,24.27,0.02,1.35,9.35
49.325126,4.103617,24.27,-0.35,1.91,9.22
49.324928,4.10374,23.72,2.43,2.11,9.62
49.324928,4.10374,23.72,3.98,2.41,9.06
49.324726,4.103849,23.41,3.34,2.91,9.83
49.324726,4.103849,23.41,3.54,2.26,8.93
49.32455,4.103918,23.37,-0.14,1.67,12.29
49.32455,4.103918,23.37,-2.82,2.35,8.72
49.324355,4.103952,23.26,-3.76,0.99,10.49
49.324355,4.103952,23.26,-3.15,3.48,7.82
49.324151,4.103972,23.18,-3.34,0.77,9.48
49.324151,4.103972,23.18,-1.36,0.78,10.3
49.323945,4.104025,23.39,0.11,1.78,8.21
49.323945,4.104025,23.39,-1.36,1.06,10.36
49.323742,4.104128,23.09,-1.03,1.1,11.06
49.323742,4.104128,23.09,-2.51,2.31,7.38
49.323538,4.104253,22.79,0.01,0.81,10.86
49.323368,4.104407,22.28,-0.22,1.99,11.43
49.323368,4.104407,22.28,-1.69,0.61,9.02
49.323209,4.10458,22.16,-0.47,2.01,9.78
49.323209,4.10458,22.16,-0.45,0.55,10.6
49.323049,4.104748,21.81,-1.5,2.11,11.49
49.323049,4.104748,21.81,0.93,2.06,8.27
49.322891,4.104898,21.43,1.81,0.83,8.83
49.322891,4.104898,21.43,1.68,1.47,8.31
49.322715,4.105018,21.19,-0.02,1.83,9.9
49.322715,4.105018,21.19,2.66,1.26,11.59
49.322509,4.105095,21.37,0.96,0.43,7.03
49.322509,4.105095,21.37,0.98,1.13,8.59
49.322306,4.105161,21.68,0.08,2.76,9.93
49.322306,4.105161,21.68,-0.58,2.86,9.96
49.322111,4.105212,21.94,-0.44,2.13,9.53
49.322111,4.105212,21.94,-0.95,1.37,9.84
49.321927,4.105281,22.09,-1.14,1.83,8.54
49.321927,4.105281,22.09,-0.21,1.57,10.01
49.321734,4.10535,22.46,-1.37,2.72,11.75
49.321734,4.10535,22.46,-0.17,2.0,8.68
49.321542,4.105415,22.65,0.37,1.42,9.79
49.321542,4.105415,22.65,0.09,1.85,6.65
49.321338,4.105487,23.04,-0.2,1.51,9.13
49.321338,4.105487,23.04,0.6,1.51,8.45
49.321132,4.105559,23.32,1.39,1.66,10.59
49.321132,4.105559,23.32,-1.3,1.95,10.37
49.320928,4.105627,23.63,0.5,1.39,11.68
49.320928,4.105627,23.63,-1.05,1.73,8.15
49.320725,4.105695,23.89,-0.3,1.61,8.14
49.320725,4.105695,23.89,-1.48,1.71,9.43
49.320518,4.105765,24.24,-0.23,2.32,7.07
49.320518,4.105765,24.24,-1.91,1.34,10.3
49.320307,4.105843,24.55,0.16,3.16,8.17
49.320307,4.105843,24.55,-2.64,1.59,11.46
49.320093,4.105918,24.84,-0.98,2.25,9.31
49.320093,4.105918,24.84,0.61,3.2,8.03
49.319871,4.105991,25.2,0.09,1.81,8.81
49.319871,4.105991,25.2,-0.03,1.76,8.52
49.319649,4.106066,25.39,-1.76,1.55,8.94
49.319424,4.106143,25.45,-0.44,1.79,10.27
49.319424,4.106143,25.45,0.29,1.01,8.79
49.319197,4.106223,25.5,-0.53,1.81,9.55
49.319197,4.106223,25.5,0.54,2.09,10.1
49.318971,4.106305,25.49,-0.8,-0.37,10.56
49.318971,4.106305,25.49,-0.23,1.98,10.98
49.318749,4.106382,25.6,-0.29,1.01,9.67
49.318749,4.106382,25.6,-0.76,1.52,9.89
49.318524,4.106466,25.6,-1.28,0.81,8.65
49.318524,4.106466,25.6,-1.23,1.6,9.66
49.318297,4.106552,25.49,-0.78,1.62,8.63
49.318297,4.106552,25.49,0.18,1.55,8.68
49.318075,4.106632,25.36,0.92,2.36,11.55
49.318075,4.106632,25.36,0.91,2.04,7.5
49.317852,4.106712,25.21,0.69,1.65,9.69
49.317852,4.106712,25.21,-0.51,1.58,10.64
49.317626,4.106796,25.05,-1.67,1.17,9.84
49.317626,4.106796,25.05,-2.19,2.48,9.29
49.317407,4.10688,24.7,-1.46,1.13,9.0
49.317407,4.10688,24.7,-1.35,1.42,8.84
49.317192,4.10697,24.41,-1.6,2.44,7.94
49.317192,4.10697,24.41,-1.87,1.03,11.28
49.316987,4.107076,24.42,-1.47,2.4,9.02
49.316987,4.107076,24.42,-1.28,0.94,7.16
49.316781,4.107188,24.41,-2.33,3.02,9.8
49.316781,4.107188,24.41,-1.43,-0.08,9.71
49.316575,4.107317,24.4,-0.6,1.66,10.44
49.316575,4.107317,24.4,-0.06,2.26,11.2
49.316371,4.107443,24.62,-0.44,2.28,11.41
49.316371,4.107443,24.62,-1.47,1.72,8.29
49.316158,4.107567,24.74,0.0,1.86,10.32
49.316158,4.107567,24.74,-1.02,2.55,10.2
49.315945,4.107696,24.76,0.77,2.22,10.18
49.315945,4.107696,24.76,-0.78,1.3,7.67
49.315735,4.107825,24.89,-1.23,1.91,9.88
49.315735,4.107825,24.89,-1.38,2.26,10.82
49.315525,4.107954,25.01,-1.02,2.31,8.57
49.315525,4.107954,25.01,-0.3,2.29,10.55
49.315318,4.108082,25.11,-1.66,0.49,10.21
49.315318,4.108082,25.11,-0.16,2.26,10.88
49.315117,4.108221,25.41,-1.86,2.73,12.7
49.315117,4.108221,25.41,-1.84,1.84,9.92
49.314919,4.10836,25.61,-0.91,1.97,11.51
49.314715,4.108501,25.61,0.7,1.95,10.75
49.314715,4.108501,25.61,0.11,1.2,10.08
49.31451,4.108649,25.64,-0.54,2.66,9.01
49.31451,4.108649,25.64,-0.4,2.05,10.18
49.314299,4.10879,25.67,1.59,1.68,7.6
49.314299,4.10879,25.67,-1.45,1.02,11.2
49.314093,4.108919,25.31,-0.56,0.89,9.78
49.314093,4.108919,25.31,-0.08,1.03,9.24
49.313888,4.109056,24.91,0.61,1.02,8.97
49.313888,4.109056,24.91,0.47,0.45,9.52
49.313682,4.109181,24.6,1.33,0.98,10.15
49.313682,4.109181,24.6,1.28,1.61,9.41
49.313467,4.109288,24.47,2.54,1.89,10.41
49.313467,4.109288,24.47,2.13,2.26,10.89
49.313249,4.109362,24.56,1.24,1.34,9.26
49.313249,4.109362,24.56,1.52,1.59,9.52
49.313026,4.109411,24.78,-0.35,2.02,11.1
49.313026,4.109411,24.78,-0.37,1.3,9.08
49.312798,4.109446,25.11,1.37,1.53,9.49
49.312798,4.109446,25.11,-1.43,1.48,8.15
49.312569,4.109458,25.23,-0.32,2.32,9.82
49.312569,4.109458,25.23,-1.5,1.55,8.42
49.312338,4.109481,25.38,-2.12,1.94,8.9
49.312338,4.109481,25.38,-0.11,1.41,9.32
49.312109,4.109513,25.47,0.0,2.14,11.41
49.312109,4.109513,25.47,-1.32,1.24,9.26
49.311879,4.109549,25.43,-1.02,2.29,9.27
49.311879,4.109549,25.43,-1.16,1.87,10.14
49.311651,4.109588,25.37,-0.66,1.14,11.2
49.311651,4.109588,25.37,-0.12,1.98,9.47
49.311424,4.109626,25.31,-1.02,1.34,10.02
49.311424,4.109626,25.31,-0.23,1.7,9.77
49.311201,4.109665,25.29,-0.29,1.35,10.19
49.311201,4.109665,25.29,-1.0,1.84,9.33
49.310977,4.109709,25.25,-0.58,1.47,9.99
49.310977,4.109709,25.25,1.06,1.73,9.26
49.310753,4.109743,25.1,-0.92,1.29,10.33
49.310753,4.109743,25.1,-0.47,1.77,8.71
49.310529,4.109774,24.95,-1.82,1.36,6.63
49.310529,4.109774,24.95,-1.4,1.97,8.84
49.310311,4.109815,24.6,-2.15,2.22,11.84
49.310092,4.109869,24.36,-2.74,1.77,10.39
49.310092,4.109869,24.36,-1.51,1.85,10.66
49.309878,4.109959,24.37,-2.46,1.87,10.52
49.309878,4.109959,24.37,-3.14,1.89,9.39
49.309669,4.110068,24.39,-2.27,1.12,8.24
49.309669,4.110068,24.39,-2.61,1.47,10.04
49.309464,4.110206,24.46,-1.64,2.18,9.06
49.309464,4.110206,24.46,-2.13,1.92,8.94
49.309266,4.110375,24.51,-1.95,0.91,9.87
49.309266,4.110375,24.51,-0.54,1.99,11.51
49.309091,4.110541,24.5,-2.59,1.03,10.07
49.309091,4.110541,24.5,-1.75,1.55,9.7
49.308909,4.1107,24.5,-2.66,1.42,11.05
49.308909,4.1107,24.5,-0.25,0.18,8.66
49.308719,4.110855,24.21,-0.77,2.84,10.97
49.308719,4.110855,24.21,-1.31,0.79,11.38
49.308531,4.111015,23.66,1.0,1.38,6.88
49.308531,4.111015,23.66,-1.05,1.79,9.47
49.308347,4.111166,23.19,0.49,0.77,8.55
49.308347,4.111166,23.19,-0.24,1.43,10.1
49.308169,4.111316,22.73,-1.44,1.41,10.46
49.308169,4.111316,22.73,0.07,1.45,10.47
49.30799,4.111467,22.5,-0.45,1.94,9.1
49.30799,4.111467,22.5,-1.61,1.52,11.17
49.307811,4.111616,22.38,-1.24,1.46,10.95
49.307811,4.111616,22.38,0.34,1.06,8.58
49.307632,4.111766,22.43,-0.14,1.72,10.14
49.307632,4.111766,22.43,0.95,1.86,12.49
49.307456,4.111905,22.41,-0.53,1.49,9.7
49.307456,4.111905,22.41,-0.97,1.21,11.4
49.307276,4.112045,22.39,-0.06,1.79,9.13
49.307276,4.112045,22.39,0.9,1.84,8.75
49.307097,4.112193,22.23,0.82,1.38,10.18
49.307097,4.112193,22.23,0.81,0.47,8.15
49.306912,4.112322,22.25,0.16,2.44,11.3
49.306912,4.112322,22.25,-0.18,2.51,11.33
49.306714,4.112411,22.64,0.03,2.07,8.44
49.306714,4.112411,22.64,0.0,1.98,9.3
49.306515,4.112492,22.66,-1.16,1.84,8.72
49.306515,4.112492,22.66,0.86,2.25,9.61
49.306316,4.112567,22.9,-0.22,0.95,7.45
49.306316,4.112567,22.9,-1.28,1.51,9.27
49.30611,4.112652,23.06,0.73,2.68,11.24
49.3059,4.112729,23.21,0.65,2.05,10.31
49.3059,4.112729,23.21,1.67,2.51,9.68
49.30569,4.112802,23.32,-0.01,0.89,9.08
49.30569,4.112802,23.32,0.51,2.11,9.86
49.305484,4.112882,23.43,0.03,1.23,8.59
49.305484,4.112882,23.43,2.14,2.08,8.7
49.305283,4.112942,23.32,2.64,2.27,10.57
49.305283,4.112942,23.32,0.25,2.29,11.0
49.305078,4.112976,23.08,-0.29,0.96,9.88
49.305078,4.112976,23.08,0.67,1.58,9.5
49.304869,4.112983,22.7,0.22,0.69,7.49
49.304869,4.112983,22.7,-0.7,0.74,8.6
49.304659,4.11299,22.64,-2.09,1.59,9.75
49.304659,4.11299,22.64,-0.7,2.6,8.65
49.304458,4.113017,22.35,-1.73,1.13,9.43
49.304458,4.113017,22.35,-0.55,0.82,8.89
49.304256,4.113067,22.6,-1.36,1.32,9.58
49.304256,4.113067,22.6,-0.69,1.66,9.4
49.304061,4.113135,22.66,-0.6,2.4,9.04
49.304061,4.113135,22.66,1.2,1.45,10.62
49.303873,4.113225,22.85,-1.75,1.21,8.4
49.303873,4.113225,22.85,0.14,2.39,9.44
49.30369,4.113319,23.03,-0.09,1.26,9.68
49.30369,4.113319,23.03,-1.16,2.09,9.33
49.30349,4.113405,23.1,-0.22,2.24,8.0
49.30349,4.113405,23.1,-0.33,1.16,10.33
49.303295,4.113485,23.35,0.51,2.72,9.39
49.303295,4.113485,23.35,-0.07,2.05,9.35
49.303086,4.113576,23.45,-0.11,1.55,9.51
49.303086,4.113576,23.45,-0.67,2.08,11.22
49.30288,4.113655,23.38,-0.13,0.98,8.94
49.30288,4.113655,23.38,-0.7,2.13,7.48
49.302675,4.113732,23.24,-2.2,1.28,10.38
49.302675,4.113732,23.24,-0.67,1.76,7.47
49.302476,4.113804,23.17,-1.16,1.33,7.62
49.302476,4.113804,23.17,-1.71,1.43,10.34
49.302277,4.113894,23.17,-0.63,1.66,10.01
49.302277,4.113894,23.17,-2.16,0.84,10.24
49.302081,4.114019,23.16,-0.53,1.05,10.49
49.302081,4.114019,23.16,-0.92,2.05,9.32
49.301886,4.114155,23.12,-0.62,2.24,9.39
49.301886,4.114155,23.12,-0.83,2.13,9.9
49.301703,4.114288,23.16,0.47,2.09,8.64
49.301522,4.114432,23.17,-0.1,2.03,10.35
49.301522,4.114432,23.17,-1.49,1.03,10.82
49.301334,4.114569,23.19,-0.96,1.52,10.02
49.301334,4.114569,23.19,-0.55,1.11,9.33
49.301144,4.114703,23.18,0.19,1.65,10.8
49.301144,4.114703,23.18,-0.73,2.02,10.12
49.300954,4.114833,23.15,-1.34,1.24,9.8
49.300954,4.114833,23.15,-1.07,2.4,10.2
49.300766,4.114967,23.13,-0.43,1.38,10.23
49.300766,4.114967,23.13,-1.18,1.67,10.74
49.30058,4.115094,23.1,-1.05,1.81,6.88
49.30058,4.115094,23.1,-0.86,1.98,8.35
49.300398,4.115231,22.91,-1.87,1.54,10.09
49.300398,4.115231,22.91,-2.34,2.4,10.23
49.300222,4.115378,22.94,-1.99,1.79,9.1
49.300222,4.115378,22.94,0.6,1.62,8.31
49.300044,4.115537,22.86,0.66,1.27,8.71
49.300044,4.115537,22.86,-0.67,2.0,8.53
49.299864,4.115698,22.22,0.2,1.16,9.94
49.299864,4.115698,22.22,1.5,1.5,10.46
49.299687,4.115858,21.52,-0.48,1.52,11.59
49.299687,4.115858,21.52,0.0,1.57,10.6
49.299516,4.116008,20.96,-0.18,1.59,10.45
49.299516,4.116008,20.96,-0.2,-0.07,9.62
49.29935,4.116152,20.14,0.76,1.62,10.02
49.29935,4.116152,20.14,0.13,2.19,8.53
49.299182,4.116278,19.61,0.28,2.33,9.79
49.299182,4.116278,19.61,0.72,1.94,8.69
49.299033,4.116403,19.23,0.13,1.45,9.05
49.299033,4.116403,19.23,-0.24,2.05,10.9
49.298882,4.116523,18.68,-0.62,1.63,10.5
49.298882,4.116523,18.68,-0.93,1.81,9.5
49.298733,4.116637,18.29,-0.25,1.04,10.36
49.298733,4.116637,18.29,-1.52,2.06,9.07
49.298585,4.116747,17.9,-0.38,1.63,7.66
49.298585,4.116747,17.9,-0.94,1.64,8.96
49.29844,4.116848,17.4,-1.08,1.37,9.14
49.29844,4.116848,17.4,-0.37,1.54,11.56
49.298293,4.116947,17.09,0.03,0.68,10.15
49.298293,4.116947,17.09,-0.42,1.6,10.84
49.298156,4.117046,16.47,0.54,1.78,8.66
49.298156,4.117046,16.47,-0.23,1.63,9.7
49.298023,4.117147,16.13,0.22,1.24,8.46
49.298023,4.117147,16.13,-0.7,0.99,8.4
49.297895,4.117239,15.42,-0.29,1.01,8.74
49.297807,4.117336,14.79,-0.71,1.47,9.09
49.297807,4.117336,14.79,-2.21,1.57,10.76
49.297708,4.117434,14.2,-1.81,2.35,9.82
49.297708,4.117434,14.2,-2.91,1.92,10.38
49.297615,4.11755,13.88,-1.74,2.05,10.18
49.297615,4.11755,13.88,-1.59,2.31,9.97
49.297519,4.117692,13.81,-2.15,2.0,9.85
49.297519,4.117692,13.81,-1.46,2.79,12.03
49.297429,4.117842,13.91,-2.88,2.41,8.23
49.297429,4.117842,13.91,-1.13,1.87,8.14
49.297356,4.118011,14.22,-0.61,2.41,9.91
49.297356,4.118011,14.22,-1.85,2.42,10.0
49.297291,4.118192,14.36,-1.41,3.39,10.16
49.297291,4.118192,14.36,-1.03,1.26,10.5
49.297233,4.118383,14.67,-1.11,3.05,8.84
49.297233,4.118383,14.67,-1.65,1.83,9.42
49.297195,4.118582,14.74,1.15,1.81,8.98
49.297195,4.118582,14.74,-1.11,1.28,8.92
49.297153,4.118786,14.21,-0.26,0.05,9.05
49.297153,4.118786,14.21,-1.38,1.48,8.57
49.297106,4.118969,13.53,-0.98,1.67,11.08
49.297106,4.118969,13.53,-0.44,2.63,10.65
49.297065,4.119137,12.86,0.73,1.63,9.4
49.297065,4.119137,12.86,-0.52,2.02,9.92
49.297032,4.119295,11.61,0.1,1.83,9.59
49.297032,4.119295,11.61,-0.79,1.04,10.34
49.297005,4.119447,10.43,-0.63,1.82,9.42
49.297005,4.119447,10.43,0.99,0.69,11.35
49.29697,4.11957,9.22,-0.05,0.98,9.63
49.29697,4.11957,9.22,0.94,1.42,10.88
49.296935,4.119669,8.11,0.95,1.89,11.14
49.296935,4.119669,8.11,0.8,1.89,10.96
49.2969,4.119749,6.9,1.3,2.17,9.69
49.2969,4.119749,6.9,1.3,2.4,10.93
49.296863,4.119816,7.03,1.65,2.25,9.47
49.296863,4.119816,7.03,1.02,2.1,6.79
49.296811,4.119867,6.98,0.48,2.63,9.06
49.296811,4.119867,6.98,-0.23,2.38,8.73
49.296756,4.119904,7.45,-0.41,2.04,9.67
49.296756,4.119904,7.45,0.81,0.11,10.69
49.296688,4.119933,7.75,-0.25,1.23,11.42
49.296625,4.119957,7.39,-0.31,1.49,10.3
49.296625,4.119957,7.39,0.49,2.52,9.31
49.296569,4.119983,7.69,0.45,2.11,11.25
49.296569,4.119983,7.69,0.22,2.93,8.89
49.296496,4.119978,8.72,0.46,1.53,9.57
49.296496,4.119978,8.72,0.31,2.03,8.69
49.296418,4.119945,9.36,-0.06,2.16,11.42
49.296418,4.119945,9.36,-0.23,1.46,8.89
49.296333,4.119894,10.13,0.33,2.75,8.85
49.296333,4.119894,10.13,-0.1,1.79,9.99
49.296244,4.119831,10.71,-0.04,1.87,10.3
49.296244,4.119831,10.71,0.45,1.07,8.81
49.29615,4.119771,10.97,-1.05,2.01,10.17
49.29615,4.119771,10.97,-0.68,1.63,8.57
49.296063,4.119712,10.67,-0.56,0.84,10.95
49.296063,4.119712,10.67,-0.7,1.32,8.71
49.295974,4.119663,10.19,-1.38,1.25,8.62
49.295974,4.119663,10.19,0.1,0.73,9.3
49.295888,4.119617,10.07,-0.65,1.86,8.2
49.295888,4.119617,10.07,-0.06,1.22,9.4
49.295804,4.119573,9.88,0.01,1.02,9.47
49.295804,4.119573,9.88,-0.92,0.77,7.08
49.295724,4.119523,9.68,-0.32,0.71,10.98
49.295724,4.119523,9.68,0.34,1.71,10.26
49.295649,4.119471,9.26,-0.07,1.14,10.22
49.295649,4.119471,9.26,0.62,1.25,9.88
49.295584,4.119418,9.23,-0.57,0.07,10.18
49.295584,4.119418,9.23,0.38,0.47,8.14
49.295514,4.119352,8.59,-0.61,-0.08,10.54
49.295514,4.119352,8.59,0.07,0.29,10.96
49.295456,4.119298,7.08,-0.17,-0.18,10.51
49.295456,4.119298,7.08,0.73,0.18,10.21
49.295412,4.119261,5.32,-0.03,0.12,10.38
49.295412,4.119261,5.32,0.18,1.42,9.74
49.295384,4.119233,3.61,0.04,1.64,9.4
49.295384,4.119233,3.61,-0.27,1.7,9.92
49.295362,4.119207,3.36,-0.09,2.4,10.1
49.295362,4.119207,3.36,-0.14,2.64,9.52
49.295343,4.119179,3.77,-0.21,2.42,9.36
49.295343,4.119179,3.77,-0.15,2.19,8.96
49.295309,4.119145,4.39,-0.26,1.9,9.86
49.295309,4.119145,4.39,-0.36,1.6,11.16
49.29528,4.119091,4.47,-0.3,1.39,10.24
49.29525,4.119027,4.49,0.05,1.86,9.62
49.29525,4.119027,4.49,-0.14,2.32,9.17
49.295222,4.118977,4.83,0.09,2.26,9.44
49.295222,4.118977,4.83,0.45,2.42,10.0
49.2952,4.118919,5.41,-0.14,2.57,9.67
49.2952,4.118919,5.41,-0.79,2.64,8.37
49.295172,4.11885,6.34,0.23,3.65,9.02
49.295172,4.11885,6.34,-0.57,3.01,9.14
49.29513,4.11877,7.11,-0.56,2.78,9.52
49.29513,4.11877,7.11,-1.26,2.49,10.02
49.295085,4.118683,7.92,-0.63,2.49,8.92
49.295085,4.118683,7.92,0.59,2.29,9.0
49.295041,4.118591,8.66,-0.47,2.29,9.64
49.295041,4.118591,8.66,0.09,3.2,9.94
49.294988,4.118493,9.22,-0.33,2.38,10.52
49.294988,4.118493,9.22,0.08,1.97,9.17
49.294938,4.118392,9.23,0.8,1.3,8.09
49.294938,4.118392,9.23,-0.85,2.26,10.03
49.294886,4.118287,9.28,-0.3,2.19,10.21
49.294886,4.118287,9.28,0.18,2.08,9.47
49.294834,4.11818,9.48,0.54,1.77,9.67
49.294834,4.11818,9.48,0.14,1.14,10.32
49.294776,4.118076,9.21,0.06,1.13,9.66
49.294776,4.118076,9.21,0.11,1.09,9.28
49.294724,4.117977,8.46,0.18,0.73,8.96
49.294724,4.117977,8.46,0.94,0.68,9.32
49.294681,4.117892,7.43,-1.07,0.94,9.97
49.294681,4.117892,7.43,-1.64,0.94,9.75
49.29464,4.117816,6.77,-2.04,1.26,9.33
49.29464,4.117816,6.77,-2.12,1.28,8.3
49.294605,4.117759,5.95,-3.35,2.33,9.83
49.294605,4.117759,5.95,-2.68,3.28,9.92
49.29457,4.117715,5.25,-2.73,2.72,11.45
49.29457,4.117715,5.25,-1.2,2.39,9.89
49.294526,4.117683,7.11,0.38,3.23,9.52
49.294526,4.117683,7.11,-0.34,2.38,9.5
49.294452,4.11768,8.24,-0.98,3.12,9.88
49.294452,4.11768,8.24,-1.78,1.93,6.66
49.294363,4.117682,9.33,-0.48,2.99,8.42
49.294363,4.117682,9.33,0.64,1.99,9.96
49.294271,4.117681,9.69,0.81,1.9,9.63
49.294271,4.117681,9.69,0.15,3.63,11.37
49.29417,4.117677,11.24,-1.25,2.39,9.59
49.29406,4.117668,11.51,-0.62,1.76,7.97
49.29406,4.117668,11.51,2.21,3.24,11.46
49.293956,4.117661,11.7,-0.58,1.71,10.43
49.293956,4.117661,11.7,-0.25,2.17,9.52
49.29385,4.117658,11.67,-0.1,1.81,10.54
49.29385,4.117658,11.67,0.21,2.48,10.2
49.29374,4.117651,11.79,0.15,2.33,9.05
49.29374,4.117651,11.79,0.73,2.52,11.54
49.293633,4.11764,11.82,-0.21,1.2,9.52
49.293633,4.11764,11.82,0.75,2.7,11.13
49.293524,4.11763,12.06,0.11,2.26,9.05
49.293524,4.11763,12.06,-0.49,2.53,10.21
49.293419,4.117618,12.26,1.18,2.22,9.38
49.293419,4.117618,12.26,0.35,2.45,9.49
49.293307,4.117599,12.51,-0.3,2.8,10.95
49.293307,4.117599,12.51,-0.57,1.44,10.54
49.293192,4.117578,12.83,-3.01,0.97,10.38
49.293192,4.117578,12.83,0.02,2.3,9.71
49.293077,4.117559,12.7,0.02,0.79,8.76
49.293077,4.117559,12.7,-0.42,0.63,9.76
49.292965,4.117544,12.2,-0.6,1.87,9.09
49.292965,4.117544,12.2,0.25,1.06,8.94
49.292857,4.117525,11.59,-0.36,0.7,9.53
49.292857,4.117525,11.59,-0.89,1.07,9.84
49.292757,4.117504,11.46,-1.16,0.88,10.08
49.292757,4.117504,11.46,-1.14,1.53,9.81
49.292655,4.117482,11.08,-2.17,1.47,10.23
49.292655,4.117482,11.08,-2.64,0.81,9.25
49.292557,4.11747,10.58,-3.04,0.96,10.19
49.292557,4.11747,10.58,-3.8,2.01,12.14
49.292468,4.117495,9.76,-3.03,1.95,8.44
49.292468,4.117495,9.76,-3.24,2.01,10.6
49.292395,4.11755,9.3,-2.27,2.01,10.51
49.292395,4.11755,9.3,-1.81,2.6,9.63
49.292335,4.117646,9.32,0.04,2.47,9.74
49.292335,4.117646,9.32,0.0,2.34,10.23
49.292283,4.117767,9.67,-0.36,2.34,9.24
49.292283,4.117767,9.67,0.5,1.52,9.84
49.292239,4.117899,9.81,0.91,1.93,11.0
49.292239,4.117899,9.81,1.24,2.54,9.18
49.292199,4.118021,9.4,1.39,1.63,10.02
49.292152,4.11813,9.08,0.27,1.78,9.82
49.292152,4.11813,9.08,1.52,2.53,9.67
49.292091,4.118221,8.97,1.83,2.22,7.34
49.292091,4.118221,8.97,0.22,2.48,8.49
49.292013,4.118299,8.9,1.13,2.16,8.71
49.292013,4.118299,8.9,0.81,1.95,9.69
49.291931,4.118362,8.82,0.89,2.74,10.85
49.291931,4.118362,8.82,0.79,1.6,10.02
49.291852,4.118418,8.73,0.34,1.51,11.37
49.291852,4.118418,8.73,-0.92,1.66,10.33
49.291777,4.118453,8.02,0.05,1.15,9.58
49.291777,4.118453,8.02,-0.56,2.53,9.27
49.291706,4.11849,7.8,0.34,2.47,8.68
49.291706,4.11849,7.8,-0.17,2.27,9.27
49.291636,4.118531,8.22,-0.49,2.5,8.75
49.291636,4.118531,8.22,0.09,1.74,9.14
49.291558,4.118567,8.48,-1.02,2.32,8.59
49.291558,4.118567,8.48,-0.87,3.04,10.16
49.291481,4.118612,9.36,-0.73,2.56,9.14
49.291481,4.118612,9.36,-1.5,2.24,9.56
49.291402,4.118654,9.32,0.77,1.84,9.43
49.291402,4.118654,9.32,0.41,2.04,8.67
49.291331,4.118707,9.41,0.26,2.26,9.77
49.291331,4.118707,9.41,0.99,3.38,8.88
49.291257,4.118766,9.69,-0.34,2.69,9.8
49.291257,4.118766,9.69,1.08,1.72,9.81
49.291167,4.118822,10.28,0.74,2.5,9.9
49.291167,4.118822,10.28,-0.13,3.3,8.51
49.29108,4.118882,10.78,-1.5,1.47,7.53
49.29108,4.118882,10.78,-1.85,1.59,6.96
49.290988,4.118929,11.08,-0.42,2.54,9.9
49.290988,4.118929,11.08,-0.32,2.1,9.16
49.290895,4.118989,11.43,0.1,1.79,9.97
49.290895,4.118989,11.43,-0.21,1.37,8.46
49.290799,4.119049,11.03,0.3,1.73,9.98
49.290799,4.119049,11.03,0.43,1.59,11.23
49.290704,4.119101,10.33,-0.65,0.08,11.77
49.290704,4.119101,10.33,-0.19,0.8,9.1
49.290616,4.119151,9.09,-0.49,1.62,9.27
49.290616,4.119151,9.09,0.66,2.62,10.16
49.290542,4.119185,8.27,0.06,1.95,9.66
49.290542,4.119185,8.27,-0.98,2.52,9.81
49.290472,4.119217,8.25,-1.02,2.83,10.17
49.290396,4.11926,8.79,-0.75,1.87,8.14
49.290396,4.11926,8.79,-0.53,2.63,9.17
49.290323,4.119314,8.97,-0.23,2.6,9.65
49.290323,4.119314,8.97,-0.54,2.5,7.75
49.290252,4.119375,9.6,-0.27,1.39,9.43
49.290252,4.119375,9.6,-0.47,1.55,8.69
49.290178,4.119444,9.35,-0.18,1.28,9.62
49.290178,4.119444,9.35,-0.86,1.35,8.81
49.290103,4.119507,8.63,0.02,0.08,10.07
49.290103,4.119507,8.63,0.01,-1.13,10.48
49.290038,4.119565,7.47,-0.01,0.28,10.18
49.290038,4.119565,7.47,0.61,0.58,9.94
49.289991,4.119614,5.99,0.04,0.98,9.76
49.289991,4.119614,5.99,-0.01,0.75,9.48
49.28995,4.119665,4.7,-1.11,0.47,10.59
49.28995,4.119665,4.7,-0.3,-0.59,9.39
49.289921,4.119688,2.76,-0.45,-0.53,10.2
49.289921,4.119688,2.76,-0.2,-0.52,10.49
49.289921,4.119688,0.0,-0.34,1.11,9.74
49.289921,4.119688,0.0,-0.42,1.84,9.68
49.289921,4.119688,0.0,-0.37,2.2,9.46
49.289921,4.119688,0.0,-0.34,2.34,9.58
49.289921,4.119688,0.0,-0.42,3.13,9.44
49.289921,4.119688,0.0,-0.1,3.31,9.56
49.289921,4.119688,0.0,0.46,3.58,9.11
49.289921,4.119688,0.0,1.18,3.66,9.86
49.289915,4.119693,1.64,1.01,3.63,9.9
49.289915,4.119693,1.64,0.81,3.06,9.45
49.289896,4.119686,3.57,0.91,3.64,9.02
49.289896,4.119686,3.57,0.26,3.09,8.37
49.289855,4.119645,5.55,-1.01,3.42,9.17
49.289855,4.119645,5.55,-0.38,3.14,9.12
49.28981,4.119582,6.64,-0.31,2.84,9.5
49.28981,4.119582,6.64,-0.37,3.73,9.15
49.289758,4.119501,8.21,-0.29,2.93,8.88
49.289758,4.119501,8.21,0.7,3.39,8.88
49.289701,4.119409,8.88,-1.22,2.61,9.41
49.289701,4.119409,8.88,-0.73,1.76,9.17
49.289642,4.119308,9.97,-0.29,2.19,8.78
49.289642,4.119308,9.97,-0.82,1.68,10.07
49.289578,4.119204,10.33,0.52,2.12,7.58
49.289578,4.119204,10.33,0.55,2.23,10.98
49.289515,4.119097,10.5,1.24,1.26,10.3
49.289515,4.119097,10.5,-0.2,2.48,9.76
49.289449,4.118989,10.74,-0.66,1.73,10.25
49.289378,4.118879,11.66,-0.02,3.52,13.01
49.289378,4.118879,11.66,0.12,2.34,9.76
49.289302,4.118756,11.96,-1.07,2.25,9.86
49.289302,4.118756,11.96,-0.58,1.75,10.21
49.289217,4.118627,12.86,0.01,1.66,10.51
49.289217,4.118627,12.86,-0.69,1.34,10.13
49.289132,4.118499,12.69,-0.06,1.3,8.13
49.289132,4.118499,12.69,-0.76,1.7,9.95
49.289047,4.118373,12.34,-0.25,0.61,10.28
49.289047,4.118373,12.34,-0.36,0.72,9.88
49.288967,4.118256,11.3,1.18,1.84,9.08
49.288967,4.118256,11.3,-0.49,0.5,10.41
49.288895,4.118151,10.47,-0.41,0.97,9.1
49.288895,4.118151,10.47,-0.29,0.83,10.74
49.28883,4.118053,9.39,0.6,2.67,9.26
49.28883,4.118053,9.39,-0.72,2.23,8.97
49.28877,4.117968,8.76,-0.32,2.01,8.24
49.28877,4.117968,8.76,-0.34,2.67,9.51
49.288712,4.117881,9.1,-0.07,3.79,11.02
49.288712,4.117881,9.1,-0.12,2.24,9.44
49.288654,4.117795,9.36,-0.82,2.42,9.3
49.288654,4.117795,9.36,-0.91,2.29,10.82
49.288593,4.117706,9.74,0.22,2.7,9.67
49.288593,4.117706,9.74,-0.63,2.48,9.78
49.288528,4.117612,10.22,-0.13,1.61,8.21
49.288528,4.117612,10.22,-0.45,1.94,8.97
49.288457,4.117512,10.58,-0.27,2.88,9.82
49.288457,4.117512,10.58,0.1,2.8,11.0
49.288386,4.117406,11.2,-0.38,2.35,9.64
49.288386,4.117406,11.2,1.42,2.38,9.82
49.288313,4.117296,11.58,-0.28,2.7,9.82
49.288313,4.117296,11.58,-0.67,2.41,10.68
49.288238,4.11718,11.84,-0.44,1.77,8.86
49.288238,4.11718,11.84,-1.08,2.62,9.54
49.288162,4.117066,12.23,-2.08,1.74,8.6
49.288162,4.117066,12.23,-0.95,2.29,9.26
49.288085,4.116953,12.24,-0.68,2.07,9.05
49.288085,4.116953,12.24,-0.93,2.57,12.05
49.288007,4.116834,12.67,-0.33,1.56,9.39
49.288007,4.116834,12.67,-0.39,2.54,10.27
49.287927,4.11671,12.97,-0.68,2.7,9.73
49.287844,4.116582,13.12,-0.44,2.04,8.73
49.287844,4.116582,13.12,-0.09,2.27,9.97
49.287758,4.116456,13.32,-0.01,2.34,10.03
49.287758,4.116456,13.32,-0.31,2.82,10.11
49.28767,4.116323,13.47,-0.87,1.71,9.25
49.28767,4.116323,13.47,-0.48,1.62,9.44
49.287581,4.116188,13.68,-0.79,2.12,10.11
49.287581,4.116188,13.68,-0.69,1.89,9.49
49.287489,4.116055,13.83,-0.67,2.48,9.28
49.287489,4.116055,13.83,0.09,2.44,8.81
49.287395,4.115921,14.03,-0.91,1.44,12.39
49.287395,4.115921,14.03,-0.08,2.46,9.66
49.287301,4.115783,14.35,-0.26,2.15,8.79
49.287301,4.115783,14.35,-0.55,2.04,9.53
49.287208,4.115645,14.51,-0.01,2.26,10.01
49.287208,4.115645,14.51,-0.5,2.21,10.23
49.287116,4.115506,14.76,-0.57,2.04,10.83
49.287116,4.115506,14.76,-1.04,1.87,9.63
49.287022,4.115367,14.69,-1.35,1.69,10.18
49.287022,4.115367,14.69,-0.27,1.57,8.68
49.286929,4.115225,14.6,-0.9,1.04,9.25
49.286929,4.115225,14.6,-0.67,0.48,10.64
49.286836,4.115084,13.55,-0.87,-0.39,9.23
49.286836,4.115084,13.55,-0.23,0.91,9.87
49.286751,4.114959,12.47,-0.68,1.15,10.56
49.286751,4.114959,12.47,-0.07,1.84,10.42
49.286675,4.114846,11.65,-0.71,1.47,7.46
49.286675,4.114846,11.65,-0.65,2.21,8.23
49.286602,4.114735,11.57,-0.07,2.0,11.53
49.286602,4.114735,11.57,-0.44,2.78,10.4
49.286524,4.114619,12.08,-0.81,2.29,9.75
49.286524,4.114619,12.08,-0.33,2.0,9.88
49.286444,4.114498,12.47,-1.53,2.81,9.54
49.286444,4.114498,12.47,-0.37,1.92,9.35
49.286361,4.11437,13.07,-0.1,1.73,9.22
49.286361,4.11437,13.07,0.5,1.49,8.38
49.286273,4.114238,13.69,-0.81,2.03,10.02
49.286273,4.114238,13.69,-0.64,2.13,9.2
49.286186,4.114103,13.77,-0.53,1.92,9.67
49.286186,4.114103,13.77,0.09,2.0,9.28
49.286099,4.113976,13.7,0.08,1.47,9.78
49.286099,4.113976,13.7,-0.88,1.15,9.17
49.286011,4.113846,13.38,-0.37,0.68,10.23
49.285929,4.113725,12.64,0.03,0.75,8.59
49.285929,4.113725,12.64,-0.89,0.87,10.57
49.285847,4.11361,12.2,-0.74,0.39,10.32
49.285847,4.11361,12.2,-0.9,0.32,10.03
49.285774,4.113501,11.09,-0.65,0.49,9.51
49.285774,4.113501,11.09,-0.91,0.38,8.97
49.285711,4.1134,10.03,0.05,1.17,9.08
49.285711,4.1134,10.03,1.25,1.0,9.57
49.285654,4.113311,9.01,1.13,1.54,10.74
49.285654,4.113311,9.01,1.21,1.0,10.58
49.285603,4.113222,8.08,2.35,1.14,9.38
49.285603,4.113222,8.08,1.39,1.28,9.8
49.285566,4.113134,7.39,0.98,1.59,10.75
49.285566,4.113134,7.39,1.36,1.33,10.28
49.285547,4.113035,7.22,0.65,1.63,9.7
49.285547,4.113035,7.22,0.2,1.55,9.21
49.285544,4.112935,6.79,-1.41,1.28,10.3
49.285544,4.112935,6.79,-2.49,0.69,9.18
49.285543,4.112845,6.24,-3.12,0.77,10.2
49.285543,4.112845,6.24,-3.85,0.43,10.27
49.285534,4.112758,5.35,-2.96,0.96,9.89
49.285534,4.112758,5.35,-3.28,1.26,8.92
49.285502,4.112699,5.4,-3.0,1.92,10.09
49.285502,4.112699,5.4,-2.3,2.15,9.63
49.285451,4.112674,6.19,-0.92,1.82,9.11
49.285451,4.112674,6.19,1.43,1.92,9.71
49.285391,4.112684,5.77,1.93,2.0,9.74
49.285391,4.112684,5.77,1.84,2.16,9.77
49.285339,4.112697,5.85,2.91,3.41,9.86
49.285339,4.112697,5.85,1.86,2.93,9.77
49.285284,4.112677,6.98,2.04,3.33,9.93
49.285284,4.112677,6.98,0.14,3.5,8.94
49.285216,4.112606,8.97,0.51,2.71,9.44
49.285216,4.112606,8.97,-0.33,3.23,9.72
49.285147,4.112511,9.94,-0.45,3.12,10.24
49.285147,4.112511,9.94,-0.55,2.11,9.4
49.285078,4.112408,10.65,0.12,1.6,10.18
49.285078,4.112408,10.65,0.58,2.1,8.93
49.285003,4.112295,11.78,0.24,1.81,7.61
49.284922,4.112172,12.11,0.63,2.04,10.7
49.284922,4.112172,12.11,-0.93,2.53,9.23
49.284841,4.112043,12.79,-0.44,2.6,10.6
49.284841,4.112043,12.79,0.11,1.88,9.04
49.284757,4.111914,13.25,0.38,2.15,8.72
49.284757,4.111914,13.25,0.38,2.4,9.62
49.284671,4.111786,13.53,-0.32,1.53,11.92
49.284671,4.111786,13.53,-0.38,1.04,9.83
49.284588,4.111656,13.21,-0.16,1.39,9.36
49.284588,4.111656,13.21,0.08,0.68,8.59
49.284513,4.111531,12.62,0.09,2.1,9.84
49.284513,4.111531,12.62,0.23,1.68,9.33
49.284445,4.1114,11.8,-0.79,1.88,10.47
49.284445,4.1114,11.8,-0.66,1.46,9.8
49.284379,4.111275,11.67,-0.81,2.06,10.53
49.284379,4.111275,11.67,-0.53,1.23,11.37
49.284319,4.111149,11.19,-0.31,1.21,10.23
49.284319,4.111149,11.19,-1.24,1.71,10.07
49.284262,4.111026,10.97,-0.66,1.35,8.32
49.284262,4.111026,10.97,-0.64,0.92,10.31
49.28421,4.110908,10.42,-1.07,1.08,8.71
49.28421,4.110908,10.42,-0.86,0.21,9.94
49.28416,4.110795,9.73,-0.5,1.77,10.74
49.28416,4.110795,9.73,-0.16,1.32,9.51
49.284114,4.11069,8.88,-0.24,1.02,10.02
49.284114,4.11069,8.88,0.05,0.91,10.01
49.284072,4.110594,7.99,-0.42,1.24,10.1
49.284072,4.110594,7.99,-0.21,1.73,9.77
49.284032,4.110506,7.36,0.22,2.04,10.52
49.284032,4.110506,7.36,0.59,2.08,9.93
49.283996,4.110425,6.94,1.49,2.22,9.37
49.283996,4.110425,6.94,1.32,2.24,8.64
49.283966,4.110341,6.95,0.54,2.04,9.1
49.283966,4.110341,6.95,-1.07,2.05,9.14
49.283944,4.110244,7.82,-2.1,1.63,9.79
49.283944,4.110244,7.82,-3.38,2.0,9.43
49.283928,4.110139,8.29,-4.25,2.21,11.12
49.283928,4.110139,8.29,-1.61,3.05,9.88
49.283901,4.110025,8.9,-0.43,2.91,8.7
49.283848,4.109924,9.61,-0.83,2.69,10.24
49.283848,4.109924,9.61,1.12,3.63,9.21
49.283789,4.109816,10.61,0.33,2.96,10.27
49.283789,4.109816,10.61,0.37,2.77,10.3
49.283731,4.109688,11.74,-0.22,2.14,9.09
49.283731,4.109688,11.74,-0.49,3.31,8.95
49.283672,4.109545,12.71,-0.31,2.53,9.51
49.283672,4.109545,12.71,0.01,2.12,9.28
49.283615,4.109385,13.6,-1.07,1.74,8.96
49.283615,4.109385,13.6,0.13,1.36,12.7
49.283553,4.109211,14.61,-0.22,3.28,9.56
49.283553,4.109211,14.61,0.22,1.9,9.11
49.283489,4.10903,14.99,-0.7,2.83,10.0
49.283489,4.10903,14.99,-0.13,1.27,10.0
49.283423,4.108848,15.07,-1.74,0.77,10.87
49.283423,4.108848,15.07,-0.63,0.62,10.1
49.283358,4.10867,14.49,-0.45,0.71,9.9
49.283358,4.10867,14.49,-1.55,1.02,10.11
49.283295,4.108498,13.77,-0.3,0.91,10.17
49.283295,4.108498,13.77,-0.12,1.12,10.72
49.283235,4.108333,13.1,0.27,1.42,11.26
49.283235,4.108333,13.1,-0.32,1.68,9.96
49.28318,4.108178,12.42,-0.95,0.78,10.81
49.28318,4.108178,12.42,0.34,1.1,9.1
49.283125,4.108032,11.85,-0.74,0.76,8.61
49.283125,4.108032,11.85,-0.52,0.5,9.59
49.283073,4.107892,11.23,-1.29,0.33,10.47
49.283073,4.107892,11.23,0.4,1.72,11.08
49.283026,4.107756,10.56,0.07,0.35,10.56
49.283026,4.107756,10.56,-0.02,1.28,10.94
49.282983,4.107632,9.48,-0.38,0.46,10.14
49.282983,4.107632,9.48,-0.15,0.68,9.65
49.282946,4.107525,8.21,0.06,0.55,10.28
49.282946,4.107525,8.21,-0.53,0.51,10.87
49.282916,4.107434,6.78,-0.72,0.79,9.57
49.282916,4.107434,6.78,-0.34,1.03,9.97
49.282891,4.107363,5.74,-0.23,1.33,10.49
49.282891,4.107363,5.74,-0.6,1.77,9.69
49.282871,4.1073,5.3,-0.34,2.17,8.66
49.282853,4.10724,5.41,0.22,2.02,9.46
49.282853,4.10724,5.41,0.22,2.39,9.36
49.282836,4.107173,6.04,0.27,2.54,8.47
49.282836,4.107173,6.04,1.16,2.78,8.51
49.282819,4.10709,6.55,0.12,2.28,9.42
49.282819,4.10709,6.55,-0.61,3.18,9.4
49.282807,4.106986,7.77,-0.24,2.48,10.63
49.282807,4.106986,7.77,-1.12,2.06,10.49
49.282807,4.106872,8.37,-1.83,1.75,9.51
49.282807,4.106872,8.37,-2.33,1.33,9.27
49.282804,4.106753,8.58,-2.35,1.35,10.45
49.282804,4.106753,8.58,-3.09,1.01,9.21
49.28279,4.106639,8.53,-3.26,1.34,10.56
49.28279,4.106639,8.53,-3.63,1.12,10.15
49.282757,4.106535,8.33,-3.64,1.02,10.35
49.282757,4.106535,8.33,-3.83,1.15,10.38
49.282707,4.106458,8.09,-4.05,1.08,10.13
49.282707,4.106458,8.09,-3.73,1.28,9.91
49.282638,4.106424,7.78,-3.31,1.24,9.79
49.282638,4.106424,7.78,-3.7,1.7,8.86
49.282567,4.106429,7.38,-3.36,1.56,9.21
49.282567,4.106429,7.38,-4.21,2.15,9.28
49.282493,4.106476,8.55,-3.3,2.15,9.1
49.282493,4.106476,8.55,-3.23,2.05,10.17
49.282432,4.10657,9.31,-1.48,1.82,9.58
49.282432,4.10657,9.31,-0.8,1.83,10.78
49.282386,4.106693,9.88,1.52,2.56,9.2
49.282386,4.106693,9.88,1.75,2.11,8.88
49.28234,4.106823,10.05,1.11,2.9,10.18
49.28234,4.106823,10.05,1.57,3.0,9.06
49.282282,4.106953,10.75,1.42,2.95,9.27
49.282282,4.106953,10.75,-0.44,2.93,9.5
49.282207,4.107064,11.67,-0.6,3.12,11.36
49.282207,4.107064,11.67,0.85,2.13,8.6
49.282118,4.107161,12.39,1.74,2.59,9.65
49.282118,4.107161,12.39,1.29,1.72,8.5
49.282018,4.107242,12.63,0.95,1.81,10.37
49.282018,4.107242,12.63,2.4,1.87,8.66
49.281915,4.10731,12.24,2.81,2.02,10.77
49.281915,4.10731,12.24,1.78,2.74,9.35
49.281811,4.107351,11.77,1.55,2.46,11.22
49.281811,4.107351,11.77,1.5,2.57,9.25
49.2817,4.107357,12.08,0.64,3.22,9.77
49.281589,4.107325,12.31,0.57,2.26,8.83
49.281589,4.107325,12.31,0.88,2.51,9.99
49.281477,4.107258,12.96,-0.39,1.88,8.33
49.281477,4.107258,12.96,0.42,2.98,7.83
